"Time (s)","Acceleration x (m/s^2)","Acceleration y (m/s^2)","Acceleration z (m/s^2)","Absolute acceleration (m/s^2)"
4.433033000E-3,-3.406050205E0,4.468950272E0,6.844950199E0,8.855847659E0
6.930574000E-3,-3.451050282E0,4.495050430E0,6.676950455E0,8.757676278E0
9.429036000E-3,-3.480000257E0,4.570050240E0,6.820950508E0,8.917461905E0
1.192757400E-2,-3.487050056E0,4.633950233E0,7.125000477E0,9.186873497E0
1.442605000E-2,-3.495000124E0,4.633950233E0,7.204050541E0,9.251316924E0
1.692451100E-2,-3.472950220E0,4.627050400E0,7.144050121E0,9.192846717E0
1.942320200E-2,-3.418050051E0,4.627050400E0,7.003050327E0,9.062856914E0
2.192166500E-2,-3.396000147E0,4.633950233E0,6.909000397E0,8.985577235E0
2.442020200E-2,-3.382050276E0,4.609950066E0,6.925950527E0,8.981018560E0
2.691865500E-2,-3.403950214E0,4.600950241E0,6.936000347E0,8.992425757E0
2.941734500E-2,-3.442050219E0,4.564949989E0,6.912000179E0,8.970073834E0
3.191580900E-2,-3.508950233E0,4.527000427E0,6.924000263E0,8.986002685E0
3.441427100E-2,-3.679050207E0,4.467000008E0,6.900000095E0,9.005526126E0
3.691280700E-2,-3.874950171E0,4.420950413E0,6.909000397E0,9.071622118E0
3.941126600E-2,-3.982950211E0,4.408950329E0,6.832950115E0,9.054940235E0
4.190972700E-2,-4.096050262E0,4.399950027E0,6.892050266E0,9.145356465E0
4.440841700E-2,-4.231950283E0,4.330049992E0,7.017000198E0,9.268064950E0
4.690688100E-2,-4.394999981E0,4.270050049E0,7.228050232E0,9.475972900E0
4.940541700E-2,-4.435050011E0,4.254000187E0,7.357050419E0,9.586051171E0
5.190388600E-2,-4.447050095E0,4.255949974E0,7.467000484E0,9.677058487E0
5.440257600E-2,-4.452000141E0,4.246050358E0,7.563000202E0,9.749267714E0
5.690104000E-2,-4.476000309E0,4.237050056E0,7.608000278E0,9.791263462E0
5.939957600E-2,-4.503000259E0,4.227000237E0,7.668000221E0,9.845951946E0
6.189797800E-2,-4.522050381E0,4.242000103E0,7.813950539E0,9.975035215E0
6.439651400E-2,-4.455000401E0,4.243950367E0,7.909950256E0,1.002125024E1
6.689497800E-2,-4.426050186E0,4.219950199E0,8.068050385E0,1.012380052E1
6.939366800E-2,-4.261050224E0,4.195950031E0,8.206950188E0,1.015463328E1
7.189213200E-2,-4.026000023E0,4.174950123E0,8.326950073E0,1.014775750E1
7.439067800E-2,-3.717000246E0,4.155000210E0,8.506050110E0,1.017020187E1
7.688914200E-2,-3.424950123E0,4.129050255E0,8.662050247E0,1.018874152E1
7.938760300E-2,-3.171000242E0,4.102950096E0,8.829000473E0,1.023917435E1
8.188629400E-2,-2.968050241E0,4.054950237E0,8.932050705E0,1.024858397E1
8.438474700E-2,-2.845950127E0,3.994950294E0,9.076050758E0,1.031667375E1
8.688328400E-2,-2.683050156E0,3.981000185E0,9.069000244E0,1.026128092E1
8.938174700E-2,-2.434050083E0,4.029000282E0,9.085950851E0,1.023288551E1
9.188043700E-2,-2.247000217E0,4.050000191E0,9.174000740E0,1.027685755E1
9.437890100E-2,-2.046000004E0,4.065000057E0,9.241050720E0,1.030084268E1
9.687734400E-2,-1.822950125E0,4.132050037E0,9.232050896E0,1.027753611E1
9.937588000E-2,-1.606050134E0,4.186950207E0,9.319950104E0,1.034269883E1
1.018743440E-1,-1.447950125E0,4.190999985E0,9.426000595E0,1.041683866E1
1.043728050E-1,-1.330050111E0,4.242000103E0,9.552000046E0,1.053585796E1
1.068714950E-1,-1.210950017E0,4.278000355E0,9.555000305E0,1.053877212E1
1.093699350E-1,-1.036050081E0,4.348950386E0,9.568950653E0,1.056179842E1
1.118684710E-1,-8.509500623E-1,4.411950111E0,9.402000427E0,1.042051015E1
1.143669350E-1,-7.219500542E-1,4.503000259E0,9.150000572E0,1.022353822E1
1.168656250E-1,-6.649500132E-1,4.572000027E0,8.887050629E0,1.001623740E1
1.193640890E-1,-7.390500307E-1,4.620000362E0,9.032999992E0,1.017279151E1
1.218625450E-1,-8.899500370E-1,4.596000195E0,9.246000290E0,1.036357806E1
1.243610070E-1,-1.108050108E0,4.552950382E0,9.475950241E0,1.057122345E1
1.268595430E-1,-1.306050062E0,4.498050213E0,9.619050026E0,1.069880114E1
1.293580070E-1,-1.500000119E0,4.450050354E0,9.760950089E0,1.083185557E1
1.318566970E-1,-1.620000124E0,4.443000317E0,9.897000313E0,1.096883163E1
1.343551610E-1,-1.693950057E0,4.402050018E0,9.943050385E0,1.100507892E1
1.368536970E-1,-1.732050061E0,4.396950245E0,9.940050125E0,1.100626028E1
1.393521610E-1,-1.720050097E0,4.408950329E0,9.877950668E0,1.095314223E1
1.418508510E-1,-1.636950135E0,4.384950161E0,9.787050247E0,1.084867486E1
1.443493150E-1,-1.576950073E0,4.371000290E0,9.709950447E0,1.076455075E1
1.468478510E-1,-1.504950047E0,4.393050194E0,9.672000885E0,1.072899649E1
1.493463150E-1,-1.432950020E0,4.369050026E0,9.655050278E0,1.069401420E1
1.518447760E-1,-1.351950049E0,4.357050419E0,9.604950905E0,1.063328450E1
1.543432380E-1,-1.291950107E0,4.354050159E0,9.538050652E0,1.056415156E1
1.568419080E-1,-1.297050118E0,4.354050159E0,9.528000832E0,1.055570422E1
1.593403720E-1,-1.312950015E0,4.314000130E0,9.483000755E0,1.050055895E1
1.618389080E-1,-1.318050027E0,4.297049999E0,9.460950851E0,1.047432507E1
1.643373720E-1,-1.402050018E0,4.294050217E0,9.406050682E0,1.043448135E1
1.668358240E-1,-1.479000092E0,4.278000355E0,9.418050766E0,1.044932575E1
1.693345150E-1,-1.543050051E0,4.261050224E0,9.370050430E0,1.040842916E1
1.718329780E-1,-1.576950073E0,4.294050217E0,9.330000877E0,1.039108056E1
1.743315150E-1,-1.627050042E0,4.275000095E0,9.270000458E0,1.033710918E1
1.768299780E-1,-1.641000032E0,4.266000271E0,9.186000824E0,1.026032410E1
1.793286530E-1,-1.665000081E0,4.237050056E0,9.117000580E0,1.019041304E1
1.818271170E-1,-1.612950087E0,4.218000412E0,9.076050758E0,1.013744706E1
1.843256530E-1,-1.539000034E0,4.203000069E0,8.980050087E0,1.003369475E1
1.868241170E-1,-1.516950130E0,4.195950031E0,8.962950706E0,1.001207370E1
1.893225830E-1,-1.456950068E0,4.171950340E0,8.983050346E0,1.001114712E1
1.918210450E-1,-1.384950042E0,4.167000294E0,8.977950096E0,9.994276662E0
1.943197350E-1,-1.348950028E0,4.155000210E0,8.983050346E0,9.988938204E0
1.968181990E-1,-1.254000068E0,4.167000294E0,9.004050255E0,1.000046642E1
1.993167350E-1,-1.129050016E0,4.167000294E0,8.767050743E0,9.772401144E0
2.018151890E-1,-1.051950097E0,4.162950039E0,8.568000793E0,9.583704379E0
2.043138790E-1,-9.400500655E-1,4.167000294E0,8.464950562E0,9.481717860E0
2.068123430E-1,-8.850000501E-1,4.114950180E0,8.314949989E0,9.319572597E0
2.093108040E-1,-8.490000367E-1,4.072050095E0,8.194950104E0,9.190190435E0
2.118093410E-1,-7.840500474E-1,4.050000191E0,8.011050224E0,9.010780306E0
2.143078090E-1,-7.290000319E-1,4.036050320E0,7.893000603E0,8.894976208E0
2.168065000E-1,-7.030500174E-1,3.970950127E0,7.783050537E0,8.765762939E0
2.193049630E-1,-7.680000067E-1,3.901950121E0,7.764000416E0,8.723229976E0
2.218035000E-1,-7.960500121E-1,3.874950171E0,7.788000584E0,8.735095165E0
2.243019730E-1,-8.350500464E-1,3.813000202E0,7.828950405E0,8.748070848E0
2.268004350E-1,-8.820000291E-1,3.739050150E0,7.993950367E0,8.869141026E0
2.292991250E-1,-9.210000634E-1,3.697950125E0,8.260050774E0,9.096785972E0
2.317975890E-1,-9.400500655E-1,3.685950279E0,8.524950027E0,9.335132380E0
2.342960500E-1,-1.017000079E0,3.619050264E0,8.815050125E0,9.583158283E0
2.367945960E-1,-8.779500127E-1,3.636000156E0,9.138000488E0,9.873922538E0
2.392930590E-1,-8.080500364E-1,3.640950203E0,9.418050766E0,1.012961714E1
2.417917490E-1,-6.190500259E-1,3.720000267E0,9.555000305E0,1.027227607E1
2.442902130E-1,-4.369500279E-1,3.844050169E0,9.724950790E0,1.046624646E1
2.467886750E-1,-3.220500052E-1,3.921000242E0,9.916050911E0,1.066799066E1
2.492872110E-1,-2.550000250E-1,3.978000164E0,1.004100037E1,1.080329573E1
2.517856750E-1,-2.599500120E-1,4.005000114E0,1.020600033E1,1.096676993E1
2.542843650E-1,-2.239500135E-1,4.066950321E0,1.034700012E1,1.111983139E1
2.567828280E-1,-2.959500253E-1,4.062000275E0,1.067295074E1,1.142362947E1
2.592812900E-1,-3.319500089E-1,4.099950314E0,1.092195034E1,1.167085184E1
2.617798170E-1,-3.870000243E-1,4.207950115E0,1.114500046E1,1.191921341E1
2.642782810E-1,-4.300500154E-1,4.287000179E0,1.110900021E1,1.191525070E1
2.667769710E-1,-2.770500183E-1,4.381050110E0,1.133595085E1,1.215623867E1
2.692754350E-1,3.105000220E-2,4.522050381E0,1.125195026E1,1.212667673E1
2.717739660E-1,1.560000032E-1,4.668000221E0,1.113000011E1,1.207027194E1
2.742724300E-1,2.710500062E-1,4.768050194E0,1.106295013E1,1.204975670E1
2.767708910E-1,2.389500141E-1,4.741950035E0,1.076100063E1,1.176190129E1
2.792695820E-1,2.539499998E-1,4.596000195E0,1.075200081E1,1.169586379E1
2.817680450E-1,2.595000155E-2,4.378050327E0,1.055595016E1,1.142786428E1
2.842666110E-1,-3.299999982E-2,4.394999981E0,1.007700062E1,1.099377348E1
2.867650740E-1,1.440000087E-1,4.450050354E0,9.841950417E0,1.080220682E1
2.892635360E-1,2.610000074E-1,4.492950439E0,9.259950638E0,1.029569864E1
2.917622260E-1,3.760500252E-1,4.633950233E0,8.899050713E0,1.004031932E1
2.942607090E-1,5.310000181E-1,4.771050453E0,8.523000717E0,9.781943808E0
2.967592450E-1,5.119500160E-1,4.756050110E0,8.446050644E0,9.706589357E0
2.992577090E-1,4.999500215E-1,4.653000355E0,8.506050110E0,9.708411343E0
3.017561700E-1,6.100500226E-1,4.680000305E0,8.458050728E0,9.685720727E0
3.042548610E-1,8.020500541E-1,4.765950203E0,8.485050201E0,9.764918973E0
3.067533090E-1,9.700500369E-1,4.812000275E0,8.511000633E0,9.825145062E0
3.092518460E-1,1.197000027E0,4.894950390E0,8.347949982E0,9.750980324E0
3.117503090E-1,1.221000075E0,4.879050255E0,8.134950638E0,9.564172440E0
3.142487710E-1,1.309950113E0,5.020050049E0,7.917000294E0,9.465503972E0
3.167474610E-1,1.480050087E0,5.197050095E0,7.723050594E0,9.425783173E0
3.192459240E-1,1.420050025E0,5.299950123E0,7.576950550E0,9.355008980E0
3.217444610E-1,1.389000058E0,5.347950459E0,7.311000347E0,9.164094137E0
3.242429250E-1,1.290000081E0,5.299950123E0,7.005000114E0,8.878265490E0
3.267413860E-1,9.600000381E-1,5.239950180E0,6.871050358E0,8.694251606E0
3.292400760E-1,7.369500399E-1,5.130000114E0,6.787050247E0,8.539557810E0
3.317385210E-1,3.400500119E-1,4.993050098E0,6.552000523E0,8.244688845E0
3.342370570E-1,-1.429500133E-1,4.870950222E0,6.483000278E0,8.110233251E0
3.367355210E-1,-4.249500334E-1,4.642050266E0,6.295950413E0,7.833786109E0
3.392339820E-1,-7.339500189E-1,4.555050373E0,6.217050076E0,7.742020290E0
3.417326730E-1,-1.290000081E0,4.480950356E0,6.097950459E0,7.676458565E0
3.442311360E-1,-1.432950020E0,4.278000355E0,5.592000484E0,7.185061044E0
3.467296730E-1,-1.921950102E0,4.207950115E0,5.355000019E0,7.076493593E0
3.492281360E-1,-2.170950174E0,4.126950264E0,5.011050224E0,6.845098063E0
3.517266120E-1,-2.592000008E0,4.048050404E0,4.480950356E0,6.571460431E0
3.542253020E-1,-3.229050159E0,3.937950134E0,4.000050068E0,6.475694305E0
3.567237660E-1,-3.832050085E0,3.934950113E0,3.660000086E0,6.600306120E0
3.592223020E-1,-4.513950348E0,3.940050125E0,4.126950264E0,7.275401103E0
3.617207660E-1,-4.981050014E0,3.792000294E0,4.695000172E0,7.825161474E0
3.642192270E-1,-5.215950012E0,3.600000143E0,5.403000355E0,8.328177976E0
3.667179180E-1,-5.455050468E0,3.367950201E0,6.271950245E0,8.968724772E0
3.692163810E-1,-5.700000286E0,3.672000170E0,7.084050179E0,9.805985694E0
3.717149180E-1,-6.054000378E0,3.799050093E0,8.023050308E0,1.074490756E1
3.742133810E-1,-6.466050148E0,3.784050226E0,8.389050484E0,1.124744454E1
3.767120810E-1,-6.717000484E0,3.751050234E0,8.723999977E0,1.163170877E1
3.792105450E-1,-6.538050175E0,3.792000294E0,8.746050835E0,1.155935861E1
3.817090070E-1,-5.998950481E0,3.813000202E0,8.455950737E0,1.104669545E1
3.842075430E-1,-5.106000423E0,3.910950184E0,7.717950344E0,1.004656803E1
3.867060160E-1,-4.039950371E0,4.111950397E0,7.219950199E0,9.238886077E0
3.892047060E-1,-3.145050049E0,4.363950253E0,7.350000381E0,9.108123145E0
3.917031690E-1,-2.374050140E0,4.297049999E0,8.086950302E0,9.460418487E0
3.942016310E-1,-1.606050134E0,4.309050083E0,8.546999931E0,9.705592072E0
3.967001670E-1,-7.390500307E-1,4.440000057E0,8.875050545E0,9.951196794E0
3.991986510E-1,1.695000008E-2,4.527000427E0,9.040050507E0,1.011021925E1
4.016971130E-1,6.150000095E-1,4.636950016E0,9.114000320E0,1.024424386E1
4.041958030E-1,9.820500612E-1,4.705950260E0,9.130949974E0,1.031913938E1
4.066942660E-1,1.246950030E0,4.894950390E0,9.129000664E0,1.043331572E1
4.091928030E-1,1.365000010E0,4.977000237E0,9.164999962E0,1.051812629E1
4.116912660E-1,1.350000024E0,5.001000404E0,9.070950508E0,1.044579572E1
4.141899570E-1,1.486950040E0,5.013000011E0,8.953950882E0,1.036891633E1
4.166884200E-1,1.623000026E0,4.986000061E0,8.809950829E0,1.025229532E1
4.191868820E-1,1.671000123E0,4.905000210E0,8.497050285E0,9.952443520E0
4.216854030E-1,1.870050073E0,4.930950165E0,7.939050198E0,9.530995480E0
4.241838670E-1,2.116050005E0,5.026950359E0,7.261050224E0,9.081340644E0
4.266825570E-1,2.473050117E0,5.178000450E0,6.732000351E0,8.845761373E0
4.291810210E-1,2.740950108E0,5.275950432E0,6.402000427E0,8.736937102E0
4.316795420E-1,2.983050108E0,5.398050308E0,6.327000141E0,8.835636132E0
4.341780060E-1,3.262950182E0,5.575050354E0,6.390000343E0,9.086260767E0
4.366764670E-1,3.535950184E0,5.805000305E0,6.588000298E0,9.465871337E0
4.391749290E-1,3.807000160E0,6.082950115E0,6.706050396E0,9.821743442E0
4.416736190E-1,4.009950161E0,6.370050430E0,6.724950314E0,1.009367126E1
4.441720880E-1,4.017000198E0,6.564000130E0,6.718050480E0,1.021540947E1
4.466706240E-1,4.005000114E0,6.523050308E0,7.402050495E0,1.064803093E1
4.491690880E-1,4.795950413E0,6.118950367E0,1.071405029E1,1.323758164E1
4.516677780E-1,5.266950130E0,5.980050087E0,1.308105087E1,1.531716862E1
4.541662420E-1,4.834050179E0,6.388950348E0,9.423000336E0,1.236849478E1
4.566647920E-1,4.077000141E0,6.894000530E0,6.684000492E0,1.043192389E1
4.591632560E-1,3.816000223E0,7.054950237E0,6.742050171E0,1.047804472E1
4.616617170E-1,4.120050430E0,6.964050293E0,8.094000816E0,1.144489673E1
4.641604070E-1,4.137000084E0,7.102950573E0,8.437050819E0,1.177924034E1
4.666588620E-1,3.342000246E0,7.051950455E0,8.911050797E0,1.184507481E1
4.691573980E-1,2.923050165E0,6.784050465E0,9.375000000E0,1.193558494E1
4.716558620E-1,2.695950031E0,6.504000187E0,9.912000656E0,1.215803940E1
4.741543230E-1,2.617050171E0,6.270000458E0,1.017495060E1,1.223484683E1
4.766527850E-1,2.752950191E0,6.022950172E0,1.030395031E1,1.224851238E1
4.791514600E-1,3.088050127E0,5.793000221E0,1.037400055E1,1.227659532E1
4.816499240E-1,3.463950157E0,5.580000401E0,1.040700054E1,1.230613731E1
4.841484600E-1,3.795000076E0,5.359950066E0,1.020405006E1,1.213481471E1
4.866469240E-1,4.453050137E0,4.929000378E0,9.556950569E0,1.163872864E1
4.891456140E-1,4.932000160E0,4.777950287E0,8.928000450E0,1.126333106E1
4.916440780E-1,4.804950237E0,4.780050278E0,8.868000031E0,1.116144489E1
4.941426140E-1,4.246950150E0,4.651050091E0,8.590050697E0,1.065165825E1
4.966410780E-1,3.691950083E0,4.543050289E0,8.023050308E0,9.931723798E0
4.991397680E-1,3.274950266E0,4.524000168E0,7.489050388E0,9.342256284E0
5.016382320E-1,3.280050039E0,5.014950275E0,6.888000488E0,9.129786704E0
5.041367490E-1,3.184050083E0,5.221050262E0,6.648000240E0,9.032909164E0
5.066352130E-1,3.091050148E0,5.584950447E0,6.280050278E0,8.954624169E0
5.091336740E-1,2.907000065E0,5.800050259E0,5.983050346E0,8.825424852E0
5.116321360E-1,2.665050030E0,5.779050350E0,5.767050266E0,8.588293392E0
5.141308260E-1,2.491950035E0,5.796000481E0,5.509050369E0,8.375743103E0
5.166292950E-1,2.464050055E0,5.587050438E0,5.467950344E0,8.196655186E0
5.191278310E-1,2.578950167E0,5.214000225E0,5.515950203E0,8.016388772E0
5.216262950E-1,2.904000044E0,4.938000202E0,5.503950119E0,7.944213565E0
5.241249850E-1,3.280050039E0,4.792050362E0,5.523000240E0,8.014112963E0
5.266234720E-1,3.643950224E0,4.642050266E0,5.659050465E0,8.176298433E0
5.291220090E-1,3.988950253E0,4.476000309E0,5.688000202E0,8.264360180E0
5.316204720E-1,4.318950176E0,4.354050159E0,5.655000210E0,8.342068736E0
5.341189340E-1,4.735949993E0,4.159950256E0,5.731050491E0,8.519351396E0
5.366176240E-1,5.152050018E0,4.287000179E0,5.868000507E0,8.908165910E0
5.391160830E-1,5.197950363E0,4.239000320E0,6.076050282E0,9.050204347E0
5.416146190E-1,5.349000454E0,4.278000355E0,6.286950111E0,9.297248765E0
5.441130830E-1,5.631000042E0,4.399950027E0,6.343950272E0,9.555805919E0
5.466115440E-1,5.812950134E0,4.576950073E0,6.142950058E0,9.616376482E0
5.491102350E-1,6.072000504E0,4.788000107E0,5.856000423E0,9.699838973E0
5.516087270E-1,6.124050140E0,4.837950230E0,5.659050465E0,9.640259577E0
5.541071890E-1,6.234000206E0,5.025000095E0,5.335950375E0,9.622148977E0
5.566057250E-1,6.318000317E0,5.295000076E0,4.849950314E0,9.564317637E0
5.591041890E-1,6.414000511E0,5.554050446E0,4.394999981E0,9.555255294E0
5.616028790E-1,6.582000256E0,5.712000370E0,4.096050262E0,9.629501718E0
5.641013430E-1,6.744000435E0,5.815050125E0,4.048050404E0,9.781771920E0
5.665998790E-1,6.835050106E0,5.805000305E0,4.255949974E0,9.926179964E0
5.690983430E-1,6.859050274E0,5.683050156E0,4.549050331E0,1.000187426E1
5.715970330E-1,6.760950089E0,5.458050251E0,4.852950096E0,9.952481262E0
5.740954970E-1,6.510000229E0,5.122950077E0,5.106000423E0,9.731184964E0
5.765939430E-1,6.285000324E0,4.648950100E0,5.209050179E0,9.394049706E0
5.790924800E-1,5.629050255E0,4.210950375E0,5.193000317E0,8.739883416E0
5.815909430E-1,4.951050282E0,3.811050177E0,5.242950439E0,8.156318511E0
5.840896330E-1,4.450950146E0,3.430050135E0,5.377050400E0,7.777459233E0
5.865881020E-1,4.141950130E0,3.073050261E0,5.476950169E0,7.523056024E0
5.890865640E-1,3.912000179E0,2.709000111E0,5.454000473E0,7.237993380E0
5.915850250E-1,3.670050144E0,2.319000006E0,5.398050308E0,6.927191077E0
5.940835620E-1,3.286950111E0,1.942950130E0,5.406000137E0,6.618454028E0
5.965820250E-1,2.856000185E0,1.584000111E0,5.395950317E0,6.307303167E0
5.990806910E-1,2.443950176E0,1.210950017E0,5.430000305E0,6.076528262E0
6.015791550E-1,2.083050013E0,8.230500221E-1,5.401050091E0,5.847037778E0
6.040776910E-1,1.786050081E0,4.759500325E-1,5.353050232E0,5.663183743E0
6.065761550E-1,1.579950094E0,1.840500087E-1,5.239950180E0,5.476056482E0
6.090748450E-1,1.426950097E0,-5.505000427E-2,5.157000065E0,5.351062208E0
6.115732990E-1,1.282950044E0,-2.539499998E-1,5.062950134E0,5.229140989E0
6.140718350E-1,1.129950047E0,-4.429500103E-1,4.888050079E0,5.036469537E0
6.165702990E-1,9.739500284E-1,-5.890500546E-1,4.735050201E0,4.869934192E0
6.190687600E-1,7.800000310E-1,-7.249500155E-1,4.666050434E0,4.786019142E0
6.215674510E-1,5.890500546E-1,-8.520000577E-1,4.627950191E0,4.742447368E0
6.240659300E-1,3.760500252E-1,-9.739500284E-1,4.470000267E0,4.590304420E0
6.265643920E-1,2.989500165E-1,-1.020000100E0,4.318950176E0,4.447819909E0
6.290629280E-1,3.060000241E-1,-1.101000071E0,4.170000076E0,4.323741182E0
6.315613920E-1,2.820000052E-1,-1.180050015E0,3.957000256E0,4.138827499E0
6.340598430E-1,1.170000061E-1,-1.405050039E0,3.543000221E0,3.813227659E0
6.365585340E-1,8.100000024E-2,-1.506000042E0,3.313050270E0,3.640178460E0
6.390569970E-1,1.840500087E-1,-1.518000126E0,3.319950104E0,3.655169966E0
6.415555340E-1,2.029500157E-1,-1.551000118E0,3.234000206E0,3.592429179E0
6.440539870E-1,2.939999998E-1,-1.675950050E0,3.106950045E0,3.542369708E0
6.465526780E-1,3.060000241E-1,-1.792950034E0,2.956050158E0,3.470812351E0
6.490511410E-1,2.350500077E-1,-1.987050056E0,2.671050072E0,3.337382945E0
6.515496780E-1,4.095000029E-2,-2.253000021E0,2.374950171E0,3.273847020E0
6.540481410E-1,-2.700000107E-1,-2.593050241E0,2.029950142E0,3.304165120E0
6.565466180E-1,-5.160000324E-1,-2.977950096E0,1.743000031E0,3.488909846E0
6.590453080E-1,-8.590500355E-1,-3.345000267E0,1.429050088E0,3.737536341E0
6.615437710E-1,-1.093050003E0,-3.754050255E0,1.194000006E0,4.088188797E0
6.640423080E-1,-1.536000013E0,-4.216050148E0,9.720000625E-1,4.591204527E0
6.665407750E-1,-1.909950137E0,-4.695000172E0,7.819500566E-1,5.128584798E0
6.690394660E-1,-2.282999992E0,-5.214000225E0,6.319500208E-1,5.726888173E0
6.715379290E-1,-2.668950081E0,-5.794050217E0,4.710000157E-1,6.396573572E0
6.740363910E-1,-2.925000191E0,-6.277050495E0,3.730500042E-1,6.935139172E0
6.765349270E-1,-3.127950191E0,-6.730050087E0,3.870000243E-1,7.431515027E0
6.790334010E-1,-3.388950109E0,-7.221000195E0,3.780000210E-1,7.985656558E0
6.815318620E-1,-3.624000072E0,-7.728000164E0,3.180000186E-1,8.541456964E0
6.840305530E-1,-3.672000170E0,-7.981950283E0,4.039500058E-1,8.795356228E0
6.865290160E-1,-3.360000134E0,-8.149950027E0,5.530500412E-1,8.832731780E0
6.890275530E-1,-3.030000210E0,-8.122950554E0,9.550500512E-1,8.722118296E0
6.915260210E-1,-3.757950068E0,-8.806050301E0,5.809500217E-1,9.591986944E0
6.940247120E-1,-4.051949978E0,-9.258000374E0,4.330500066E-1,1.011515704E1
6.965231750E-1,-3.808050156E0,-9.646050453E0,3.300000131E-1,1.037576192E1
6.990216370E-1,-3.097050190E0,-9.732000351E0,5.500500202E-1,1.022771263E1
7.015201730E-1,-2.575050116E0,-1.000005054E1,7.699500322E-1,1.035493684E1
7.040186270E-1,-2.274000168E0,-1.007895088E1,8.020500541E-1,1.036337840E1
7.065173170E-1,-1.711050034E0,-1.033095074E1,6.120000482E-1,1.048955573E1
7.090157810E-1,-1.278000116E0,-1.061595058E1,5.070000291E-1,1.070461303E1
7.115143170E-1,-6.930000186E-1,-1.080000019E1,3.870000243E-1,1.082912841E1
7.140127620E-1,2.895000204E-2,-1.092495060E1,4.830000103E-1,1.093566060E1
7.165114520E-1,6.889500618E-1,-1.092705059E1,5.430000424E-1,1.096220488E1
7.190096850E-1,1.302000046E0,-1.089600086E1,7.110000253E-1,1.099652490E1
7.215084520E-1,1.326000094E0,-1.119795036E1,4.999500215E-1,1.128726356E1
7.240068390E-1,1.177950025E0,-1.134105015E1,1.810500026E-1,1.140349788E1
7.265053940E-1,9.580500722E-1,-1.164795017E1,-1.240500063E-1,1.168794214E1
7.290038580E-1,1.173000097E0,-1.196595097E1,-3.349500299E-1,1.202797170E1
7.315025480E-1,1.350000024E0,-1.233000088E1,-2.839500010E-1,1.240693553E1
7.340010110E-1,1.666050076E0,-1.267695045E1,-2.050500065E-1,1.278760498E1
7.364994730E-1,1.899000049E0,-1.304805088E1,-2.130000144E-1,1.318723633E1
7.389979950E-1,1.948950052E0,-1.341000080E1,-6.900000572E-2,1.355106228E1
7.414964590E-1,2.073000193E0,-1.378305054E1,2.220000178E-1,1.393983845E1
7.439951490E-1,2.172000170E0,-1.413795090E1,6.000000238E-1,1.431639760E1
7.464936130E-1,2.227050066E0,-1.439595032E1,1.110000014E0,1.460942290E1
7.489921440E-1,2.217000008E0,-1.460400105E1,1.576950073E0,1.485525857E1
7.514906080E-1,2.224050045E0,-1.478400040E1,1.908000112E0,1.507161341E1
7.539892980E-1,2.274000168E0,-1.495905113E1,2.125950098E0,1.527952720E1
7.564877620E-1,2.377050161E0,-1.516695118E1,2.262000084E0,1.551784199E1
7.589862980E-1,2.605050087E0,-1.534200096E1,2.331000090E0,1.573521023E1
7.614847670E-1,2.803950071E0,-1.556505108E1,2.251950026E0,1.597511283E1
7.639832280E-1,2.842050076E0,-1.574400043E1,2.475000143E0,1.618877463E1
7.664819190E-1,3.567000151E0,-1.594305038E1,2.403000116E0,1.651298747E1
7.689803820E-1,4.434000015E0,-1.596405029E1,1.965000153E0,1.668449830E1
7.714788440E-1,5.182950020E0,-1.594800091E1,1.687050104E0,1.685371893E1
7.739773460E-1,6.361050129E0,-1.594500065E1,1.618050098E0,1.724308820E1
7.764758100E-1,7.426950455E0,-1.590000057E1,1.732950091E0,1.763441882E1
7.789745000E-1,8.440050125E0,-1.577505112E1,1.980000138E0,1.800019679E1
7.814729640E-1,9.376049995E0,-1.563405037E1,2.257050037E0,1.836921662E1
7.839714340E-1,1.010805035E1,-1.545195103E1,2.536950111E0,1.863790729E1
7.864699710E-1,1.071900082E1,-1.525995064E1,2.764950037E0,1.885226832E1
7.889684340E-1,1.126005077E1,-1.507905102E1,2.785950184E0,1.902440647E1
7.914671240E-1,1.188705063E1,-1.493700027E1,2.664000034E0,1.927466851E1
7.939655880E-1,1.261305046E1,-1.479600048E1,2.389050007E0,1.958872717E1
7.964641340E-1,1.343595028E1,-1.468305111E1,2.098950148E0,2.001305428E1
7.989625980E-1,1.434600067E1,-1.453305054E1,1.876950145E0,2.050707768E1
8.014612880E-1,1.539705086E1,-1.437195110E1,1.840950131E0,2.114264059E1
8.039597520E-1,1.644795036E1,-1.414200020E1,2.014950037E0,2.178511566E1
8.064581980E-1,1.741995049E1,-1.387395096E1,2.310000181E0,2.238922265E1
8.089567350E-1,1.833495140E1,-1.357500076E1,2.728950024E0,2.297603658E1
8.114551980E-1,1.918005180E1,-1.333605099E1,3.270000219E0,2.358850450E1
8.139538890E-1,1.953404999E1,-1.299600029E1,3.700950146E0,2.375230861E1
8.164523560E-1,1.939500046E1,-1.266795063E1,3.982950211E0,2.350546550E1
8.189508180E-1,1.929000092E1,-1.244700050E1,4.146000385E0,2.332855066E1
8.214492790E-1,1.939995003E1,-1.237095070E1,4.345050335E0,2.341533567E1
8.239478160E-1,1.962000084E1,-1.235895061E1,4.591950417E0,2.363840312E1
8.264462790E-1,1.988100052E1,-1.237800026E1,4.972050190E0,2.394139418E1
8.289449660E-1,2.014005089E1,-1.237500095E1,5.511000156E0,2.427207080E1
8.314434290E-1,2.028795052E1,-1.234005070E1,6.070950508E0,2.450988020E1
8.339419660E-1,2.032005119E1,-1.222905064E1,6.603000164E0,2.461815938E1
8.364404290E-1,2.044605064E1,-1.209495068E1,7.278000355E0,2.484548466E1
8.389391200E-1,2.088195038E1,-1.193295097E1,7.905000210E0,2.531679677E1
8.414375730E-1,2.164800072E1,-1.179600048E1,8.463000298E0,2.606537812E1
8.439361100E-1,2.250105095E1,-1.158795071E1,8.920050621E0,2.683552121E1
8.464345730E-1,2.338905144E1,-1.129605007E1,9.246000290E0,2.757058207E1
8.489330350E-1,2.444700050E1,-1.087395096E1,9.514050484E0,2.839746115E1
8.514317250E-1,2.560395050E1,-1.038600063E1,9.754050255E0,2.930141271E1
8.539301780E-1,2.677200127E1,-9.775050163E0,1.012500095E1,3.024578155E1
8.564287150E-1,2.793300056E1,-9.118950844E0,1.082595062E1,3.131467694E1
8.589271780E-1,2.904600143E1,-8.491950035E0,1.159005070E1,3.240544229E1
8.614258690E-1,3.017895126E1,-7.903050423E0,1.214295101E1,3.347653752E1
8.639243320E-1,3.129495239E1,-7.405050278E0,1.248495102E1,3.449757697E1
8.664227990E-1,3.244395065E1,-7.036050320E0,1.264305019E1,3.552411373E1
8.689212600E-1,3.334905243E1,-6.799050331E0,1.263600063E1,3.630502576E1
8.714197970E-1,3.388005066E1,-6.712950230E0,1.248105049E1,3.672462600E1
8.739182600E-1,3.444105148E1,-6.658050537E0,1.226295090E1,3.716040405E1
8.764169510E-1,3.496005249E1,-6.547950268E0,1.205205059E1,3.755439849E1
8.789154290E-1,3.533400345E1,-6.463950157E0,1.180500031E1,3.781048113E1
8.814139660E-1,3.560400009E1,-6.462000370E0,1.154700089E1,3.798335821E1
8.839124290E-1,3.569805145E1,-6.493050098E0,1.126395035E1,3.799193539E1
8.864108910E-1,3.580800247E1,-6.570000172E0,1.087395096E1,3.799500958E1
8.889095900E-1,3.593700027E1,-6.603000164E0,1.060605049E1,3.804675948E1
8.914080540E-1,3.595605087E1,-6.598050117E0,1.060305023E1,3.806305997E1
8.939065900E-1,3.594404984E1,-6.498000145E0,1.117095089E1,3.819671279E1
8.964050540E-1,3.594404984E1,-6.304050446E0,1.200405025E1,3.841631155E1
8.989037440E-1,3.599895096E1,-6.057000160E0,1.277505016E1,3.867574987E1
9.014022080E-1,3.624300003E1,-5.748000145E0,1.348605061E1,3.909562786E1
9.039007440E-1,3.661395264E1,-5.406000137E0,1.388400078E1,3.952937949E1
9.063992080E-1,3.705705261E1,-5.023050308E0,1.404900074E1,3.994784856E1
9.088976690E-1,3.745005035E1,-4.546050072E0,1.412295055E1,4.028188892E1
9.113963540E-1,3.793800354E1,-4.180050373E0,1.402995110E1,4.066453567E1
9.138948180E-1,3.845595169E1,-3.852000237E0,1.381395054E1,4.104294526E1
9.163932800E-1,3.881205368E1,-3.507000208E0,1.332600021E1,4.118563880E1
9.188918160E-1,3.910200119E1,-3.097950220E0,1.287795067E1,4.128444509E1
9.213902800E-1,3.936300278E1,-2.647950172E0,1.239705086E1,4.135389338E1
9.238889700E-1,3.942300034E1,-2.233950138E0,1.185105038E1,4.122633726E1
9.263874330E-1,3.946605301E1,-1.872000098E0,1.138905048E1,4.111914634E1
9.288859700E-1,3.930300140E1,-1.542000055E0,1.081695080E1,4.079350571E1
9.313844330E-1,3.899700165E1,-1.309050083E0,1.032300091E1,4.036141843E1
9.338828850E-1,3.849900055E1,-1.111050010E0,9.820950508E0,3.974743444E1
9.363815750E-1,3.813495255E1,-7.399500608E-1,9.370050430E0,3.927620115E1
9.388800390E-1,3.770400238E1,-4.710000157E-1,8.707050323E0,3.869917779E1
9.413785750E-1,3.693495178E1,-4.330500066E-1,7.548000336E0,3.770080244E1
9.438770390E-1,3.583395004E1,-5.890500546E-1,5.989950180E0,3.633591142E1
9.463757150E-1,3.462495041E1,-8.380500674E-1,4.399950027E0,3.491345126E1
9.488741790E-1,3.340394974E1,-1.075049996E0,2.937000036E0,3.355004560E1
9.513726400E-1,3.223995209E1,-1.348050117E0,1.498050094E0,3.230287764E1
9.538711770E-1,3.101895142E1,-1.606050134E0,1.050000042E-1,3.106067882E1
9.563696400E-1,2.982900047E1,-1.932000041E0,-1.161000013E0,2.991404042E1
9.588683450E-1,2.872095108E1,-2.346000195E0,-2.205000162E0,2.890084382E1
9.613668080E-1,2.759595108E1,-2.770050049E0,-3.172050238E0,2.791543652E1
9.638652700E-1,2.644605064E1,-3.129000187E0,-4.005000114E0,2.692998817E1
9.663638060E-1,2.528505135E1,-3.505050182E0,-4.867050171E0,2.598667689E1
9.688622900E-1,2.410005188E1,-3.820950270E0,-5.587950230E0,2.503272557E1
9.713609800E-1,2.301300049E1,-4.153950214E0,-6.258000374E0,2.420776864E1
9.738594440E-1,2.200305176E1,-4.390950203E0,-6.724950314E0,2.342305887E1
9.763579050E-1,2.099505043E1,-4.611000061E0,-6.970950127E0,2.259751335E1
9.788564420E-1,2.002695084E1,-4.843050003E0,-7.117050171E0,2.179876823E1
9.813549190E-1,1.907505035E1,-5.041950226E0,-7.126950264E0,2.097789856E1
9.838536090E-1,1.803300095E1,-5.260050297E0,-7.285050392E0,2.014768501E1
9.863520730E-1,1.732005119E1,-5.467950344E0,-7.204050541E0,1.953921694E1
9.888505340E-1,1.675500107E1,-5.703000069E0,-6.852000237E0,1.897904576E1
9.913490710E-1,1.618500137E1,-5.916000366E0,-6.198000431E0,1.831307017E1
9.938477530E-1,1.562205029E1,-6.100050449E0,-5.536950111E0,1.766116891E1
9.963462170E-1,1.510500050E1,-6.274950504E0,-5.041950226E0,1.711599561E1
9.988446780E-1,1.443900108E1,-6.450000286E0,-4.546050072E0,1.645459897E1
1.001343215E0,1.347900105E1,-6.553050518E0,-4.321050167E0,1.559799394E1
1.003841678E0,1.256700039E1,-6.517050266E0,-4.407000065E0,1.482643223E1
1.006340369E0,1.207395077E1,-6.529050350E0,-4.765950203E0,1.453007457E1
1.008838832E0,1.237605095E1,-6.864000320E0,-5.161050320E0,1.506378365E1
1.011337369E0,1.316295052E1,-7.680000305E0,-5.302950382E0,1.613589024E1
1.013835832E0,1.279695034E1,-8.407950401E0,-5.455950260E0,1.625493652E1
1.016334523E0,1.104195023E1,-8.812950134E0,-7.026000500E0,1.577838515E1
1.018832986E0,9.358950615E0,-8.716950417E0,-8.779050827E0,1.551279841E1
1.021332381E0,8.092050552E0,-8.545050621E0,-1.031595039E1,1.564985638E1
1.023829909E0,7.420050144E0,-8.647950172E0,-1.103700066E1,1.586378170E1
1.026328448E0,6.790050507E0,-9.162000656E0,-1.092405033E1,1.579183072E1
1.028826905E0,5.977950096E0,-9.874050140E0,-1.039695072E1,1.553477833E1
1.031325367E0,5.149950027E0,-1.045305061E1,-9.616950035E0,1.510873854E1
1.033824057E0,3.555000067E0,-1.098000050E1,-8.319000244E0,1.422688305E1
1.036322521E0,2.442000151E0,-1.141995049E1,-6.523950100E0,1.337686655E1
1.038821057E0,1.590000033E0,-1.200000095E1,-5.077950478E0,1.312683145E1
1.041319535E0,1.417050123E0,-1.240395069E1,-3.651000261E0,1.300752962E1
1.043818225E0,1.465050101E0,-1.259805107E1,-2.121000051E0,1.285907865E1
1.046316688E0,1.567950130E0,-1.252605057E1,-7.630500197E-1,1.264684371E1
1.048815225E0,3.060000241E-1,-1.257705021E1,6.790500283E-1,1.259908477E1
1.051313674E0,-2.719050169E0,-1.326105022E1,1.675050020E0,1.364017886E1
1.053812365E0,-5.506050110E0,-1.431705093E1,1.608000040E0,1.542336537E1
1.056310828E0,-5.601000309E0,-1.494705105E1,1.422000051E0,1.602521836E1
1.058809290E0,-3.519000053E0,-1.507395077E1,1.801950097E0,1.558378572E1
1.061307826E0,-1.878000140E0,-1.477395058E1,1.756950140E0,1.499611196E1
1.063806285E0,-9.000000544E-3,-1.410195065E1,2.061000109E0,1.425176531E1
1.066304975E0,3.136050224E0,-1.297200108E1,2.475000143E0,1.357325490E1
1.068803439E0,5.205000401E0,-1.137705040E1,2.731050014E0,1.280577757E1
1.071301975E0,7.381050587E0,-9.562050819E0,2.881950140E0,1.241846851E1
1.073800439E0,1.067805004E1,-7.567950249E0,3.019050121E0,1.343165244E1
1.076299133E0,1.557900047E1,-5.167050362E0,3.373050213E0,1.675652508E1
1.078797597E0,1.896900177E1,-2.743950129E0,4.762050152E0,1.974916231E1
1.081296058E0,1.990800095E1,-7.249500155E-1,5.772000313E0,2.074054102E1
1.083794595E0,1.967805099E1,6.600000262E-1,6.126000404E0,2.062011571E1
1.086293058E0,1.988400078E1,1.882950068E0,5.920050144E0,2.083185017E1
1.088791535E0,2.043900108E1,2.539050102E0,5.461050034E0,2.130780627E1
1.091290225E0,2.033205032E1,2.391000032E0,3.507000208E0,2.077036836E1
1.093788689E0,1.994400024E1,1.873950124E0,1.720950127E0,2.010563364E1
1.096287225E0,2.005905151E1,1.387950063E0,1.240050077E0,2.014521475E1
1.098785689E0,2.023095131E1,7.800000310E-1,1.339950085E0,2.029027494E1
1.101284135E0,1.929000092E1,4.519500136E-1,1.648950100E0,1.936562497E1
1.103782825E0,1.758495140E1,8.505000174E-2,2.025000095E0,1.770136646E1
1.106281289E0,1.546905041E1,-2.149500102E-1,2.515950203E0,1.567379116E1
1.108779825E0,1.448205090E1,-2.970000207E-1,3.543000221E0,1.491210440E1
1.111278289E0,1.429305077E1,-6.460500360E-1,4.531949997E0,1.500823946E1
1.113776989E0,1.363995075E1,-1.482000113E0,4.872000217E0,1.455956617E1
1.116275453E0,1.357695103E1,-2.605050087E0,4.831050396E0,1.464441645E1
1.118773989E0,1.368495083E1,-4.099050045E0,5.188050270E0,1.519855112E1
1.121272453E0,1.255500031E1,-5.824950218E0,5.439000130E0,1.487080361E1
1.123770914E0,1.046295071E1,-7.192050457E0,5.887050152E0,1.399486644E1
1.126269619E0,8.348999977E0,-7.963050365E0,6.487950325E0,1.323667145E1
1.128768082E0,6.262950420E0,-8.350950241E0,7.057950497E0,1.260069772E1
1.131266619E0,4.005000114E0,-8.623950005E0,7.350000381E0,1.201811321E1
1.133765082E0,2.683950186E0,-8.344050407E0,7.323000431E0,1.142160677E1
1.136263773E0,1.702050090E0,-7.972950459E0,7.015050411E0,1.075527061E1
1.138762246E0,-1.087950110E0,-8.538000107E0,5.536950111E0,1.023420235E1
1.141260708E0,-3.529950142E0,-8.952000618E0,4.695000172E0,1.070709530E1
1.143759169E0,-5.601000309E0,-9.133950233E0,3.969000101E0,1.142598850E1
1.146257706E0,-6.547050476E0,-8.884950638E0,3.904050112E0,1.170674272E1
1.148756155E0,-5.881950378E0,-7.992000580E0,3.766050100E0,1.061379041E1
1.151254846E0,-3.922950268E0,-6.475950241E0,3.808950186E0,8.475586814E0
1.153753309E0,-1.984050035E0,-5.326950073E0,4.519950390E0,7.262424055E0
1.156251846E0,-4.660500288E-1,-4.642050266E0,4.410000324E0,6.419808110E0
1.158750309E0,8.329500556E-1,-3.912000179E0,4.587000370E0,6.085895463E0
1.161248979E0,2.197950125E0,-3.322950125E0,5.547000408E0,6.829509193E0
1.163747443E0,3.475950241E0,-2.748000145E0,5.856000423E0,7.343464839E0
1.166245905E0,4.474950314E0,-2.242950201E0,5.664000034E0,7.558895574E0
1.168744441E0,4.843050003E0,-1.707000136E0,5.548950195E0,7.560412096E0
1.171242905E0,4.618050098E0,-1.465050101E0,5.431950092E0,7.278656491E0
1.173741586E0,4.225950241E0,-1.305000067E0,5.512950420E0,7.067835804E0
1.176240049E0,3.768000126E0,-1.321050048E0,5.341050148E0,6.668569176E0
1.178738586E0,3.496050119E0,-1.426950097E0,5.415000439E0,6.601574264E0
1.181237049E0,3.133950233E0,-1.579950094E0,5.644950390E0,6.647055835E0
1.183735740E0,3.400050163E0,-1.819050074E0,5.245050430E0,6.509979900E0
1.186234212E0,3.682050228E0,-2.061000109E0,4.465050220E0,6.143442748E0
1.188732749E0,3.768000126E0,-2.200050116E0,3.502050161E0,5.594854850E0
1.191231212E0,3.922050238E0,-1.977000117E0,2.893950224E0,5.259843670E0
1.193729674E0,4.096050262E0,-1.774050117E0,2.539950132E0,5.135779225E0
1.196228364E0,3.784950256E0,-1.759950042E0,1.711050034E0,4.511204364E0
1.198726828E0,3.187050104E0,-1.965000153E0,5.430000424E-1,3.783300545E0
1.201225289E0,2.289000034E0,-2.371950150E0,-5.205000192E-2,3.296722292E0
1.203723826E0,1.972950101E0,-2.581050158E0,-7.680000067E-1,3.338289386E0
1.206222289E0,2.587950230E0,-2.533050060E0,-1.093950033E0,3.782929510E0
1.208720751E0,2.370000124E0,-2.812950134E0,-6.270000339E-1,3.731315865E0
1.211219446E0,2.976000071E0,-2.619000196E0,-1.209000111E0,4.144565082E0
1.213717910E0,3.108000040E0,-2.230950117E0,-1.635000110E0,4.160532181E0
1.216216446E0,2.547000170E0,-2.358000040E0,-1.114950061E0,3.645612115E0
1.218714910E0,2.527950048E0,-2.322000027E0,-1.240050077E0,3.649649266E0
1.221213600E0,2.416050196E0,-1.975050092E0,-1.777950048E0,3.591549497E0
1.223712078E0,2.182950020E0,-1.879050136E0,-1.711050034E0,3.350192893E0
1.226210614E0,1.804950118E0,-2.212050200E0,-1.747050047E0,3.347117399E0
1.228709078E0,1.635000110E0,-2.013000011E0,-2.418000221E0,3.545718471E0
1.231207539E0,1.342950106E0,-1.944000125E0,-2.323950052E0,3.314120595E0
1.233706229E0,1.209000111E0,-2.107050180E0,-1.912050128E0,3.091484663E0
1.236204703E0,1.180050015E0,-2.089950085E0,-1.978950143E0,3.110731918E0
1.238703239E0,1.008000016E0,-2.269950151E0,-1.098000050E0,2.715573941E0
1.241201703E0,1.177950025E0,-2.458950043E0,-2.269500047E-1,2.735965621E0
1.243700393E0,1.447950125E0,-2.205000162E0,-1.240500063E-1,2.640828219E0
1.246198857E0,1.800000072E0,-2.025000095E0,4.740000367E-1,2.750509349E0
1.248697332E0,1.957950115E0,-2.097000122E0,9.499500394E-1,3.022148779E0
1.251195869E0,2.410950184E0,-1.681050062E0,9.960000515E-1,3.103325024E0
1.253694332E0,3.250950098E0,-1.300050020E0,1.555950046E0,3.831421034E0
1.256193023E0,4.135050297E0,-1.288050056E0,2.275950193E0,4.892613124E0
1.258691486E0,5.131050110E0,-9.649500251E-1,2.166000128E0,5.652464979E0
1.261190019E0,5.952000141E0,-5.550000072E-1,2.178000212E0,6.362233539E0
1.263688482E0,6.871050358E0,-3.810000122E-1,2.437050104E0,7.300390896E0
1.266187173E0,7.681050301E0,-8.805000782E-2,2.503950119E0,8.079359673E0
1.268685636E0,8.068050385E0,5.895000324E-2,2.611950159E0,8.480518601E0
1.271184093E0,8.455950737E0,3.000000119E-2,2.506050110E0,8.819540239E0
1.273682629E0,9.036000252E0,9.300000221E-2,2.446050167E0,9.361683127E0
1.276181093E0,9.736950874E0,1.330500096E-1,3.262950182E0,1.026999311E1
1.278679554E0,9.715950012E0,6.900000572E-2,3.363000154E0,1.028174186E1
1.281178244E0,9.562050819E0,-2.389500141E-1,3.154950142E0,1.007192253E1
1.283676708E0,9.928950310E0,-3.160500228E-1,2.631000042E0,1.027648301E1
1.286175244E0,1.030905056E1,-3.880500197E-1,2.272050142E0,1.056358453E1
1.288673708E0,1.048395061E1,-5.839500427E-1,2.311950207E0,1.075171298E1
1.291172398E0,9.357000351E0,-5.700000525E-1,1.515000105E0,9.495977093E0
1.293670847E0,7.930050373E0,-9.049500227E-1,1.101000071E0,8.057098399E0
1.296169308E0,7.611000538E0,-2.008949995E0,1.075049996E0,7.944743027E0
1.298667845E0,7.828950405E0,-2.392050028E0,1.192050099E0,8.272566181E0
1.301166308E0,8.377050400E0,-2.839050055E0,1.777950048E0,9.021988971E0
1.303664999E0,8.377050400E0,-3.237000227E0,1.933950067E0,9.186582974E0
1.306163448E0,7.350000381E0,-3.708000183E0,1.956000090E0,8.461542845E0
1.308661985E0,6.559950352E0,-3.523950100E0,1.186950088E0,7.540558562E0
1.311160448E0,6.523950100E0,-3.937950134E0,3.730500042E-1,7.629452305E0
1.313659139E0,6.019050121E0,-3.730050087E0,-6.870000362E-1,7.114366245E0
1.316157602E0,5.245950222E0,-2.446950197E0,-1.455000043E0,5.968633355E0
1.318656054E0,5.008950233E0,3.895050287E0,4.480950356E0,7.767877141E0
1.321154590E0,9.981000900E0,2.929950237E0,-2.620950222E0,1.072727213E1
1.323653054E0,1.074000072E1,-3.660000265E-1,-4.708950043E0,1.173268009E1
1.326151744E0,1.280400085E1,-1.123050094E0,-3.235950232E0,1.325424661E1
1.328650213E0,1.086495018E1,-1.972950101E0,-5.530500412E-1,1.105647045E1
1.331148674E0,1.057500076E1,-2.028000116E0,-2.595000155E-2,1.076773416E1
1.333647211E0,9.021000862E0,-2.301000118E0,-4.305000231E-2,9.309936165E0
1.336145674E0,1.008705044E1,-2.772000074E0,-7.699500322E-1,1.048929902E1
1.338644165E0,1.051305008E1,-2.617050171E0,-4.999500215E-1,1.084541948E1
1.341142855E0,8.296050072E0,-3.069000244E0,1.579950094E0,8.985513429E0
1.343641319E0,9.214950562E0,-4.036050320E0,1.573050022E0,1.018231321E1
1.346139855E0,9.024000168E0,-5.197950363E0,1.549050093E0,1.052857175E1
1.348638319E0,8.482950211E0,-6.694050312E0,1.129950047E0,1.086496852E1
1.351137009E0,8.451000214E0,-7.294950485E0,1.872000098E0,1.131989804E1
1.353635472E0,8.926050186E0,-7.281000137E0,5.809500217E-1,1.153363940E1
1.356134009E0,8.902050018E0,-6.784950256E0,5.719500184E-1,1.120754975E1
1.358632472E0,9.285000801E0,-6.571950436E0,1.024049997E0,1.142149074E1
1.361130934E0,1.000500011E1,-6.807000160E0,3.040500283E-1,1.210486369E1
1.363629609E0,1.075200081E1,-7.837950230E0,-4.620000124E-1,1.331361819E1
1.366128073E0,1.190400028E1,-8.692950249E0,-8.880000710E-1,1.476689374E1
1.368626534E0,1.312995052E1,-8.992050171E0,-7.609500289E-1,1.593209377E1
1.371125071E0,1.401795101E1,-9.177000046E0,-2.250000089E-1,1.675621990E1
1.373623534E0,1.456905079E1,-9.268050194E0,1.459500045E-1,1.726775309E1
1.376122230E0,1.489005089E1,-9.250950813E0,1.057950020E0,1.756169026E1
1.378620693E0,1.536105061E1,-9.325050354E0,1.350000024E0,1.802056991E1
1.381119230E0,1.537800026E1,-9.313050270E0,1.903050065E0,1.807864477E1
1.383617693E0,1.573005104E1,-9.150000572E0,1.795050144E0,1.828603897E1
1.386116384E0,1.579905033E1,-9.091050148E0,1.675050020E0,1.830472553E1
1.388614852E0,1.592400074E1,-8.863050461E0,1.233000040E0,1.826602727E1
1.391113389E0,1.611300087E1,-8.539950371E0,5.670000315E-1,1.824502777E1
1.393611852E0,1.648395157E1,-8.221950531E0,4.995000362E-2,1.842073899E1
1.396110542E0,1.702995110E1,-7.873950481E0,-7.270500064E-1,1.877623317E1
1.398609006E0,1.601505089E1,-7.558050156E0,-8.590500355E-1,1.772974743E1
1.401107542E0,1.554795074E1,-6.886050224E0,-9.829500318E-1,1.703298714E1
1.403606006E0,1.493700027E1,-6.783000469E0,-1.113000035E0,1.644268353E1
1.406104468E0,1.446105099E1,-6.883050442E0,-1.410000086E0,1.607751471E1
1.408602929E0,1.399395084E1,-7.056000233E0,-1.747050047E0,1.576927339E1
1.411101623E0,1.339995098E1,-7.150950432E0,-1.816950083E0,1.529693061E1
1.413600164E0,1.242795086E1,-6.832950115E0,-1.471950054E0,1.425867479E1
1.416098625E0,1.090995026E1,-6.631950378E0,-8.899500370E-1,1.279850739E1
1.418597087E0,1.004805088E1,-7.278000355E0,-1.600950122E0,1.250982242E1
1.421095777E0,9.949950218E0,-7.645050526E0,-2.233050108E0,1.274499194E1
1.423594241E0,1.016595078E1,-7.834050179E0,-2.080049992E0,1.300175009E1
1.426092702E0,1.011795044E1,-7.458000183E0,-1.723050117E0,1.268714269E1
1.428591239E0,9.550050735E0,-6.469050407E0,-7.180500627E-1,1.155714836E1
1.431089702E0,9.531000137E0,-6.124050140E0,-4.690500200E-1,1.133860493E1
1.433588393E0,9.823050499E0,-6.109950066E0,-1.231950045E0,1.163363708E1
1.436086838E0,9.388050079E0,-5.329050064E0,-4.969500303E-1,1.080653590E1
1.438585375E0,9.340050697E0,-5.590050220E0,-7.900500298E-1,1.091372473E1
1.441083838E0,9.055050850E0,-4.276050091E0,-6.195000187E-2,1.001410945E1
1.443582300E0,9.040050507E0,-4.381050110E0,-2.479500175E-1,1.004876074E1
1.446080990E0,8.643000603E0,-3.382950068E0,2.580000162E-1,9.285061905E0
1.448579463E0,8.707950592E0,-2.848950148E0,6.889500618E-1,9.188012443E0
1.451077999E0,8.381999969E0,-2.332050085E0,1.030950069E0,8.761235023E0
1.453576463E0,8.278950691E0,-2.041949987E0,1.375950098E0,8.637350460E0
1.456074924E0,7.936950207E0,-1.831050038E0,1.684950113E0,8.317871105E0
1.458573615E0,6.595950127E0,-2.466000080E0,3.474000216E0,7.852158427E0
1.461072082E0,6.670050144E0,-2.265000105E0,3.301050186E0,7.779249754E0
1.463570619E0,6.511950493E0,-2.164050102E0,3.354000092E0,7.637926988E0
1.466069082E0,6.318000317E0,-2.061000109E0,3.475950241E0,7.499805299E0
1.468567772E0,6.037950516E0,-2.004000187E0,3.840000153E0,7.430912754E0
1.471066241E0,5.824950218E0,-1.884000063E0,4.153050423E0,7.397792177E0
1.473564777E0,5.635950089E0,-1.828950047E0,4.264050007E0,7.300076310E0
1.476063241E0,5.502000332E0,-1.804950118E0,4.290000439E0,7.206521792E0
1.478561931E0,5.284050465E0,-1.828950047E0,4.117949963E0,6.944332904E0
1.481060395E0,5.131050110E0,-1.927050114E0,4.122000217E0,6.857994106E0
1.483558960E0,4.956000328E0,-2.044049978E0,3.877950191E0,6.616538162E0
1.486057424E0,4.810050011E0,-2.197950125E0,3.793950081E0,6.508580726E0
1.488555885E0,4.660950184E0,-2.337000132E0,3.643950224E0,6.361163374E0
1.491054576E0,4.531949997E0,-2.418000221E0,3.367950201E0,6.142343559E0
1.493553039E0,4.501049995E0,-2.518950224E0,2.884950161E0,5.909949130E0
1.496051487E0,4.384050369E0,-2.655000210E0,2.334000111E0,5.631738654E0
1.498550023E0,4.330950260E0,-2.776950121E0,1.678050041E0,5.411509408E0
1.501048487E0,4.240050316E0,-3.007050037E0,9.499500394E-1,5.284201140E0
1.503546948E0,4.068000317E0,-3.202950239E0,4.950000346E-1,5.201205807E0
1.506045639E0,4.116000175E0,-3.277950048E0,1.960500032E-1,5.265439162E0
1.508544082E0,4.293000221E0,-3.289050102E0,-5.895000324E-2,5.408435687E0
1.511042619E0,4.630050182E0,-3.294000149E0,-3.040500283E-1,5.690364495E0
1.513541082E0,5.053950310E0,-3.234000206E0,-6.439500451E-1,6.034554062E0
1.516039773E0,5.662050247E0,-3.163050175E0,-8.110500574E-1,6.536168725E0
1.518538236E0,6.093000412E0,-3.136050224E0,-1.081950068E0,6.937584665E0
1.521036773E0,6.421050072E0,-3.097950220E0,-1.015050054E0,7.201215606E0
1.523535236E0,6.712950230E0,-3.175050259E0,-6.460500360E-1,7.453993935E0
1.526033698E0,6.969000340E0,-3.249000072E0,1.290000081E-1,7.690228098E0
1.528532388E0,7.432050228E0,-3.373050213E0,1.141950011E0,8.241170315E0
1.531030851E0,7.728000164E0,-3.502950191E0,1.897950053E0,8.694530521E0
1.533529388E0,8.194950104E0,-3.601050138E0,2.362950087E0,9.257877857E0
1.536027851E0,8.779950142E0,-3.742050171E0,2.848950148E0,9.960270123E0
1.538526542E0,9.364050865E0,-3.949950218E0,3.394950151E0,1.071509411E1
1.541025005E0,9.679950714E0,-4.177950382E0,3.816000223E0,1.121242939E1
1.543523557E0,9.778050423E0,-4.527000427E0,3.856950283E0,1.144465239E1
1.546022020E0,1.002705002E1,-4.941000462E0,3.375000238E0,1.167672232E1
1.548520482E0,1.084605026E1,-5.296050072E0,2.353049994E0,1.229722720E1
1.551019172E0,1.228905106E1,-5.487000465E0,1.069950104E0,1.350084231E1
1.553517636E0,1.295700073E1,-5.653050423E0,-3.150000274E-1,1.414001669E1
1.556016181E0,1.318500042E1,-5.719950199E0,-1.503000021E0,1.445064273E1
1.558514645E0,1.338405037E1,-5.638050079E0,-2.077950001E0,1.467100164E1
1.561013335E0,1.321605110E1,-5.404050350E0,-2.101950169E0,1.443211563E1
1.563511799E0,1.295505047E1,-5.274000168E0,-2.097000122E0,1.414375551E1
1.566010335E0,1.239495087E1,-5.188050270E0,-1.909950137E0,1.357197783E1
1.568508799E0,1.164105034E1,-5.185950279E0,-1.435950041E0,1.282458911E1
1.571007260E0,1.065405083E1,-5.422950268E0,-1.252050042E0,1.202018377E1
1.573505950E0,9.370950699E0,-6.016050339E0,-8.760000467E-1,1.117027102E1
1.576004414E0,8.406000137E0,-6.598050117E0,-2.410500050E-1,1.068892926E1
1.578502946E0,7.660950184E0,-7.132050514E0,2.010000050E-1,1.046884441E1
1.581001409E0,6.888000488E0,-7.639950275E0,2.220000178E-1,1.028895889E1
1.583500099E0,6.187050343E0,-7.993950367E0,2.580000162E-1,1.011184446E1
1.585998563E0,5.467950344E0,-8.301000595E0,8.805000782E-2,9.940465012E0
1.588497099E0,4.824000359E0,-8.538000107E0,6.900000572E-2,9.806792864E0
1.590995563E0,4.321950436E0,-8.712000847E0,-1.170000061E-1,9.725836896E0
1.593494024E0,4.108050346E0,-8.896950722E0,-2.320500165E-1,9.802329162E0
1.595992486E0,3.756000280E0,-9.040050507E0,-1.930500120E-1,9.791185810E0
1.598491176E0,3.373050213E0,-9.253050804E0,-2.920500040E-1,9.853005132E0
1.600989640E0,3.061950207E0,-9.457050323E0,-2.599500120E-1,9.943787704E0
1.603488157E0,2.953950167E0,-9.778050423E0,1.395000052E-2,1.021451351E1
1.605986621E0,3.133950233E0,-1.007505035E1,2.340000123E-1,1.055381636E1
1.608485311E0,3.076950073E0,-1.026600075E1,-4.305000231E-2,1.071728727E1
1.610983775E0,2.959050179E0,-1.089300060E1,-4.639500082E-1,1.129728683E1
1.613482227E0,2.940000057E0,-1.135605049E1,-1.480500102E-1,1.173138534E1
1.615980764E0,3.369000196E0,-1.095795059E1,-3.490500152E-1,1.146946727E1
1.618479227E0,3.460050106E0,-1.102305031E1,-1.132050037E0,1.160866582E1
1.620977918E0,4.024950027E0,-1.079805088E1,-1.549050093E0,1.162745379E1
1.623476381E0,4.321950436E0,-1.086705017E1,-1.486050129E0,1.178899402E1
1.625974909E0,4.687950134E0,-1.100100040E1,-8.899500370E-1,1.199128423E1
1.628473372E0,5.764950275E0,-1.089300060E1,-2.130000144E-1,1.232629234E1
1.630972062E0,8.200050354E0,-1.063005066E1,3.745950222E0,1.393811127E1
1.633470526E0,1.020405006E1,-1.064700031E1,5.145000458E0,1.561897190E1
1.635968988E0,1.095600033E1,-1.105905056E1,4.813950062E0,1.629449777E1
1.638467519E0,1.138200092E1,-1.143705082E1,3.301050186E0,1.646976044E1
1.640965983E0,1.098900032E1,-1.185105038E1,7.150500417E-1,1.617766422E1
1.643464673E0,1.000095081E1,-1.217895031E1,-1.216050029E0,1.580584150E1
1.645963136E0,8.746050835E0,-1.294800091E1,-2.805000067E0,1.587489081E1
1.648461598E0,7.105950356E0,-1.321800041E1,-3.415950060E0,1.539086678E1
1.650960148E0,5.136000156E0,-1.343805027E1,-3.523950100E0,1.481141171E1
1.653458612E0,3.196050167E0,-1.314405060E1,-2.977950096E0,1.385095627E1
1.655957302E0,1.657050133E0,-1.212405014E1,-1.885950089E0,1.238124447E1
1.658455766E0,1.269000053E0,-1.095600033E1,-7.270500064E-1,1.105318533E1
1.660954302E0,1.539000034E0,-1.010595036E1,3.319500089E-1,1.022785141E1
1.663452752E0,2.173950195E0,-9.684000015E0,1.218000054E0,9.999471980E0
1.665951442E0,2.847000122E0,-9.634050369E0,1.828950047E0,1.021104277E1
1.668449906E0,3.478950262E0,-9.670050621E0,2.122950077E0,1.049380250E1
1.670948442E0,4.318950176E0,-9.627000809E0,2.085000038E0,1.075544980E1
1.673446896E0,5.124000072E0,-9.442950249E0,1.752000093E0,1.088550368E1
1.675945357E0,5.418000221E0,-9.256050110E0,1.399950027E0,1.081614766E1
1.678444048E0,5.392050266E0,-9.093000412E0,1.324050069E0,1.065410584E1
1.680942511E0,5.461050034E0,-8.961000443E0,1.534050107E0,1.060546586E1
1.683441048E0,5.466000080E0,-9.261000633E0,1.330950022E0,1.083580719E1
1.685939526E0,5.233950138E0,-8.800950050E0,1.383000016E0,1.033264946E1
1.688438216E0,5.149950027E0,-8.614050865E0,1.419000030E0,1.013594686E1
1.690936680E0,5.401050091E0,-8.748000145E0,1.753950119E0,1.042953449E1
1.693435142E0,5.655000210E0,-8.605050087E0,2.089950085E0,1.050684566E1
1.695933678E0,5.851050377E0,-8.350950241E0,2.221050024E0,1.043581447E1
1.698432160E0,6.096000195E0,-8.185950279E0,1.972050071E0,1.039519032E1
1.700930850E0,6.072000504E0,-7.936950207E0,1.695000052E0,1.013594563E1
1.703429313E0,5.956950188E0,-7.575000286E0,1.294950008E0,9.723311185E0
1.705927775E0,5.917950153E0,-5.734050274E0,6.030000448E-1,8.262268188E0
1.708426311E0,5.716950417E0,-3.579000235E0,-9.280500412E-1,6.808380250E0
1.710925014E0,4.201950073E0,-2.823000193E0,-2.839050055E0,5.803957246E0
1.713423477E0,3.460050106E0,-2.776950121E0,-3.876000166E0,5.891245708E0
1.715921939E0,3.378000259E0,-3.060000181E0,-3.619050264E0,5.819966639E0
1.718420400E0,3.424050093E0,-3.466950178E0,-2.587950230E0,5.517367938E0
1.720918937E0,2.965950251E0,-4.044000149E0,-1.138950109E0,5.142762433E0
1.723417400E0,1.957950115E0,-4.711950302E0,3.229500055E-1,5.112762561E0
1.725916091E0,1.609050035E0,-5.416050434E0,1.438050032E0,5.830148559E0
1.728414554E0,1.666050076E0,-5.818050385E0,1.879050136E0,6.336896918E0
1.730913091E0,1.780950069E0,-5.920950413E0,2.082000017E0,6.524121474E0
1.733411549E0,1.840950131E0,-6.084000111E0,1.929000139E0,6.642679901E0
1.735910240E0,2.104050159E0,-5.965950489E0,1.864950061E0,6.595273386E0
1.738408703E0,2.538000107E0,-5.925000191E0,1.825950146E0,6.699340694E0
1.740907165E0,3.069000244E0,-6.184050083E0,1.723050117E0,7.115485903E0
1.743405706E0,3.421050072E0,-6.232050419E0,1.771050096E0,7.326571808E0
1.745904170E0,3.760950089E0,-6.640950203E0,1.630050063E0,7.804103304E0
1.748402860E0,4.075050354E0,-6.871050358E0,1.503000021E0,8.128737754E0
1.750901324E0,4.285950184E0,-6.342000484E0,1.371000051E0,7.776244612E0
1.753399860E0,4.201950073E0,-6.418950081E0,1.267950058E0,7.776053106E0
1.755898334E0,4.305000305E0,-7.189950466E0,8.730000257E-1,8.425588667E0
1.758397024E0,4.333050251E0,-7.342950344E0,7.800000310E-1,8.561696344E0
1.760895487E0,4.328999996E0,-7.339950562E0,5.329500437E-1,8.538099962E0
1.763393949E0,4.219050407E0,-7.090950489E0,4.470000267E-1,8.263278659E0
1.765892485E0,4.498950005E0,-6.735000134E0,3.780000210E-1,8.108246540E0
1.768390949E0,4.546950340E0,-6.823050499E0,1.579500139E-1,8.200836769E0
1.770889639E0,4.719000340E0,-7.411950588E0,-1.095000096E-2,8.786699928E0
1.773388103E0,4.590000153E0,-7.579950333E0,-1.459500045E-1,8.862564519E0
1.775886639E0,4.567950249E0,-7.795050144E0,-4.470000267E-1,9.045926445E0
1.778385103E0,4.252050400E0,-7.525050163E0,-4.500000179E-2,8.643398496E0
1.780883803E0,4.099050045E0,-7.435950279E0,-1.360500008E-1,8.492000791E0
1.783382267E0,3.772950172E0,-6.936000347E0,1.480500102E-1,7.897162315E0
1.785880728E0,3.358950138E0,-6.406950474E0,5.929500461E-1,7.258315931E0
1.788379265E0,3.286950111E0,-6.174000263E0,6.510000229E-1,7.024679446E0
1.790877728E0,3.438000202E0,-6.037950516E0,7.060500383E-1,6.983924289E0
1.793376419E0,3.507000208E0,-5.973000050E0,7.440000176E-1,6.966298592E0
1.795874882E0,3.531000137E0,-5.812950134E0,7.510500550E-1,6.842691533E0
1.798373344E0,3.642000198E0,-5.937000275E0,8.160000443E-1,7.012702316E0
1.800871880E0,3.735000134E0,-6.286950111E0,8.689500690E-1,7.364172861E0
1.803370344E0,3.892950296E0,-6.694050312E0,9.049500227E-1,7.796429063E0
1.805869029E0,3.844950199E0,-7.053000450E0,8.809500337E-1,8.081121849E0
1.808367493E0,4.003050327E0,-7.750050545E0,6.700500250E-1,8.748523441E0
1.810866029E0,3.639000177E0,-8.152050018E0,1.009950042E0,8.984333079E0
1.813364493E0,3.886050224E0,-8.806050301E0,6.679500341E-1,9.648526597E0
1.815863197E0,3.970050097E0,-9.052050591E0,8.880000710E-1,9.924185699E0
1.818361660E0,3.916950226E0,-9.318000793E0,1.266000032E0,1.018677544E1
1.820860197E0,4.204050064E0,-9.415950775E0,1.471950054E0,1.041637187E1
1.823358660E0,4.326000214E0,-9.445050240E0,1.623000026E0,1.051462700E1
1.825857351E0,4.446000099E0,-9.589050293E0,1.776000142E0,1.071778797E1
1.828355805E0,4.503000259E0,-9.550050735E0,1.624950051E0,1.068274043E1
1.830854267E0,4.546950340E0,-9.771000862E0,1.431000113E0,1.087175131E1
1.833352803E0,4.615950108E0,-1.019205093E1,9.070500135E-1,1.122531235E1
1.835851267E0,4.912950039E0,-9.916950226E0,7.200000286E-1,1.109059872E1
1.838349957E0,4.870050430E0,-1.015605068E1,2.410500050E-1,1.126591593E1
1.840848397E0,4.819050312E0,-1.105605030E1,7.095000148E-2,1.206086763E1
1.843346858E0,4.606050014E0,-1.154700089E1,1.170000061E-1,1.243232139E1
1.845845395E0,4.393050194E0,-1.103505039E1,3.490500152E-1,1.188246873E1
1.848343858E0,4.441050053E0,-1.020600033E1,5.689499974E-1,1.114491240E1
1.850842549E0,4.288050175E0,-1.021800041E1,-1.720500141E-1,1.108262189E1
1.853341026E0,4.515000343E0,-1.080495071E1,-3.949500322E-1,1.171700361E1
1.855839563E0,4.750050068E0,-1.128105068E1,-2.440500110E-1,1.224273828E1
1.858338026E0,4.393050194E0,-1.119495010E1,-1.140000075E-1,1.202658696E1
1.860836716E0,3.859050274E0,-1.100805092E1,2.200500071E-1,1.166695659E1
1.863335180E0,4.108050346E0,-1.144695091E1,3.040500283E-1,1.216557476E1
1.865833636E0,4.527000427E0,-1.180995083E1,1.185000062E0,1.270326323E1
1.868332173E0,4.216050148E0,-1.189395046E1,1.525050044E0,1.271089745E1
1.870830637E0,4.161000252E0,-1.191795063E1,1.743000031E0,1.274321464E1
1.873329327E0,4.077000141E0,-1.168395042E1,1.744950056E0,1.249725883E1
1.875827790E0,4.008000374E0,-1.159695053E1,1.516950130E0,1.236343263E1
1.878326252E0,4.111050129E0,-1.166895008E1,1.302000046E0,1.244027063E1
1.880824788E0,4.156050205E0,-1.188000011E1,9.790500402E-1,1.262401264E1
1.883323252E0,3.790050268E0,-1.189905071E1,4.380000234E-1,1.249574859E1
1.885821713E0,4.111050129E0,-1.211505032E1,6.150000095E-1,1.280833332E1
1.888320414E0,4.041000366E0,-1.226505089E1,5.410500169E-1,1.292493297E1
1.890818877E0,3.618000269E0,-1.225800037E1,1.459500045E-1,1.278161964E1
1.893317414E0,3.390000105E0,-1.230405045E1,-8.595000207E-2,1.276280320E1
1.895815877E0,3.280050039E0,-1.223700047E1,-1.960500032E-1,1.267049108E1
1.898314568E0,3.426000118E0,-1.214295101E1,-9.300000221E-2,1.261734461E1
1.900813031E0,3.567000151E0,-1.198305035E1,-1.069500074E-1,1.250313657E1
1.903311568E0,3.615000248E0,-1.147800064E1,-2.650500238E-1,1.203673448E1
1.905810031E0,3.193950176E0,-1.118805027E1,-6.550500393E-1,1.165344915E1
1.908308722E0,3.304050207E0,-1.114995098E1,-6.390000582E-1,1.164673670E1
1.910807170E0,3.409050226E0,-1.116405010E1,-5.310000181E-1,1.168501601E1
1.913305632E0,3.903000116E0,-1.120905018E1,-3.679500222E-1,1.187483065E1
1.915804168E0,3.852000237E0,-1.112100029E1,-5.359500051E-1,1.178141739E1
1.918302632E0,3.937950134E0,-1.114500046E1,-5.310000181E-1,1.183217848E1
1.920801322E0,3.742050171E0,-1.125495052E1,-4.570500255E-1,1.186953013E1
1.923299775E0,3.439950228E0,-1.136295033E1,-4.900500178E-1,1.188234180E1
1.925798312E0,2.914050102E0,-1.142295074E1,-5.719500184E-1,1.180265303E1
1.928296775E0,2.887050152E0,-1.155405045E1,-3.850500286E-1,1.191551106E1
1.930795466E0,3.057000160E0,-1.167405033E1,-9.000000358E-2,1.206800734E1
1.933293944E0,3.132000208E0,-1.174095058E1,-2.595000155E-2,1.215154391E1
1.935792406E0,3.555000067E0,-1.186800098E1,1.170000061E-1,1.238955858E1
1.938290942E0,3.721050262E0,-1.189695072E1,2.220000178E-1,1.246727458E1
1.940789406E0,3.759000063E0,-1.197300053E1,2.650500238E-1,1.255201476E1
1.943288096E0,3.697050095E0,-1.195905018E1,2.629500031E-1,1.252023176E1
1.945786544E0,3.724950075E0,-1.196595097E1,2.460000068E-1,1.253474178E1
1.948285005E0,3.676950216E0,-1.188000011E1,2.800500095E-1,1.243916370E1
1.950783542E0,3.808950186E0,-1.166205025E1,3.660000265E-1,1.227377177E1
1.953282005E0,3.855000257E0,-1.134600067E1,3.970500231E-1,1.198959578E1
1.955780696E0,3.760950089E0,-1.099605083E1,3.709500134E-1,1.162735926E1
1.958279164E0,3.718050241E0,-1.055295086E1,2.490000129E-1,1.119154460E1
1.960777701E0,4.192049980E0,-9.805950165E0,2.800500095E-1,1.066810057E1
1.963276164E0,3.318000078E0,-1.014900017E1,3.795000166E-2,1.067767620E1
1.965774855E0,2.811000109E0,-1.015605068E1,-8.295000345E-2,1.053821464E1
1.968273318E0,2.710050106E0,-9.931050301E0,-9.795000404E-2,1.029464549E1
1.970771846E0,2.776950121E0,-9.739050865E0,-4.500000179E-2,1.012731893E1
1.973270309E0,2.842050076E0,-9.601050377E0,1.395000052E-2,1.001287229E1
1.975768999E0,3.007050037E0,-9.471000671E0,1.309500039E-1,9.937773973E0
1.978267463E0,3.202950239E0,-9.330000877E0,1.669500023E-1,9.865884598E0
1.980765924E0,3.366000175E0,-9.160050392E0,1.189500093E-1,9.759642897E0
1.983264441E0,3.358950138E0,-8.985000610E0,1.480500102E-1,9.593471781E0
1.985762904E0,3.450000048E0,-8.727000237E0,1.890000105E-1,9.386093674E0
1.988261595E0,3.547950268E0,-8.671950340E0,1.600500047E-1,9.371034618E0
1.990760058E0,3.484050274E0,-8.587950706E0,1.240500063E-1,9.268597092E0
1.993258595E0,3.460050106E0,-8.487000465E0,3.300000131E-1,9.171151708E0
1.995757058E0,2.890050173E0,-8.350950241E0,-2.340000123E-1,8.839995245E0
1.998255520E0,2.643000126E0,-8.193000793E0,-1.909500062E-1,8.610875308E0
2.000754210E0,2.779950142E0,-8.071050644E0,-1.620000005E-1,8.537928630E0
2.003252674E0,2.824950218E0,-7.896000385E0,-1.980000138E-1,8.388466476E0
2.005751210E0,3.057000160E0,-7.828950405E0,1.605000161E-2,8.404639911E0
2.008249674E0,2.701050043E0,-7.573050499E0,-2.869500220E-1,8.045440045E0
2.010748364E0,2.763000250E0,-7.503000259E0,-1.170000061E-1,7.996428720E0
2.013246828E0,2.835000038E0,-7.531950474E0,-1.095000096E-2,8.047833439E0
2.015745364E0,2.968950033E0,-7.551000595E0,4.140000343E-1,8.124264294E0
2.018243828E0,2.605050087E0,-7.450950146E0,-1.069500074E-1,7.893945929E0
2.020742289E0,2.314950228E0,-7.254000187E0,1.200000010E-2,7.614437423E0
2.023240979E0,2.473050117E0,-7.198950291E0,4.140000343E-1,7.623139655E0
2.025739443E0,2.713050127E0,-7.153950214E0,6.820500493E-1,7.681460599E0
2.028237979E0,3.055050135E0,-7.090950489E0,1.101000071E0,7.799173759E0
2.030736453E0,2.854050159E0,-6.919050217E0,6.679500341E-1,7.514320692E0
2.033235143E0,2.871000051E0,-6.840000153E0,6.910500526E-1,7.450221041E0
2.035733607E0,3.040950060E0,-6.874050140E0,6.409500241E-1,7.543922026E0
2.038232143E0,2.665050030E0,-6.795000553E0,5.070000291E-1,7.316527401E0
2.040730607E0,2.361000061E0,-6.943050385E0,6.720000505E-1,7.364227997E0
2.043229063E0,2.136000156E0,-6.976950169E0,8.569500446E-1,7.346747151E0
2.045727754E0,1.504050016E0,-7.132050514E0,9.960000515E-1,7.356651894E0
2.048226217E0,1.285950065E0,-7.228050232E0,1.185000062E0,7.436571984E0
2.050724754E0,1.072950006E0,-7.242000580E0,1.213050008E0,7.420868173E0
2.053223217E0,9.310500622E-1,-7.384050369E0,1.246950030E0,7.546253272E0
2.055721913E0,9.889500737E-1,-7.474950314E0,8.970000148E-1,7.593254471E0
2.058220376E0,1.492050052E0,-7.591950417E0,-1.290000081E-1,7.738253387E0
2.060718913E0,1.791000128E0,-7.720950603E0,-8.569500446E-1,7.972146703E0
2.063217376E0,1.846050143E0,-7.795050144E0,-1.297050118E0,8.114989026E0
2.065715838E0,1.410000086E0,-7.759050369E0,-1.410000086E0,8.011183628E0
2.068214533E0,7.900500298E-1,-7.642050266E0,-1.447950125E0,7.818034976E0
2.070712997E0,4.240500331E-1,-7.467000484E0,-1.170000076E0,7.569994375E0
2.073211533E0,4.500000179E-2,-7.300050259E0,-7.969500422E-1,7.343560999E0
2.075709997E0,-3.769500256E-1,-7.137000561E0,-3.199500144E-1,7.154106257E0
2.078208453E0,-5.400000215E-1,-6.925950527E0,-1.950000064E-3,6.946970169E0
2.080707143E0,-7.009500265E-1,-6.490950108E0,5.959500074E-1,6.555831042E0
2.083205607E0,-7.630500197E-1,-6.001950264E0,9.169500470E-1,6.119350431E0
2.085704143E0,-6.720000505E-1,-5.494950294E0,8.730000257E-1,5.604301192E0
2.088202607E0,-6.889500618E-1,-5.005950451E0,8.260500431E-1,5.120210033E0
2.090701273E0,-8.869500160E-1,-4.429050446E0,8.850000501E-1,4.602867940E0
2.093199737E0,-1.198950052E0,-3.859050274E0,9.499500394E-1,4.151163129E0
2.095698273E0,-1.584000111E0,-3.565050125E0,8.059500456E-1,3.983490206E0
2.098196737E0,-1.639050126E0,-3.019050121E0,5.449500084E-1,3.478235107E0
2.100695427E0,-1.819050074E0,-2.320050001E0,1.237050056E0,3.197165623E0
2.103193895E0,-1.813950062E0,-2.365050077E0,1.632000089E0,3.398131985E0
2.105692356E0,-8.590500355E-1,-2.077950001E0,1.564950109E0,2.739509447E0
2.108190893E0,-7.750500441E-1,-2.040000200E0,2.047049999E0,2.992109137E0
2.110689356E0,-7.240500450E-1,-1.738050103E0,2.310000181E0,2.980128767E0
2.113188047E0,-9.160500169E-1,-1.783950090E0,1.993950129E0,2.827978549E0
2.115686510E0,-9.970500469E-1,-2.566050053E0,2.592000008E0,3.781161952E0
2.118184972E0,-4.590000212E-1,-3.459000111E0,2.275950193E0,4.165970723E0
2.120683508E0,8.329500556E-1,-4.768950462E0,2.350950003E0,5.381789686E0
2.123182200E0,2.815950155E0,-5.671950340E0,1.905000091E0,6.612837612E0
2.125680636E0,3.700950146E0,-6.768000126E0,8.950500488E-1,7.765563230E0
2.128179098E0,4.396049976E0,-1.029495049E1,5.860500336E-1,1.120958142E1
2.130677634E0,6.847050190E0,-1.651695061E1,-1.150950074E0,1.791693165E1
2.133176098E0,9.028950691E0,-2.301795197E1,-2.845950127E0,2.488870216E1
2.135674559E0,1.057005024E1,-2.755005074E1,-5.923050404E0,3.009674042E1
2.138173248E0,1.167195034E1,-3.057600212E1,-6.205050468E0,3.331109397E1
2.140671789E0,1.222200012E1,-3.152205086E1,-5.998950481E0,3.433663327E1
2.143170250E0,1.179900074E1,-3.013800049E1,-4.294950008E0,3.264907483E1
2.145668712E0,1.124805069E1,-2.763900185E1,-1.905000091E0,2.990087110E1
2.148167165E0,1.080495071E1,-2.450205040E1,-2.595000155E-2,2.677868755E1
2.150665855E0,9.940950394E0,-2.077695084E1,8.470500112E-1,2.304824667E1
2.153164318E0,9.706050873E0,-1.742700005E1,1.359000087E0,1.999386494E1
2.155662855E0,9.330000877E0,-1.434795094E1,1.234950066E0,1.715918745E1
2.158161318E0,8.881950378E0,-1.248105049E1,1.423950076E0,1.538483987E1
2.160660009E0,6.912000179E0,-1.121895027E1,9.910500646E-1,1.321449098E1
2.163158549E0,4.342950344E0,-1.053900051E1,3.319500089E-1,1.140359331E1
2.165657011E0,2.956950188E0,-9.804000854E0,-1.318950057E0,1.032480588E1
2.168155472E0,1.944000125E0,-9.115050316E0,-8.850000501E-1,9.361971151E0
2.170653934E0,7.800000310E-1,-8.226000786E0,-4.540500343E-1,8.275364065E0
2.173152657E0,3.850500286E-1,-7.455000401E0,-4.999500215E-1,7.481660546E0
2.175651121E0,-2.719500065E-1,-6.928950310E0,9.400500655E-1,6.997714150E0
2.178149657E0,-2.827050209E0,-6.229950428E0,2.233050108E0,7.196596974E0
2.180648121E0,-4.045050144E0,-6.181950092E0,2.545050144E0,7.813847826E0
2.183146816E0,-6.909000397E0,-6.244050503E0,2.949000120E0,9.768267752E0
2.185645280E0,-7.387950420E0,-7.543950558E0,2.515950203E0,1.085463066E1
2.188143816E0,-4.014000416E0,-8.700000763E0,1.261050105E0,9.663977441E0
2.190642280E0,8.260500431E-1,-9.706050873E0,4.980000257E-1,9.753860069E0
2.193140970E0,1.255050063E0,-9.888000488E0,7.249500155E-1,9.993660833E0
2.195639448E0,-1.882950068E0,-9.507000923E0,1.414950013E0,9.794419383E0
2.198137910E0,-4.360949993E0,-9.058950424E0,1.465050101E0,1.016015942E1
2.200636446E0,-6.484950542E0,-8.583000183E0,1.780950069E0,1.090386440E1
2.203134910E0,-6.034950256E0,-8.386950493E0,1.153950095E0,1.039678623E1
2.205633600E0,-3.588000059E0,-8.977950096E0,-8.760000467E-1,9.707971386E0
2.208132078E0,-1.912050128E0,-1.032405090E1,-2.793000221E0,1.086475094E1
2.210630614E0,-1.800000109E-2,-1.216695023E1,-3.538050175E0,1.267094317E1
2.213129078E0,2.013000011E0,-1.358700085E1,-2.710050106E0,1.400011188E1
2.215627768E0,2.377050161E0,-1.353195095E1,-7.489500642E-1,1.375954179E1
2.218126232E0,2.016000032E0,-1.392000103E1,1.033950090E0,1.410318183E1
2.220624693E0,1.426950097E0,-1.374705029E1,2.463000059E0,1.403865903E1
2.223123230E0,1.848000050E0,-1.310295105E1,3.286950111E0,1.363475234E1
2.225621693E0,1.936950088E0,-1.224900055E1,3.670050144E0,1.293286736E1
2.228120384E0,2.605050087E0,-1.137000084E1,3.271950245E0,1.211481999E1
2.230618847E0,2.860950232E0,-1.025895023E1,2.449050188E0,1.092835500E1
2.233117299E0,2.551950216E0,-9.864000320E0,1.588950038E0,1.031192099E1
2.235615835E0,2.976000071E0,-1.087695026E1,1.132050037E0,1.133340905E1
2.238114299E0,3.346950054E0,-1.014195061E1,4.810500145E-1,1.069077387E1
2.240612989E0,3.405000210E0,-9.820950508E0,4.590000212E-1,1.040460361E1
2.243111453E0,3.402000189E0,-9.213000298E0,-4.279500246E-1,9.830367287E0
2.245609989E0,3.309000254E0,-8.518050194E0,-7.849500179E-1,9.171848686E0
2.248108453E0,2.449050188E0,-7.755000591E0,-6.079500318E-1,8.155212090E0
2.250607143E0,1.096950054E0,-8.011050224E0,5.205000192E-2,8.085971452E0
2.253105606E0,-1.303950071E0,-9.028050423E0,6.100500226E-1,9.142108141E0
2.255604153E0,-2.569950104E0,-9.421050072E0,1.017000079E0,9.818101504E0
2.258102616E0,-2.692950010E0,-9.285000801E0,9.520500302E-1,9.714402652E0
2.260601078E0,-2.424000025E0,-9.076050758E0,5.809500217E-1,9.412118593E0
2.263099768E0,-2.392950058E0,-9.004050255E0,6.049500108E-1,9.336224906E0
2.265598232E0,-1.845000029E0,-8.764950752E0,1.600500047E-1,8.958459845E0
2.268096758E0,-1.186950088E0,-8.499000549E0,9.000000544E-3,8.581488324E0
2.270595222E0,-2.649000168E0,-9.001950264E0,3.349500299E-1,9.389595410E0
2.273093912E0,-3.858000278E0,-9.820950508E0,4.660500288E-1,1.056183874E1
2.275592376E0,-3.973050117E0,-1.020195007E1,5.479500294E-1,1.096198713E1
2.278090857E0,-3.906000137E0,-1.037595081E1,7.180500627E-1,1.111003097E1
2.280589394E0,-3.765000105E0,-1.051995087E1,7.699500322E-1,1.119988460E1
2.283087857E0,-3.862950087E0,-1.078605080E1,9.190500379E-1,1.149373430E1
2.285586548E0,-4.552950382E0,-1.127400017E1,1.077000022E0,1.220624291E1
2.288085011E0,-4.438050270E0,-1.151100063E1,1.162950039E0,1.239160517E1
2.290583548E0,-3.826950073E0,-1.145805073E1,1.057950020E0,1.212648884E1
2.293082011E0,-3.823050261E0,-1.143000031E1,1.017000079E0,1.209524326E1
2.295580701E0,-4.107000351E0,-1.140795040E1,1.017000079E0,1.216729524E1
2.298079165E0,-4.318050385E0,-1.128600025E1,8.850000501E-1,1.211621170E1
2.300577631E0,-4.383000374E0,-1.111605072E1,6.100500226E-1,1.196450738E1
2.303076167E0,-4.438050270E0,-1.104000092E1,3.130500019E-1,1.190276904E1
2.305574631E0,-4.564949989E0,-1.106595039E1,1.605000161E-2,1.197055906E1
2.308073321E0,-4.705950260E0,-1.106805038E1,-1.890000105E-1,1.202844247E1
2.310571794E0,-4.768050194E0,-1.112595081E1,-3.109500110E-1,1.210858266E1
2.313070331E0,-4.843050003E0,-1.119795036E1,-3.829500079E-1,1.220638670E1
2.315568794E0,-5.020050049E0,-1.128405094E1,-3.490500152E-1,1.235526382E1
2.318067485E0,-4.998000145E0,-1.130505085E1,-4.140000343E-1,1.236752102E1
2.320565948E0,-5.062950134E0,-1.133400059E1,-4.350000322E-1,1.242104096E1
2.323064500E0,-5.137050152E0,-1.139100075E1,-3.490500152E-1,1.250064071E1
2.325562963E0,-4.989000320E0,-1.138395023E1,-3.610500097E-1,1.243442014E1
2.328061654E0,-4.936050415E0,-1.145400047E1,-2.200500071E-1,1.247425920E1
2.330560117E0,-4.825950146E0,-1.137495041E1,-2.149500102E-1,1.235821569E1
2.333058579E0,-4.536000252E0,-1.129305077E1,-7.095000148E-2,1.217018191E1
2.335557120E0,-4.234050274E0,-1.113300037E1,1.500000060E-1,1.191190073E1
2.338055584E0,-3.928050280E0,-1.085505009E1,3.630000055E-1,1.154960867E1
2.340554274E0,-3.379950047E0,-1.062795067E1,2.359950066E0,1.139941937E1
2.343052738E0,-2.503050089E0,-1.059705067E1,1.450050116E0,1.098477983E1
2.345551199E0,-1.864050031E0,-9.888000488E0,-8.370000124E-1,1.009692058E1
2.348049736E0,-2.271000147E0,-9.964950562E0,-7.369500399E-1,1.024698867E1
2.350548199E0,-2.403000116E0,-9.976050377E0,-5.569500327E-1,1.027648695E1
2.353046889E0,-2.713950157E0,-1.023495007E1,-2.770500183E-1,1.059228422E1
2.355545353E0,-2.235000134E0,-1.031205082E1,6.405000389E-2,1.055166907E1
2.358043875E0,-1.684950113E0,-1.043100071E1,1.004999995E0,1.061389927E1
2.360542339E0,-1.387950063E0,-1.080195045E1,1.422000051E0,1.098319731E1
2.363041029E0,-8.970000148E-1,-1.041000080E1,6.409500241E-1,1.046821583E1
2.365539493E0,-1.062000036E0,-1.034805012E1,5.620500445E-1,1.041757580E1
2.368037954E0,-1.464000106E0,-1.041195011E1,6.480000019E-1,1.053432036E1
2.370536500E0,-1.948050141E0,-1.050795078E1,9.640500546E-1,1.073039242E1
2.373034963E0,-2.439000130E0,-1.059705067E1,1.587000132E0,1.098930270E1
2.375533654E0,-2.440950155E0,-1.036695004E1,2.073000193E0,1.085030970E1
2.378032117E0,-2.154000044E0,-1.008705044E1,2.466000080E0,1.060516191E1
2.380530654E0,-1.476000071E0,-9.663000107E0,2.548950195E0,1.010194508E1
2.383029117E0,-5.070000291E-1,-9.238950729E0,2.125950098E0,9.493941406E0
2.385527808E0,1.699500084E-1,-9.085950851E0,1.822050095E0,9.268400748E0
2.388026271E0,9.100500345E-1,-8.688000679E0,1.615950108E0,8.883740294E0
2.390524733E0,1.305000067E0,-8.491950035E0,1.450050116E0,8.713144433E0
2.393023269E0,1.480050087E0,-8.170949936E0,1.156050086E0,8.383998027E0
2.395521723E0,1.551000118E0,-7.723950386E0,8.730000257E-1,7.926357296E0
2.398020413E0,1.708950043E0,-7.027050495E0,5.260500312E-1,7.250977696E0
2.400518877E0,1.662000060E0,-6.466950417E0,1.339500099E-1,6.678445515E0
2.403017413E0,1.312050104E0,-6.184050083E0,-1.600500047E-1,6.323730458E0
2.405515877E0,8.089500666E-1,-6.280050278E0,-3.420000076E-1,6.341166746E0
2.408014562E0,1.890000105E-1,-6.691950321E0,-3.130500019E-1,6.701934080E0
2.410513025E0,-4.200000167E-1,-7.209000111E0,-1.890000105E-1,7.223697364E0
2.413011487E0,-8.920500278E-1,-7.803000450E0,-7.605000585E-2,7.854193331E0
2.415510023E0,-1.222050071E0,-8.265000343E0,1.339500099E-1,8.355930807E0
2.418008487E0,-1.315950036E0,-8.523000717E0,3.540000021E-1,8.631256092E0
2.420507173E0,-1.231950045E0,-8.680950165E0,5.100000501E-1,8.782749952E0
2.423005637E0,-1.155000091E0,-8.806050301E0,7.200000286E-1,8.910608686E0
2.425504173E0,-1.194000006E0,-8.932950020E0,1.089000106E0,9.077948739E0
2.428002866E0,-1.189050078E0,-9.094950676E0,1.483950019E0,9.291613183E0
2.430501338E0,-8.800500631E-1,-9.064050674E0,1.678050041E0,9.259986754E0
2.432999800E0,-5.950500369E-1,-9.166950226E0,1.756950140E0,9.352750119E0
2.435498261E0,-4.230000079E-1,-9.241050720E0,2.032050133E0,9.471281601E0
2.437996798E0,-1.930500120E-1,-9.190950394E0,2.241000175E0,9.462183640E0
2.440495490E0,-2.029500157E-1,-9.202950478E0,2.298000097E0,9.487691534E0
2.442993940E0,-4.039500058E-1,-9.466950417E0,2.367000103E0,9.766730020E0
2.445492401E0,-5.070000291E-1,-9.567000389E0,2.317050219E0,9.856635693E0
2.447990938E0,-6.889500618E-1,-9.586050034E0,2.134950161E0,9.845050514E0
2.450489401E0,-9.019500613E-1,-9.615000725E0,1.989000082E0,9.859912483E0
2.452988091E0,-7.560000420E-1,-9.403950691E0,1.719000101E0,9.589618658E0
2.455486569E0,-9.540000558E-1,-9.399000168E0,1.594050050E0,9.580830644E0
2.457985105E0,-9.259500504E-1,-9.370950699E0,1.386000037E0,9.518040586E0
2.460483569E0,-6.120000482E-1,-9.097949982E0,1.057950020E0,9.179678435E0
2.462982031E0,-7.510500550E-1,-9.249000549E0,9.600000381E-1,9.328970330E0
2.465480721E0,-8.590500355E-1,-9.366000175E0,9.570000172E-1,9.453876204E0
2.467979237E0,-9.690000415E-1,-9.510000229E0,9.720000625E-1,9.608530041E0
2.470477699E0,-1.210950017E0,-9.672000885E0,1.102950096E0,9.809714572E0
2.472976160E0,-1.309050083E0,-9.763050079E0,1.158000112E0,9.918252025E0
2.475474851E0,-1.282050014E0,-9.782999992E0,1.084050059E0,9.926021641E0
2.477973314E0,-1.333050013E0,-9.756000519E0,8.809500337E-1,9.885982067E0
2.480471846E0,-1.351950049E0,-9.712950706E0,6.580500603E-1,9.828642340E0
2.482970309E0,-1.354050040E0,-9.718050003E0,4.690500200E-1,9.823133680E0
2.485469000E0,-1.359000087E0,-9.691950798E0,3.970500231E-1,9.794817008E0
2.487967463E0,-1.348950028E0,-9.724950790E0,3.589500189E-1,9.824621070E0
2.490466000E0,-1.294050097E0,-9.730050087E0,3.709500134E-1,9.822730998E0
2.492964473E0,-1.275000095E0,-9.711000443E0,4.159500301E-1,9.803171388E0
2.495462935E0,-1.330050111E0,-9.687000275E0,4.999500215E-1,9.790656650E0
2.497961625E0,-1.399950027E0,-9.718050003E0,5.860500336E-1,9.835843156E0
2.500460089E0,-1.677000046E0,-9.888000488E0,8.610000610E-1,1.006609179E1
2.502958625E0,-2.095950127E0,-1.017000008E1,1.249050021E0,1.045858664E1
2.505457084E0,-1.993050098E0,-1.011105061E1,9.960000515E-1,1.035362783E1
2.507955774E0,-1.897950053E0,-9.985950470E0,6.960000396E-1,1.018851497E1
2.510454237E0,-1.890000105E0,-9.897000313E0,4.090500176E-1,1.008414783E1
2.512952774E0,-1.957050085E0,-9.888000488E0,3.679500222E-1,1.008652497E1
2.515451237E0,-2.131950140E0,-9.877950668E0,4.950000346E-1,1.011751678E1
2.517949918E0,-2.475000143E0,-9.991050720E0,7.009500265E-1,1.031688185E1
2.520448381E0,-2.815050125E0,-1.010805035E1,9.240000248E-1,1.053332640E1
2.522946843E0,-3.223950148E0,-1.028100014E1,1.146000028E0,1.083541113E1
2.525445379E0,-3.349050045E0,-1.032795048E1,1.125000000E0,1.091550834E1
2.527943843E0,-3.355950117E0,-1.025400066E1,9.859500527E-1,1.083416025E1
2.530442529E0,-3.358050108E0,-1.021800041E1,8.760000467E-1,1.079126540E1
2.532940993E0,-3.372000217E0,-1.017795086E1,7.750500441E-1,1.074996613E1
2.535439529E0,-3.400950193E0,-1.010595036E1,7.729500532E-1,1.069084405E1
2.537937993E0,-3.562050104E0,-1.010805035E1,8.710500598E-1,1.075265600E1
2.540436683E0,-3.664950132E0,-1.009395027E1,9.070500135E-1,1.077693979E1
2.542935147E0,-3.814950228E0,-1.008900070E1,9.169500470E-1,1.082509020E1
2.545433608E0,-3.901950121E0,-1.008705044E1,8.779500127E-1,1.085101827E1
2.547932145E0,-3.945000172E0,-1.006995010E1,8.490000367E-1,1.084839723E1
2.550430608E0,-4.000050068E0,-1.011795044E1,8.659500480E-1,1.091435711E1
2.552929298E0,-3.964050293E0,-1.011495018E1,7.900500298E-1,1.089266225E1
2.555427766E0,-3.862950087E0,-1.010100079E1,6.409500241E-1,1.083343977E1
2.557926302E0,-3.744000196E0,-1.011300087E1,5.569500327E-1,1.079817195E1
2.560424766E0,-3.624000072E0,-1.013400078E1,5.119500160E-1,1.077466664E1
2.562923456E0,-3.484950066E0,-1.014405060E1,5.290500522E-1,1.073901920E1
2.565421906E0,-3.298050165E0,-1.012500095E1,5.359500051E-1,1.066208336E1
2.567920367E0,-3.175950050E0,-1.013400078E1,6.169500351E-1,1.063791605E1
2.570418904E0,-3.142950058E0,-1.020195007E1,6.820500493E-1,1.069687397E1
2.572917367E0,-3.097050190E0,-1.021395016E1,7.060500383E-1,1.069649496E1
2.575416058E0,-3.043950081E0,-1.022805023E1,7.030500174E-1,1.069452771E1
2.577914507E0,-2.920050144E0,-1.020900059E1,6.480000019E-1,1.063815256E1
2.580412969E0,-2.793000221E0,-1.018200016E1,5.959500074E-1,1.057492950E1
2.582911505E0,-2.652000189E0,-1.015605068E1,5.809500217E-1,1.051265777E1
2.585409969E0,-2.512950182E0,-1.014600086E1,5.719500184E-1,1.046820801E1
2.587908659E0,-2.368950129E0,-1.015395069E1,6.150000095E-1,1.044475296E1
2.590407118E0,-2.254050016E0,-1.014600086E1,6.529500484E-1,1.041385705E1
2.592905654E0,-2.223000050E0,-1.018995094E1,6.990000606E-1,1.045301060E1
2.595404118E0,-2.202000141E0,-1.019205093E1,7.270500064E-1,1.045252642E1
2.597902808E0,-2.197050095E0,-1.021095085E1,7.350000143E-1,1.047047140E1
2.600401272E0,-2.139000177E0,-1.019700050E1,7.150500417E-1,1.044343993E1
2.602899808E0,-2.086950064E0,-1.015800095E1,6.649500132E-1,1.039146295E1
2.605398272E0,-2.014950037E0,-1.012695026E1,6.220500469E-1,1.034418153E1
2.607896962E0,-2.001000166E0,-1.013895035E1,5.740500093E-1,1.035045164E1
2.610395425E0,-2.002950191E0,-1.014195061E1,5.260500312E-1,1.035121733E1
2.612893887E0,-2.041050196E0,-1.017795086E1,4.950000346E-1,1.039238157E1
2.615392408E0,-2.058000088E0,-1.022505093E1,4.759500325E-1,1.044095586E1
2.617890872E0,-2.059950113E0,-1.026900005E1,4.570500255E-1,1.048354192E1
2.620389562E0,-2.037000179E0,-1.031895065E1,4.639500082E-1,1.052831240E1
2.622888026E0,-2.020050049E0,-1.035495090E1,4.470000267E-1,1.055961266E1
2.625386487E0,-2.025000095E0,-1.037205029E1,4.620000124E-1,1.057797223E1
2.627885024E0,-2.005050182E0,-1.041195011E1,4.110000134E-1,1.061121352E1
2.630383487E0,-1.977000117E0,-1.045095062E1,3.949500322E-1,1.064363114E1
2.632882178E0,-1.912050128E0,-1.046295071E1,3.630000055E-1,1.064241712E1
2.635380641E0,-1.888050079E0,-1.047405052E1,3.180000186E-1,1.064760966E1
2.637879183E0,-1.909950137E0,-1.048905087E1,2.869500220E-1,1.066538503E1
2.640377646E0,-1.929000139E0,-1.053900051E1,2.719500065E-1,1.071753377E1
2.642876337E0,-1.909950137E0,-1.054395008E1,2.650500238E-1,1.071881730E1
2.645374800E0,-1.893000126E0,-1.058895016E1,2.839500010E-1,1.076057352E1
2.647873337E0,-1.881000042E0,-1.061295033E1,2.560500205E-1,1.078139311E1
2.650371786E0,-1.900050044E0,-1.063500023E1,2.629500031E-1,1.080659811E1
2.652870248E0,-1.912050128E0,-1.064205074E1,2.170500159E-1,1.081463316E1
2.655368938E0,-1.893000126E0,-1.063995075E1,7.395000011E-2,1.080728782E1
2.657867402E0,-1.996050119E0,-1.066095066E1,1.000500023E-1,1.084666285E1
2.660365938E0,-2.059950113E0,-1.064700031E1,1.549500078E-1,1.084555299E1
2.662864416E0,-2.127000093E0,-1.062495041E1,1.339500099E-1,1.083658817E1
2.665363106E0,-2.166000128E0,-1.063500023E1,5.205000192E-2,1.085345547E1
2.667861569E0,-2.239950180E0,-1.061595058E1,-2.100000158E-2,1.084971081E1
2.670360106E0,-2.296950102E0,-1.060905075E1,-1.429500133E-1,1.085579902E1
2.672858564E0,-2.353049994E0,-1.060095024E1,-2.479500175E-1,1.086178942E1
2.675357255E0,-2.391000032E0,-1.059900093E1,-3.730500042E-1,1.087174633E1
2.677855718E0,-2.416950226E0,-1.060395050E1,-5.449500084E-1,1.088955395E1
2.680354180E0,-2.532000065E0,-1.058700085E1,-6.769500375E-1,1.090659766E1
2.682852716E0,-2.625000238E0,-1.057005024E1,-7.680000067E-1,1.091816891E1
2.685351166E0,-2.721000195E0,-1.057695007E1,-8.880000710E-1,1.095738377E1
2.687849856E0,-2.821950197E0,-1.055595016E1,-1.018950105E0,1.097404876E1
2.690348320E0,-2.872050047E0,-1.054200077E1,-1.218000054E0,1.099390631E1
2.692846781E0,-2.910000086E0,-1.055100060E1,-1.426050067E0,1.103745137E1
2.695345317E0,-2.949000120E0,-1.050795078E1,-1.635000110E0,1.103570826E1
2.697843780E0,-3.040050030E0,-1.047195053E1,-1.807050109E0,1.105301236E1
2.700342471E0,-3.145050049E0,-1.041900063E1,-2.001000166E0,1.106575418E1
2.702840934E0,-3.211950064E0,-1.035195065E1,-2.140050173E0,1.104804599E1
2.705339471E0,-3.219000101E0,-1.028100014E1,-2.358000040E0,1.102819521E1
2.707837929E0,-3.246000051E0,-1.020900059E1,-2.539950132E0,1.100961198E1
2.710336619E0,-3.229050159E0,-1.011105061E1,-2.734050035E0,1.096061763E1
2.712835083E0,-3.270000219E0,-9.996000290E0,-2.869950056E0,1.090181345E1
2.715333545E0,-3.327000141E0,-9.897000313E0,-2.974950075E0,1.085678926E1
2.717832067E0,-3.310050249E0,-9.780000687E0,-3.040050030E0,1.076321282E1
2.720330531E0,-3.277050257E0,-9.703950882E0,-3.193050146E0,1.072852694E1
2.722829221E0,-3.207000256E0,-9.607950211E0,-3.253050089E0,1.063860389E1
2.725327684E0,-3.064050198E0,-9.531000137E0,-3.250950098E0,1.052601747E1
2.727826221E0,-2.953050137E0,-9.463950157E0,-3.169050217E0,1.040815723E1
2.730324665E0,-2.713950157E0,-9.418950081E0,-3.031050205E0,1.026008828E1
2.732823356E0,-2.365050077E0,-9.399000168E0,-2.872950077E0,1.010883318E1
2.735321819E0,-2.082000017E0,-9.391950607E0,-2.872950077E0,1.003978598E1
2.737820281E0,-1.882950068E0,-9.435000420E0,-2.932050228E0,1.005791491E1
2.740318817E0,-1.687050104E0,-9.481050491E0,-2.944050074E0,1.006994972E1
2.742817505E0,-1.300950050E0,-9.475950241E0,-2.953950167E0,1.001059067E1
2.745315968E0,-9.160500169E-1,-9.483000755E0,-3.066000223E0,1.000833694E1
2.747814430E0,-6.330000162E-1,-9.466950417E0,-3.073950052E0,9.973615600E0
2.750312966E0,-3.390000165E-1,-9.462000847E0,-3.073950052E0,9.954574323E0
2.752811430E0,-9.000000358E-2,-9.462000847E0,-3.136050224E0,9.968569157E0
2.755310139E0,9.300000221E-2,-9.433050156E0,-3.129000187E0,9.938899658E0
2.757808603E0,2.269500047E-1,-9.403950691E0,-3.166950226E0,9.925490851E0
2.760307139E0,3.450000286E-1,-9.382950783E0,-3.250950098E0,9.936169632E0
2.762805603E0,3.229500055E-1,-9.352050781E0,-3.286950111E0,9.918124397E0
2.765304293E0,2.730000019E-1,-9.343950272E0,-3.339000225E0,9.926371854E0
2.767802761E0,1.840500087E-1,-9.301050186E0,-3.387000084E0,9.900261539E0
2.770301298E0,2.130000144E-1,-9.256050110E0,-3.346950054E0,9.844892448E0
2.772799761E0,2.629500031E-1,-9.184050560E0,-3.210000038E0,9.732421468E0
2.775298452E0,1.630500108E-1,-9.112050056E0,-3.085950136E0,9.621804913E0
2.777796915E0,1.750500053E-1,-9.043050766E0,-3.097950220E0,9.560580800E0
2.780295377E0,1.960500032E-1,-8.995050430E0,-3.069000244E0,9.506215353E0
2.782793913E0,2.389500141E-1,-8.854050636E0,-2.884050131E0,9.314990872E0
2.785292377E0,2.779500186E-1,-8.710050583E0,-2.640000105E0,9.105593771E0
2.787791067E0,3.210000098E-1,-8.607000351E0,-2.367000103E0,8.932311321E0
2.790289531E0,3.330000043E-1,-8.546999931E0,-2.001000166E0,8.784423629E0
2.792788067E0,4.909500182E-1,-8.475000381E0,-1.615950108E0,8.641640940E0
2.795286531E0,6.010500193E-1,-8.487000465E0,-1.306950092E0,8.608051845E0
2.797785221E0,6.150000095E-1,-8.478000641E0,-1.039050102E0,8.563547454E0
2.800283685E0,6.820500493E-1,-8.374950409E0,-7.699500322E-1,8.437879454E0
2.802782160E0,8.479500413E-1,-8.344050407E0,-3.900000155E-1,8.396088166E0
2.805280697E0,9.070500135E-1,-8.394000053E0,1.000500023E-1,8.443458215E0
2.807779160E0,8.310000300E-1,-8.458950043E0,4.420500100E-1,8.511157682E0
2.810277850E0,6.780000329E-1,-8.502000809E0,6.559500098E-1,8.554178640E0
2.812776309E0,7.129500508E-1,-8.487000465E0,7.510500550E-1,8.549944495E0
2.815274845E0,6.580500603E-1,-8.490000725E0,9.720000625E-1,8.570759961E0
2.817773309E0,4.639500082E-1,-8.539950371E0,1.054949999E0,8.617361629E0
2.820271999E0,2.710500062E-1,-8.572950363E0,1.069950104E0,8.643710966E0
2.822770463E0,6.000000238E-2,-8.656949997E0,1.234950066E0,8.744797591E0
2.825268990E0,-2.239500135E-1,-8.784000397E0,1.132050037E0,8.859478194E0
2.827767454E0,-4.710000157E-1,-8.872950554E0,9.570000172E-1,8.936830623E0
2.830265915E0,-7.030500174E-1,-8.985000610E0,7.900500298E-1,9.047026823E0
2.832764606E0,-9.400500655E-1,-9.118950844E0,6.240000129E-1,9.188489247E0
2.835263069E0,-1.147950053E0,-9.220050812E0,4.860000312E-1,9.303941225E0
2.837761596E0,-1.345050097E0,-9.328050613E0,4.570500255E-1,9.435601875E0
2.840260059E0,-1.536000013E0,-9.451950073E0,4.620000124E-1,9.587079860E0
2.842758750E0,-1.665000081E0,-9.534000397E0,4.039500058E-1,9.686721037E0
2.845257213E0,-1.768050075E0,-9.627000809E0,3.510000110E-1,9.794301744E0
2.847755675E0,-1.834950089E0,-9.699000359E0,3.280500174E-1,9.876500726E0
2.850254211E0,-1.906950116E0,-9.754050255E0,2.800500095E-1,9.942654732E0
2.852752675E0,-1.945950150E0,-9.796950340E0,2.700000107E-1,9.991989690E0
2.855251365E0,-2.038950205E0,-9.778050423E0,2.170500159E-1,9.990730640E0
2.857749848E0,-2.116050005E0,-9.736950874E0,2.100000083E-1,9.966442693E0
2.860248384E0,-2.163000107E0,-9.663000107E0,2.050500065E-1,9.904250907E0
2.862746848E0,-2.211000204E0,-9.526050568E0,1.650000066E-1,9.780663900E0
2.865245538E0,-2.281050205E0,-9.367950439E0,1.069500074E-1,9.642257193E0
2.867744001E0,-2.344950199E0,-9.198000908E0,4.500000179E-2,9.492314635E0
2.870242449E0,-2.365050077E0,-8.983050346E0,-8.295000345E-2,9.289539068E0
2.872740985E0,-2.403000116E0,-8.803050041E0,-2.220000178E-1,9.127835647E0
2.875239449E0,-2.434050083E0,-8.632950783E0,-3.750000298E-1,8.977363981E0
2.877738139E0,-2.476950169E0,-8.455950737E0,-5.719500184E-1,8.829808142E0
2.880236603E0,-2.434050083E0,-8.265000343E0,-7.440000176E-1,8.648026741E0
2.882735134E0,-2.350050211E0,-8.121000290E0,-8.920500278E-1,8.501125511E0
2.885233598E0,-2.250000000E0,-7.968000412E0,-1.077000022E0,8.349338873E0
2.887732288E0,-2.106000185E0,-7.816950321E0,-1.282950044E0,8.196701161E0
2.890230752E0,-1.969050050E0,-7.728000164E0,-1.513050079E0,8.117171008E0
2.892729213E0,-1.861950040E0,-7.623000145E0,-1.716000080E0,8.032536675E0
2.895227740E0,-1.804050088E0,-7.599000454E0,-1.908000112E0,8.039892353E0
2.897726203E0,-1.713000059E0,-7.558050156E0,-2.068050146E0,8.020930293E0
2.900224894E0,-1.668000102E0,-7.534050465E0,-2.215950012E0,8.028360680E0
2.902723357E0,-1.648950100E0,-7.513050556E0,-2.314950228E0,8.032680726E0
2.905221894E0,-1.582050085E0,-7.507950306E0,-2.383949995E0,8.034638626E0
2.907720381E0,-1.588950038E0,-7.519950390E0,-2.488950014E0,8.078941036E0
2.910219071E0,-1.567050099E0,-7.563000202E0,-2.590050220E0,8.146347538E0
2.912717535E0,-1.573950052E0,-7.623000145E0,-2.692950010E0,8.236469495E0
2.915216071E0,-1.584000111E0,-7.671000481E0,-2.760000229E0,8.304872425E0
2.917714535E0,-1.591050029E0,-7.699950218E0,-2.817000151E0,8.352015530E0
2.920213239E0,-1.573950052E0,-7.731000423E0,-2.839050055E0,8.384860853E0
2.922711703E0,-1.591050029E0,-7.768950462E0,-2.857950211E0,8.429466821E0
2.925210239E0,-1.536000013E0,-7.812000275E0,-2.839050055E0,8.452623826E0
2.927708703E0,-1.492950082E0,-7.870050430E0,-2.827050209E0,8.494633989E0
2.930207403E0,-1.456950068E0,-7.908000469E0,-2.758050203E0,8.500942056E0
2.932705867E0,-1.435950041E0,-7.996050358E0,-2.746050119E0,8.575521273E0
2.935204328E0,-1.372950077E0,-8.065950394E0,-2.770050049E0,8.638155182E0
2.937702865E0,-1.287000060E0,-8.107049942E0,-2.749950171E0,8.656954075E0
2.940201328E0,-1.167000055E0,-8.146950722E0,-2.736000061E0,8.672969014E0
2.942700000E0,-1.098000050E0,-8.188050270E0,-2.713950157E0,8.695705652E0
2.945198463E0,-1.063950062E0,-8.290950775E0,-2.736000061E0,8.795314140E0
2.947697000E0,-1.050000072E0,-8.403000832E0,-2.752950191E0,8.904586340E0
2.950195463E0,-1.041000009E0,-8.502000809E0,-2.803050041E0,9.012479587E0
2.952694153E0,-9.730500579E-1,-8.506050110E0,-2.904000044E0,9.040626701E0
2.955192607E0,-1.093050003E0,-8.571000099E0,-2.995050192E0,9.144786857E0
2.957691069E0,-1.060050011E0,-8.593050003E0,-3.069000244E0,9.186020731E0
2.960189605E0,-9.850500226E-1,-8.563950539E0,-3.136050224E0,9.173133782E0
2.962688069E0,-9.469500184E-1,-8.539950371E0,-3.105000257E0,9.136109307E0
2.965186749E0,-1.004999995E0,-8.546999931E0,-3.130950212E0,9.157733456E0
2.967685212E0,-1.030950069E0,-8.527950287E0,-3.154950142E0,9.151093079E0
2.970183674E0,-1.041000009E0,-8.467950821E0,-3.154950142E0,9.096349956E0
2.972682210E0,-1.036050081E0,-8.403000832E0,-3.178950071E0,9.043757311E0
2.975180674E0,-1.098000050E0,-8.370000839E0,-3.210000038E0,9.031423941E0
2.977679369E0,-1.141050100E0,-8.301000595E0,-3.256050110E0,8.989464307E0
2.980177833E0,-1.189050078E0,-8.296050072E0,-3.307950258E0,9.010040055E0
2.982676369E0,-1.182000041E0,-8.286000252E0,-3.339000225E0,9.011317705E0
2.985174833E0,-1.117050052E0,-8.241000175E0,-3.382050276E0,8.977758561E0
2.987673523E0,-1.075950027E0,-8.230950356E0,-3.460950136E0,8.993574821E0
2.990171987E0,-1.051950097E0,-8.214000702E0,-3.595950127E0,9.028137341E0
2.992670523E0,-1.036050081E0,-8.214000702E0,-3.766050100E0,9.095402171E0
2.995168987E0,-9.930000305E-1,-8.229000092E0,-3.991050243E0,9.199509422E0
2.997667677E0,-9.259500504E-1,-8.229000092E0,-4.192049980E0,9.281546694E0
3.000166141E0,-8.539500237E-1,-8.250000000E0,-4.456950188E0,9.415738719E0
3.002664602E0,-8.149500489E-1,-8.290950775E0,-4.668000221E0,9.549567236E0
3.005163139E0,-7.240500450E-1,-8.320050240E0,-4.800000191E0,9.632626137E0
3.007661602E0,-6.240000129E-1,-8.344050407E0,-4.828950405E0,9.660813384E0
3.010160292E0,-5.380499959E-1,-8.413050652E0,-4.717950344E0,9.660640482E0
3.012658770E0,-4.560000300E-1,-8.485050201E0,-4.776000023E0,9.747522207E0
3.015157232E0,-3.850500286E-1,-8.584950447E0,-4.764000416E0,9.825748708E0
3.017655768E0,-3.370500207E-1,-8.695950508E0,-4.474050045E0,9.785207293E0
3.020154232E0,-2.119500041E-1,-8.806050301E0,-4.085999966E0,9.710141112E0
3.022652922E0,-1.000500023E-1,-8.899050713E0,-3.588000059E0,9.595668711E0
3.025151395E0,-4.050000105E-3,-9.001950264E0,-3.105000257E0,9.522402615E0
3.027649932E0,1.099500060E-1,-9.141000748E0,-2.575950146E0,9.497657755E0
3.030148624E0,1.410000026E-1,-9.273000717E0,-2.001000166E0,9.487487811E0
3.032647088E0,4.800000042E-2,-9.367950439E0,-1.446000099E0,9.479014491E0
3.035145624E0,-1.789500117E-1,-9.426000595E0,-8.710500598E-1,9.467852900E0
3.037644107E0,-5.230500102E-1,-9.390000343E0,-3.270000219E-1,9.410239996E0
3.040142568E0,-9.570000172E-1,-9.285000801E0,1.789500117E-1,9.335904456E0
3.042641259E0,-1.348950028E0,-9.076050758E0,6.409500241E-1,9.198107440E0
3.045139722E0,-1.776000142E0,-8.839050293E0,9.619500637E-1,9.066881190E0
3.047638259E0,-2.190000057E0,-8.569050789E0,1.240050077E0,8.930982917E0
3.050136708E0,-2.605950117E0,-8.278950691E0,1.539000034E0,8.814789939E0
3.052635398E0,-3.009000063E0,-7.975050449E0,1.783050060E0,8.708316632E0
3.055133862E0,-3.337050200E0,-7.678050518E0,2.023050070E0,8.612844790E0
3.057632324E0,-3.640950203E0,-7.390950203E0,2.185050011E0,8.523913821E0
3.060130860E0,-3.813000202E0,-7.137000561E0,2.250000000E0,8.398705111E0
3.062629338E0,-3.909000158E0,-6.931050301E0,2.334000111E0,8.292604960E0
3.065128028E0,-3.970950127E0,-6.751050472E0,2.569050074E0,8.242884548E0
3.067626491E0,-3.990000248E0,-6.598050117E0,2.815050125E0,8.208463592E0
3.070125028E0,-3.970950127E0,-6.498000145E0,3.001950026E0,8.185606560E0
3.072623491E0,-3.949050188E0,-6.445050240E0,2.961000204E0,8.117954926E0
3.075122201E0,-3.906000137E0,-6.502050400E0,2.680950165E0,8.044935690E0
3.077620664E0,-3.748050213E0,-6.601050377E0,2.403000116E0,7.962170309E0
3.080119201E0,-3.496950150E0,-6.768000126E0,2.245050192E0,7.941960489E0
3.082617664E0,-3.178950071E0,-6.967050552E0,2.310000181E0,7.998851030E0
3.085116126E0,-2.839050055E0,-7.150950432E0,2.608950138E0,8.124218000E0
3.087614836E0,-2.518050194E0,-7.339950562E0,2.949000120E0,8.301328372E0
3.090113300E0,-2.223000050E0,-7.573050499E0,3.283950090E0,8.548517490E0
3.092611836E0,-1.965000153E0,-7.828950405E0,3.544950247E0,8.815915284E0
3.095110300E0,-1.681950092E0,-8.122950554E0,3.676950216E0,9.073656634E0
3.097608990E0,-1.447950125E0,-8.479949951E0,3.784950256E0,9.398508349E0
3.100107450E0,-1.206000090E0,-8.860950470E0,3.861000299E0,9.740544274E0
3.102605986E0,-9.760500193E-1,-9.274950027E0,3.957000256E0,1.013090434E1
3.105104450E0,-7.600500584E-1,-9.742050171E0,4.108050346E0,1.060006110E1
3.107603140E0,-4.540500343E-1,-1.022295094E1,4.321050167E0,1.110794138E1
3.110101603E0,-4.905000329E-2,-1.077105045E1,4.471950054E0,1.166260138E1
3.112600074E0,4.380000234E-1,-1.137900066E1,4.579950333E0,1.227393357E1
3.115098610E0,9.979500771E-1,-1.204500103E1,4.729950428E0,1.297884376E1
3.117597074E0,1.638000131E0,-1.276095104E1,4.695000172E0,1.369554462E1
3.120095536E0,2.344050169E0,-1.351500034E1,4.608000278E0,1.447008887E1
3.122594221E0,3.076950073E0,-1.437195110E1,4.375950336E0,1.533523856E1
3.125092684E0,3.847050190E0,-1.527000046E1,3.876000166E0,1.621715408E1
3.127591221E0,4.666050434E0,-1.623300171E1,3.153000116E0,1.718207732E1
3.130089684E0,5.554950237E0,-1.722900009E1,2.169000149E0,1.823185339E1
3.132588375E0,6.451950073E0,-1.818105125E1,1.063050032E0,1.932118940E1
3.135086930E0,7.135050297E0,-1.914900017E1,-1.140000075E-1,2.043541402E1
3.137585392E0,7.467000484E0,-2.013300133E1,-1.206000090E0,2.150693551E1
3.140084082E0,7.501050472E0,-2.093700027E1,-2.133000135E0,2.234218942E1
3.142582546E0,7.318950176E0,-2.166000175E1,-2.947050095E0,2.305228431E1
3.145081091E0,6.892950535E0,-2.234700012E1,-3.631050110E0,2.366612994E1
3.147579555E0,6.394950390E0,-2.288805199E1,-4.144050121E0,2.412325570E1
3.150078016E0,5.871000290E0,-2.329800034E1,-4.398000240E0,2.442555772E1
3.152576706E0,5.521050453E0,-2.353695107E1,-4.519950390E0,2.459471519E1
3.155075180E0,5.179050446E0,-2.355900192E1,-4.528950214E0,2.454303415E1
3.157573716E0,4.717050076E0,-2.346300125E1,-4.594050407E0,2.436941297E1
3.160072180E0,4.249950409E0,-2.336205101E1,-4.774050236E0,2.422063297E1
3.162570870E0,3.610050201E0,-2.320395088E1,-4.789950371E0,2.396663146E1
3.165069334E0,2.968950033E0,-2.285505104E1,-4.903050423E0,2.356285055E1
3.167567865E0,2.041949987E0,-2.251305199E1,-4.896000385E0,2.312958904E1
3.170066329E0,1.233000040E0,-2.205000114E1,-5.152050018E0,2.267744384E1
3.172565019E0,5.149500370E-1,-2.168400192E1,-5.518050194E0,2.238101854E1
3.175063483E0,-1.999500096E-1,-2.126805115E1,-5.809950352E0,2.204825396E1
3.177562019E0,-9.330000281E-1,-2.092800140E1,-6.094950199E0,2.181742766E1
3.180060498E0,-1.491000056E0,-2.051595116E1,-6.490050316E0,2.156961025E1
3.182558959E0,-1.809000134E0,-2.007495117E1,-6.853950500E0,2.128973423E1
3.185057650E0,-2.106000185E0,-1.971600151E1,-7.074000359E0,2.105225483E1
3.187556113E0,-2.317050219E0,-1.942395020E1,-7.045950413E0,2.079192103E1
3.190054654E0,-2.566050053E0,-1.918005180E1,-7.014000416E0,2.058288614E1
3.192553117E0,-3.066000223E0,-1.906995010E1,-7.036050320E0,2.055649188E1
3.195051579E0,-3.858000278E0,-1.906005096E1,-6.994950294E0,2.066637459E1
3.197550269E0,-4.537950039E0,-1.897605133E1,-6.970950127E0,2.071901688E1
3.200048733E0,-4.969050407E0,-1.881300163E1,-6.921000481E0,2.065237856E1
3.202547245E0,-5.251950264E0,-1.869105148E1,-7.012050152E0,2.064236504E1
3.205045709E0,-5.338050365E0,-1.851705170E1,-7.201050282E0,2.057258152E1
3.207544399E0,-5.596950054E0,-1.832505035E1,-7.468950272E0,2.056498331E1
3.210042862E0,-6.006000519E0,-1.811895180E1,-7.623000145E0,2.055428393E1
3.212541310E0,-6.496950150E0,-1.779104996E1,-7.398000240E0,2.033377061E1
3.215039846E0,-6.918000221E0,-1.741800117E1,-7.243950367E0,2.009279246E1
3.217538310E0,-7.275000572E0,-1.701795006E1,-7.050000191E0,1.980501856E1
3.220037000E0,-7.489950180E0,-1.658895111E1,-6.864000320E0,1.945269012E1
3.222535464E0,-7.558050156E0,-1.608600044E1,-6.631050110E0,1.896982757E1
3.225033985E0,-7.531050205E0,-1.552905083E1,-6.445050240E0,1.842299675E1
3.227532449E0,-7.464000225E0,-1.486305046E1,-6.198000431E0,1.774927541E1
3.230031139E0,-7.464000225E0,-1.408005047E1,-5.797950268E0,1.695804670E1
3.232529603E0,-7.488000393E0,-1.323300076E1,-5.506050110E0,1.617093215E1
3.235028139E0,-7.486050129E0,-1.243800068E1,-4.969950199E0,1.534422407E1
3.237526603E0,-7.375950336E0,-1.173900032E1,-4.534049988E0,1.458651367E1
3.240025293E0,-7.158000469E0,-1.111095047E1,-3.888000250E0,1.377703658E1
3.242523757E0,-6.838950157E0,-1.047405052E1,-3.097950220E0,1.288698061E1
3.245022293E0,-6.391950130E0,-9.871050835E0,-2.077950001E0,1.194204954E1
3.247520757E0,-5.974950314E0,-9.343950272E0,-1.101000071E0,1.114547617E1
3.250019228E0,-5.569950104E0,-8.830050468E0,-3.040500283E-1,1.044445220E1
3.252517918E0,-5.032050133E0,-8.226000786E0,5.170500278E-1,9.656912457E0
3.255016382E0,-4.336950302E0,-7.585050583E0,1.246950030E0,8.825928543E0
3.257514919E0,-3.586050272E0,-6.913950443E0,1.822050095E0,7.998895788E0
3.260013382E0,-2.905950069E0,-6.355950356E0,2.290950060E0,7.354665384E0
3.262512062E0,-2.226000071E0,-5.784000397E0,2.779050112E0,6.792117227E0
3.265010526E0,-1.788000107E0,-5.253000259E0,3.262950182E0,6.437219897E0
3.267509062E0,-1.213050008E0,-4.750050068E0,3.610050201E0,6.088261527E0
3.270007526E0,-5.449500084E-1,-4.126950264E0,3.787050247E0,5.627649471E0
3.272506216E0,-5.895000324E-2,-3.546000242E0,3.835050106E0,5.223523919E0
3.275004670E0,3.400500119E-1,-3.016950130E0,3.751050234E0,4.825764184E0
3.277503206E0,8.040000200E-1,-2.443950176E0,3.466050148E0,4.316574119E0
3.280001670E0,1.204050064E0,-1.879050136E0,3.117000103E0,3.833569565E0
3.282500131E0,1.609050035E0,-1.410000086E0,2.806050062E0,3.528605845E0
3.284998822E0,2.088000059E0,-1.075049996E0,2.262000084E0,3.260693350E0
3.287497270E0,2.692950010E0,-8.430000544E-1,1.831050038E0,3.363833095E0
3.289995807E0,3.280050039E0,-6.750000119E-1,1.441050053E0,3.645679433E0
3.292494270E0,3.883050203E0,-6.340500116E-1,9.840000272E-1,4.055657080E0
3.294992961E0,4.549050331E0,-6.700500250E-1,5.890500546E-1,4.635709861E0
3.297491424E0,5.212050438E0,-8.020500541E-1,2.290500104E-1,5.278372662E0
3.299989956E0,5.952000141E0,-8.380500674E-1,-2.220000178E-1,6.014808193E0
3.302488419E0,6.676950455E0,-7.830000520E-1,-5.740500093E-1,6.747169026E0
3.304986881E0,7.249950409E0,-6.799500585E-1,-9.210000634E-1,7.339778888E0
3.307485571E0,7.579950333E0,-6.180000305E-1,-1.170000076E0,7.694574144E0
3.309984034E0,7.815000534E0,-6.460500360E-1,-1.335000038E0,7.954485470E0
3.312482557E0,8.056050301E0,-6.270000339E-1,-1.411950111E0,8.202845763E0
3.314981020E0,8.419950485E0,-5.430000424E-1,-1.462050080E0,8.563177311E0
3.317479711E0,8.751000404E0,-4.570500255E-1,-1.458000064E0,8.883392763E0
3.319978174E0,8.940000534E0,-4.240500331E-1,-1.125000000E0,9.020479642E0
3.322476636E0,9.076050758E0,-3.400500119E-1,-1.045950055E0,9.142447314E0
3.324975162E0,9.072000504E0,-3.210000098E-1,-7.489500642E-1,9.108521304E0
3.327473855E0,8.751000404E0,-4.240500331E-1,-2.269500047E-1,8.764207483E0
3.329972318E0,8.368050575E0,-5.029500127E-1,7.095000148E-2,8.383451738E0
3.332470855E0,7.759950161E0,-6.649500132E-1,2.800500095E-1,7.793421138E0
3.334969313E0,6.931050301E0,-8.329500556E-1,4.759500325E-1,6.997127446E0
3.337468004E0,5.668950081E0,-1.162950039E0,1.065000057E0,5.884188384E0
3.339966467E0,4.525050163E0,-1.405050039E0,1.507950068E0,4.972339288E0
3.342465004E0,3.511950254E0,-1.527000070E0,1.719000101E0,4.197676161E0
3.344963467E0,2.527950048E0,-1.603950024E0,1.783050060E0,3.484602509E0
3.347461939E0,1.750050068E0,-1.543950081E0,1.501050115E0,2.774816848E0
3.349960629E0,9.169500470E-1,-1.489050031E0,1.285050035E0,2.170120037E0
3.352459092E0,8.895000070E-2,-1.396050096E0,1.144050002E0,1.807129873E0
3.354957629E0,-4.470000267E-1,-1.240050077E0,6.580500603E-1,1.473283103E0
3.357456103E0,-1.150950074E0,-1.150950074E0,3.370500207E-1,1.662219860E0
3.359954793E0,-1.447950125E0,-9.720000625E-1,-1.099500060E-1,1.747407419E0
3.362453256E0,-1.962000132E0,-9.070500135E-1,-3.109500110E-1,2.183775207E0
3.364951793E0,-2.314050198E0,-8.260500431E-1,-4.500000179E-1,2.497936550E0
3.367450256E0,-2.527050018E0,-7.879500389E-1,-6.240000129E-1,2.719599801E0
3.369948713E0,-2.913000107E0,-7.950000167E-1,-6.550500393E-1,3.089771060E0
3.372447403E0,-3.127950191E0,-7.849500179E-1,-7.800000310E-1,3.317923896E0
3.374945867E0,-3.415950060E0,-7.420500517E-1,-7.849500179E-1,3.582666552E0
3.377444403E0,-3.576000214E0,-6.340500116E-1,-7.939500213E-1,3.717546715E0
3.379942867E0,-3.874950171E0,-5.359500051E-1,-6.439500451E-1,3.964486460E0
3.382441542E0,-4.189050198E0,-3.610500097E-1,-5.209500194E-1,4.236730767E0
3.384940006E0,-4.495050430E0,-1.870500147E-1,-4.300500154E-1,4.519447875E0
3.387438542E0,-4.797000408E0,3.000000119E-2,-2.130000144E-1,4.801820688E0
3.389937006E0,-5.167950153E0,2.839500010E-1,-1.860000044E-1,5.179086058E0
3.392435467E0,-5.628000259E0,5.620500445E-1,-6.900000572E-2,5.656416549E0
3.394934178E0,-5.985000134E0,9.210000634E-1,-7.050000131E-3,6.055453527E0
3.397432641E0,-6.150000095E0,1.297050118E0,1.290000081E-1,6.286611264E0
3.399931178E0,-6.217050076E0,1.687050104E0,2.440500110E-1,6.446503712E0
3.402429641E0,-6.157050133E0,2.053050041E0,3.850500286E-1,6.501733948E0
3.404928103E0,-5.910000324E0,2.448000193E0,5.719500184E-1,6.422455574E0
3.407426874E0,-5.628000259E0,2.808000088E0,7.350000143E-1,6.332414740E0
3.409925337E0,-5.343000412E0,3.174000263E0,9.480000734E-1,6.286543980E0
3.412424028E0,-5.095950127E0,3.492000103E0,1.162950039E0,6.286113681E0
3.414922260E0,-4.849950314E0,3.859050274E0,1.339950085E0,6.341116092E0
3.417420951E0,-4.579050064E0,4.157999992E0,1.513050079E0,6.367572848E0
3.419919501E0,-4.368000031E0,4.378050327E0,1.570050120E0,6.380580406E0
3.422417963E0,-4.225049973E0,4.488000393E0,1.630050063E0,6.375755485E0
3.424916653E0,-4.074000359E0,4.524000168E0,1.606050134E0,6.296304747E0
3.427415117E0,-3.868050098E0,4.500000000E0,1.558050036E0,6.135090177E0
3.429913578E0,-3.564000130E0,4.435950279E0,1.632000089E0,5.919727704E0
3.432412115E0,-3.195000172E0,4.378050327E0,1.810050130E0,5.714160677E0
3.434910578E0,-2.818950176E0,4.282050133E0,1.905000091E0,5.469136932E0
3.437409269E0,-2.446050167E0,4.194000244E0,1.927050114E0,5.223631075E0
3.439907732E0,-2.056050062E0,4.084050179E0,1.860000134E0,4.936234214E0
3.442406269E0,-1.689000130E0,3.892050266E0,1.750050068E0,4.589493649E0
3.444904732E0,-1.155000091E0,3.705000162E0,1.594050050E0,4.195479349E0
3.447403422E0,-5.659500360E-1,3.487950087E0,1.345050097E0,3.780906639E0
3.449901886E0,4.305000231E-2,3.234000206E0,9.720000625E-1,3.377187403E0
3.452400422E0,7.159500122E-1,2.893950224E0,4.110000134E-1,3.009394180E0
3.454898886E0,1.398000121E0,2.467950106E0,-2.359500080E-1,2.846200005E0
3.457397353E0,2.025000095E0,1.894950032E0,-8.130000234E-1,2.890057101E0
3.459896043E0,2.349000216E0,1.093050003E0,-1.137000084E0,2.829369102E0
3.462394506E0,2.286000013E0,5.700000376E-2,-1.069950104E0,2.524646170E0
3.464893043E0,1.903050065E0,-1.234950066E0,-7.249500155E-1,2.381649374E0
3.467391511E0,1.342950106E0,-2.653050184E0,-4.020000100E-1,3.000632312E0
3.469890202E0,6.700500250E-1,-4.234950066E0,-5.839500427E-1,4.327212353E0
3.472388665E0,-2.295000106E-2,-5.890050411E0,-1.663050056E0,6.120372214E0
3.474887127E0,-4.300500154E-1,-7.551000595E0,-3.627000093E0,8.387948657E0
3.477385663E0,-5.380499959E-1,-9.442950249E0,-4.378050327E0,1.042238609E1
3.479884137E0,-1.170000076E0,-1.268895054E1,-2.158950090E0,1.292437354E1
3.482382827E0,-3.375000238E0,-1.932105064E1,1.129950047E0,1.964612969E1
3.484881368E0,-6.241050243E0,-2.751600075E1,2.545050144E0,2.832945968E1
3.487379829E0,-8.463000298E0,-3.396195221E1,9.120000601E-1,3.501240232E1
3.489878519E0,-8.860050201E0,-3.789000320E1,-2.439000130E0,3.898847976E1
3.492376993E0,-8.713950157E0,-4.157505035E1,-5.515950203E0,4.283507261E1
3.494875529E0,-8.824049950E0,-4.532700348E1,-7.113000393E0,4.672254142E1
3.497373993E0,-8.532000542E0,-4.839405060E1,-8.254950523E0,4.982894114E1
3.499872683E0,-7.285050392E0,-4.997205353E1,-8.149050713E0,5.115354455E1
3.502371147E0,-5.271000385E0,-4.982295227E1,-6.837000370E0,5.056534972E1
3.504869608E0,-3.169050217E0,-4.828800201E1,-4.768950462E0,4.862629851E1
3.507368145E0,-1.033050060E0,-4.552305222E1,-2.443950176E0,4.560031105E1
3.509866608E0,1.204050064E0,-4.178100204E1,1.980000138E-1,4.179881664E1
3.512365299E0,3.522000074E0,-3.751905060E1,2.272050142E0,3.775242845E1
3.514863761E0,5.631000042E0,-3.362895203E1,3.531000137E0,3.427947692E1
3.517362223E0,7.525050163E0,-3.032205200E1,3.852000237E0,3.147842314E1
3.519860759E0,9.190950394E0,-2.755500221E1,3.234000206E0,2.922687930E1
3.522359223E0,1.052505016E1,-2.570895195E1,1.407000065E0,2.781558089E1
3.524857918E0,1.185600090E1,-2.465805054E1,-7.660500407E-1,2.737098914E1
3.527356382E0,1.327305031E1,-2.435100174E1,-2.812950134E0,2.787575719E1
3.529854918E0,1.461900043E1,-2.466000175E1,-4.471950054E0,2.901429299E1
3.532353382E0,1.582605076E1,-2.526105118E1,-5.275950432E0,3.027243370E1
3.534852072E0,1.684800148E1,-2.586705208E1,-5.482050419E0,3.135302878E1
3.537350531E0,1.764495087E1,-2.612805176E1,-5.415000439E0,3.198971099E1
3.539848992E0,1.816695023E1,-2.611605072E1,-5.611050129E0,3.230433515E1
3.542347529E0,1.819605064E1,-2.586000061E1,-6.387000084E0,3.225879199E1
3.544845992E0,1.732200050E1,-2.556000137E1,-7.516950130E0,3.177845042E1
3.547344682E0,1.550505066E1,-2.524200058E1,-8.695050240E0,3.087343661E1
3.549843137E0,1.292400074E1,-2.490705109E1,-9.520950317E0,2.963173103E1
3.552341673E0,1.008195019E1,-2.448300171E1,-9.733950615E0,2.821015574E1
3.554840137E0,7.117950439E0,-2.391105080E1,-9.375000000E0,2.665134506E1
3.557338827E0,4.341000080E0,-2.317605019E1,-8.647050858E0,2.511463861E1
3.559837291E0,2.811000109E0,-2.245995140E1,-8.178000450E0,2.406721483E1
3.562335827E0,2.344050169E0,-2.187300110E1,-8.001000404E0,2.340809167E1
3.564834291E0,2.004000187E0,-2.144700050E1,-7.468950272E0,2.279857595E1
3.567332981E0,1.609050035E0,-2.121705055E1,-6.535950184E0,2.225917611E1
3.569831445E0,1.101000071E0,-2.122395134E1,-5.406000137E0,2.192927607E1
3.572329990E0,3.930000067E-1,-2.153805161E1,-4.434000015E0,2.199323696E1
3.574828454E0,-3.370500207E-1,-2.210100174E1,-3.775050163E0,2.242362335E1
3.577327144E0,-1.051950097E0,-2.270595169E1,-3.409050226E0,2.298452663E1
3.579825608E0,-1.656000137E0,-2.323605156E1,-3.181050062E0,2.351117836E1
3.582324069E0,-2.245050192E0,-2.362095070E1,-3.010950089E0,2.391767929E1
3.584822611E0,-2.761950016E0,-2.385300064E1,-2.844000101E0,2.418020562E1
3.587321074E0,-3.150000095E0,-2.388195038E1,-2.626050234E0,2.423151242E1
3.589819764E0,-3.399000168E0,-2.371395111E1,-2.394000053E0,2.407562908E1
3.592318228E0,-3.495000124E0,-2.340300179E1,-2.050950050E0,2.375125080E1
3.594816764E0,-3.379950047E0,-2.292705154E1,-1.630050063E0,2.323210748E1
3.597315242E0,-3.090000153E0,-2.236395073E1,-1.254000068E0,2.261121203E1
3.599813932E0,-2.617950201E0,-2.170995140E1,-9.210000634E-1,2.188661450E1
3.602312396E0,-2.107950211E0,-2.104005051E1,-6.990000606E-1,2.115693221E1
3.604810932E0,-1.716000080E0,-2.039100075E1,-6.750000119E-1,2.047420799E1
3.607309396E0,-1.375950098E0,-1.971105003E1,-8.299500346E-1,1.977643924E1
3.609807857E0,-1.167000055E0,-1.903395081E1,-1.101000071E0,1.910144951E1
3.612306548E0,-1.122000098E0,-1.839405060E1,-1.465050101E0,1.848638292E1
3.614805011E0,-1.147950053E0,-1.778595161E1,-1.768950105E0,1.791052899E1
3.617303548E0,-1.195950031E0,-1.722105026E1,-1.977000117E0,1.737536757E1
3.619802006E0,-1.213050008E0,-1.666305161E1,-2.149049997E0,1.684479727E1
3.622300697E0,-1.246050000E0,-1.609395027E1,-2.178000212E0,1.628838730E1
3.624799160E0,-1.251000047E0,-1.554105091E1,-2.121000051E0,1.573492630E1
3.627297697E0,-1.263000011E0,-1.499700069E1,-2.008050203E0,1.518346023E1
3.629796160E0,-1.242000103E0,-1.449900055E1,-1.932000041E0,1.467978901E1
3.632294854E0,-1.186950088E0,-1.400595093E1,-1.828950047E0,1.417464533E1
3.634793318E0,-1.237050056E0,-1.352205086E1,-1.644000053E0,1.367767847E1
3.637291854E0,-1.300950050E0,-1.300995064E1,-1.503000021E0,1.316093825E1
3.639790318E0,-1.324950099E0,-1.248105049E1,-1.419000030E0,1.263113911E1
3.642289008E0,-1.387950063E0,-1.191105080E1,-1.347000122E0,1.206706036E1
3.644787472E0,-1.495050073E0,-1.131000042E1,-1.209000111E0,1.147226941E1
3.647286008E0,-1.648950100E0,-1.072305012E1,-1.074000001E0,1.090212439E1
3.649784472E0,-1.857000113E0,-1.016595078E1,-9.760500193E-1,1.038015791E1
3.652282933E0,-1.969050050E0,-9.634050369E0,-8.490000367E-1,9.869796638E0
3.654781624E0,-2.070000172E0,-9.093000412E0,-6.790500283E-1,9.350329735E0
3.657280087E0,-2.080049992E0,-8.521050453E0,-5.209500194E-1,8.786711428E0
3.659778624E0,-2.044049978E0,-7.933950424E0,-4.519500136E-1,8.205484048E0
3.662277087E0,-1.977000117E0,-7.278000355E0,-2.680500150E-1,7.546500476E0
3.664775778E0,-1.825950146E0,-6.688950539E0,-1.099500060E-1,6.934568642E0
3.667274241E0,-1.663050056E0,-6.076050282E0,1.069500074E-1,6.300441319E0
3.669772788E0,-1.456950068E0,-5.451000214E0,3.490500152E-1,5.653135656E0
3.672271251E0,-1.282050014E0,-4.876950264E0,5.809500217E-1,5.076002270E0
3.674769713E0,-1.105050087E0,-4.282950401E0,7.470000386E-1,4.485845393E0
3.677268403E0,-8.869500160E-1,-3.687000275E0,9.499500394E-1,3.909354989E0
3.679766867E0,-6.330000162E-1,-3.024000168E0,1.084050059E0,3.274206861E0
3.682265389E0,-3.390000165E-1,-2.440050125E0,1.351950049E0,2.810077323E0
3.684763853E0,-3.000000119E-2,-1.884000063E0,1.435950041E0,2.369031185E0
3.687262543E0,2.080500126E-1,-1.317000031E0,1.764000058E0,2.211214620E0
3.689761006E0,3.499500155E-1,-7.729500532E-1,1.873950124E0,2.057086742E0
3.692259552E0,5.359500051E-1,-2.269500047E-1,1.896000147E0,1.983321777E0
3.694758015E0,6.850500107E-1,2.790000141E-1,1.792950034E0,1.939537148E0
3.697256706E0,7.009500265E-1,7.170000076E-1,1.636950135E0,1.919642075E0
3.699755169E0,5.790000558E-1,1.004999995E0,1.501050115E0,1.896949525E0
3.702253706E0,5.410500169E-1,1.326000094E0,1.173000097E0,1.851199773E0
3.704752155E0,5.749500394E-1,1.551000118E0,9.930000305E-1,1.929305050E0
3.707250846E0,6.150000095E-1,1.870950103E0,7.579500079E-1,2.110252950E0
3.709749309E0,5.839500427E-1,2.116050005E0,7.200000286E-1,2.310208934E0
3.712247846E0,6.510000229E-1,2.389050007E0,7.540500164E-1,2.588426625E0
3.714746309E0,7.129500508E-1,2.668950081E0,6.000000238E-1,2.826940455E0
3.717244771E0,8.740500212E-1,2.917950153E0,5.770500302E-1,3.100223101E0
3.719743461E0,1.092000008E0,3.160050154E0,4.930500090E-1,3.379567916E0
3.722241925E0,1.297950029E0,3.274050236E0,4.810500145E-1,3.554643209E0
3.724740461E0,1.519950032E0,3.310050249E0,3.829500079E-1,3.662421530E0
3.727238925E0,1.723950028E0,3.262050152E0,4.420500100E-1,3.715963281E0
3.729737624E0,1.899000049E0,3.138000250E0,4.020000100E-1,3.689830723E0
3.732236087E0,2.056950092E0,2.905950069E0,5.410500169E-1,3.601156010E0
3.734734624E0,2.136000156E0,2.629950047E0,5.530500412E-1,3.432928526E0
3.737233087E0,2.185950041E0,2.305050135E0,5.569500327E-1,3.225186358E0
3.739731540E0,2.167050123E0,1.941000104E0,5.239500403E-1,2.956029649E0
3.742230230E0,2.185950041E0,1.612950087E0,5.050500035E-1,2.763161426E0
3.744728694E0,2.200050116E0,1.266000032E0,4.710000157E-1,2.581630804E0
3.747227230E0,2.155050039E0,9.570000172E-1,4.900500178E-1,2.408368478E0
3.749725685E0,2.109000206E0,6.120000482E-1,4.140000343E-1,2.234686098E0
3.752224146E0,2.002050161E0,2.629500031E-1,3.060000241E-1,2.042298599E0
3.754722837E0,1.896000147E0,-6.405000389E-2,2.530499995E-1,1.913884339E0
3.757221300E0,1.723950028E0,-3.640500307E-1,9.105000645E-2,1.764320331E0
3.759719837E0,1.494000077E0,-6.940500140E-1,-8.100000024E-2,1.649334003E0
3.762218290E0,1.257000089E0,-1.003050089E0,-2.770500183E-1,1.631844177E0
3.764716981E0,1.012950063E0,-1.273950100E0,-4.830000103E-1,1.697735461E0
3.767215521E0,7.830000520E-1,-1.495950103E0,-6.580500603E-1,1.812177054E0
3.769713983E0,6.220500469E-1,-1.695000052E0,-8.059500456E-1,1.977252365E0
3.772212673E0,4.120500088E-1,-1.906050086E0,-9.450000525E-1,2.166988057E0
3.774711123E0,1.990500093E-1,-2.053950071E0,-1.029000044E0,2.305899584E0
3.777209659E0,1.005000062E-2,-2.143050194E0,-1.126950026E0,2.421318132E0
3.779708123E0,-1.930500120E-1,-2.185950041E0,-1.209000111E0,2.505459470E0
3.782206584E0,-3.439500034E-1,-2.176050186E0,-1.278000116E0,2.546915844E0
3.784705274E0,-4.800000191E-1,-2.161950111E0,-1.390050054E0,2.614702173E0
3.787203733E0,-5.710500479E-1,-2.125950098E0,-1.470000029E0,2.647010023E0
3.789702269E0,-6.769500375E-1,-2.100000143E0,-1.596000075E0,2.723137564E0
3.792200733E0,-7.840500474E-1,-2.056050062E0,-1.687050104E0,2.772762952E0
3.794699423E0,-9.040500522E-1,-1.981950045E0,-1.729950070E0,2.781754792E0
3.797197887E0,-1.033050060E0,-1.903050065E0,-1.774050117E0,2.799293803E0
3.799696348E0,-1.150950074E0,-1.834050059E0,-1.864950061E0,2.857702648E0
3.802194885E0,-1.306050062E0,-1.744950056E0,-1.893000126E0,2.886878408E0
3.804693348E0,-1.423950076E0,-1.669050097E0,-1.944000125E0,2.931296391E0
3.807192039E0,-1.528950095E0,-1.575000048E0,-2.001000166E0,2.970238241E0
3.809690516E0,-1.627050042E0,-1.462950110E0,-2.002950191E0,2.966365509E0
3.812189053E0,-1.740000129E0,-1.345050097E0,-2.013000011E0,2.981430740E0
3.814687516E0,-1.788000107E0,-1.198950052E0,-1.996050119E0,2.935752321E0
3.817186207E0,-1.870950103E0,-1.044000030E0,-1.932000041E0,2.884963519E0
3.819684670E0,-1.918950081E0,-8.710500598E-1,-1.860000134E0,2.810818051E0
3.822183198E0,-1.953000069E0,-7.159500122E-1,-1.726050138E0,2.702969250E0
3.824681661E0,-2.029050112E0,-5.860500336E-1,-1.600950122E0,2.650196274E0
3.827180351E0,-2.104050159E0,-4.480500221E-1,-1.390050054E0,2.561252632E0
3.829678815E0,-2.151000023E0,-2.850000262E-1,-1.209000111E0,2.483889567E0
3.832177351E0,-2.185050011E0,-1.579500139E-1,-1.006950021E0,2.411086913E0
3.834675810E0,-2.154000044E0,-4.500000179E-2,-7.900500298E-1,2.294759299E0
3.837174500E0,-2.130000114E0,7.605000585E-2,-5.860500336E-1,2.210461204E0
3.839672964E0,-2.062950134E0,1.450500041E-1,-4.020000100E-1,2.106752659E0
3.842171500E0,-2.005050182E0,2.190000117E-1,-2.250000089E-1,2.029485709E0
3.844669964E0,-1.926000118E0,2.290500104E-1,-5.505000427E-2,1.940353284E0
3.847168648E0,-1.810950041E0,2.220000178E-1,8.805000782E-2,1.826629919E0
3.849667112E0,-1.699050069E0,2.290500104E-1,2.200500071E-1,1.728484032E0
3.852165573E0,-1.572000027E0,1.980000138E-1,3.040500283E-1,1.613330254E0
3.854664110E0,-1.450050116E0,1.600500047E-1,4.350000322E-1,1.522329258E0
3.857162573E0,-1.318050027E0,1.140000075E-1,4.639500082E-1,1.401963439E0
3.859661245E0,-1.135950089E0,6.599999964E-2,4.830000103E-1,1.236134141E0
3.862159708E0,-9.420000315E-1,4.005000368E-2,4.470000267E-1,1.043444817E0
3.864658170E0,-7.390500307E-1,-2.100000158E-2,4.210500121E-1,8.508343321E-1
3.867156706E0,-5.620500445E-1,-2.100000158E-2,3.349500299E-1,6.546241480E-1
3.869655170E0,-3.889500201E-1,-6.405000389E-2,2.220000178E-1,4.524030603E-1
3.872153869E0,-2.620500028E-1,-7.905000448E-2,3.299999982E-2,2.756956786E-1
3.874652333E0,-5.205000192E-2,-8.400000632E-2,-1.480500102E-1,1.780000261E-1
3.877150869E0,1.050000042E-1,-8.805000782E-2,-3.660000265E-1,3.908117502E-1
3.879649561E0,1.939500123E-1,-7.905000448E-2,-5.809500217E-1,6.175503528E-1
3.882148025E0,3.520500064E-1,-4.500000179E-2,-7.320000529E-1,8.135037091E-1
3.884646472E0,5.050500035E-1,-2.400000021E-2,-8.689500690E-1,1.005348561E0
3.887145009E0,6.660000086E-1,4.200000316E-2,-1.012050033E0,1.212256277E0
3.889643701E0,7.999500632E-1,9.705000371E-2,-1.114950061E0,1.375664365E0
3.892142165E0,8.160000443E-1,1.140000075E-1,-1.209000111E0,1.463056165E0
3.894640636E0,7.639500499E-1,1.330500096E-1,-1.243950009E0,1.465855931E0
3.897139173E0,6.750000119E-1,1.690500081E-1,-1.204050064E0,1.390661525E0
3.899637636E0,6.220500469E-1,2.029500157E-1,-1.261050105E0,1.420697835E0
3.902136327E0,5.989500284E-1,2.359500080E-1,-1.350000024E0,1.495631508E0
3.904634790E0,5.460000038E-1,2.650500238E-1,-1.470000029E0,1.590367128E0
3.907133233E0,4.840500355E-1,3.150000274E-1,-1.630050063E0,1.729333011E0
3.909631769E0,3.949500322E-1,3.679500222E-1,-1.924050093E0,1.998334683E0
3.912130233E0,2.800500095E-1,4.230000079E-1,-2.250000000E0,2.306481523E0
3.914628923E0,1.150500029E-1,4.540500343E-1,-2.614050150E0,2.655683739E0
3.917127363E0,-3.495000303E-2,4.399500191E-1,-2.971050024E0,3.003650407E0
3.919625899E0,-1.429500133E-1,3.940500319E-1,-3.318000078E0,3.344373582E0
3.922124363E0,-2.359500080E-1,1.740000099E-1,-3.643050194E0,3.654827373E0
3.924623053E0,-2.599500120E-1,-1.669500023E-1,-3.997950077E0,4.009869216E0
3.927121516E0,-2.290500104E-1,-7.399500608E-1,-4.536000252E0,4.601661470E0
3.929620077E0,-1.090500057E-1,-1.519950032E0,-5.245050430E0,5.461931345E0
3.932118540E0,2.269500047E-1,-2.499000072E0,-6.049950123E0,6.549687333E0
3.934617231E0,7.950000167E-1,-3.694050074E0,-6.933000565E0,7.895855103E0
3.937115694E0,1.708950043E0,-5.121000290E0,-8.032050133E0,9.677757155E0
3.939614156E0,3.258000135E0,-6.795000553E0,-8.542050362E0,1.139092717E1
3.942112692E0,5.161950111E0,-8.680950165E0,-6.550050259E0,1.203776487E1
3.944611156E0,6.531000137E0,-1.104705048E1,-2.169000149E0,1.301521604E1
3.947109846E0,7.141950130E0,-1.440105057E1,2.209050179E0,1.622583162E1
3.949608310E0,7.278000355E0,-1.853595161E1,4.125000000E0,2.033633242E1
3.952106832E0,7.353000164E0,-2.285505104E1,3.483000278E0,2.426007544E1
3.954605296E0,7.408050537E0,-2.646795082E1,1.675050020E0,2.753611131E1
3.957103986E0,7.147050381E0,-2.925900078E1,-5.260500312E-1,3.012384744E1
3.959602450E0,6.376050472E0,-3.223305130E1,-2.353049994E0,3.294177378E1
3.962100986E0,5.278950214E0,-3.592695236E1,-4.060050011E0,3.653898230E1
3.964599464E0,4.171050072E0,-3.968895340E1,-4.630050182E0,4.017521681E1
3.967098154E0,3.009000063E0,-4.280295181E1,-4.069950104E0,4.310117468E1
3.969596617E0,1.639950037E0,-4.475700378E1,-2.563950062E0,4.486036852E1
3.972095154E0,2.059500068E-1,-4.546305084E1,-1.291950107E0,4.548187048E1
3.974593617E0,-6.769500375E-1,-4.526895142E1,-1.450050116E0,4.529722805E1
3.977092079E0,-5.659500360E-1,-4.426605225E1,-2.736000061E0,4.435413597E1
3.979590769E0,8.910000324E-1,-4.274805069E1,-4.933950424E0,4.304106859E1
3.982089233E0,2.035050154E0,-4.161795044E1,-6.742050171E0,4.220960161E1
3.984587769E0,2.422950029E0,-4.073505020E1,-6.415950298E0,4.130834565E1
3.987086233E0,2.824950218E0,-3.916200256E1,-4.933950424E0,3.957254926E1
3.989584923E0,3.607950211E0,-3.668100357E1,-3.961950302E0,3.707034364E1
3.992083387E0,4.288050175E0,-3.383700180E1,-3.853950262E0,3.432467040E1
3.994581923E0,4.846050262E0,-3.116295242E1,-4.065000057E0,3.179839669E1
3.997080387E0,5.203050137E0,-2.879295158E1,-4.108050346E0,2.954626659E1
3.999578848E0,5.229000092E0,-2.674800110E1,-3.982950211E0,2.754381777E1
4.002077597E0,4.879050255E0,-2.506005096E1,-3.670050144E0,2.579303305E1
4.004576060E0,4.081950188E0,-2.375295067E1,-3.226950169E0,2.431621250E1
4.007074522E0,2.872950077E0,-2.295105171E1,-2.785950184E0,2.329734181E1
4.009573212E0,1.381050110E0,-2.269395065E1,-2.491950035E0,2.287209021E1
4.012071684E0,1.395000052E-2,-2.277795029E1,-2.418000221E0,2.290593676E1
4.014570221E0,-6.499500275E-1,-2.286705017E1,-2.455950022E0,2.300774020E1
4.017068684E0,-9.040500522E-1,-2.300595093E1,-2.322000027E0,2.314050061E1
4.019567146E0,-1.167000055E0,-2.329095078E1,-1.989000082E0,2.340483707E1
4.022065836E0,-1.510050058E0,-2.369295120E1,-1.501050115E0,2.378842869E1
4.024564300E0,-1.969050050E0,-2.429400063E1,-1.105949998E0,2.439874484E1
4.027062836E0,-2.520000219E0,-2.490900040E1,-7.969500422E-1,2.504882894E1
4.029561300E0,-3.054000139E0,-2.545305061E1,-5.879999995E-1,2.564235649E1
4.032059990E0,-3.478050232E0,-2.580900192E1,-5.359500051E-1,2.604781480E1
4.034558454E0,-3.862950087E0,-2.605095100E1,-6.199500561E-1,2.634309719E1
4.037056990E0,-4.129050255E0,-2.627895164E1,-8.689500690E-1,2.661554865E1
4.039555454E0,-4.309050083E0,-2.642505074E1,-1.129950047E0,2.679791048E1
4.042053934E0,-4.431000233E0,-2.661105156E1,-1.347000122E0,2.701103918E1
4.044552625E0,-4.447050095E0,-2.679300117E1,-1.549050093E0,2.720368951E1
4.047051088E0,-4.390050411E0,-2.699895096E1,-1.647000074E0,2.740307473E1
4.049549625E0,-4.336950302E0,-2.714505196E1,-1.644000053E0,2.753844077E1
4.052048088E0,-4.300950050E0,-2.723595047E1,-1.654050112E0,2.762301669E1
4.054546778E0,-4.371000290E0,-2.715195084E1,-1.738050103E0,2.755639483E1
4.057045223E0,-4.384950161E0,-2.699400139E1,-2.164050102E0,2.743331937E1
4.059543759E0,-4.390050411E0,-2.683395195E1,-2.712000132E0,2.732560090E1
4.062042223E0,-4.579050064E0,-2.689605141E1,-3.198000193E0,2.746984685E1
4.064540913E0,-4.786950111E0,-2.690295219E1,-3.547950268E0,2.755488485E1
4.067039391E0,-4.845000267E0,-2.688405037E1,-3.841950178E0,2.758598871E1
4.069537927E0,-4.756050110E0,-2.679600143E1,-4.000050068E0,2.750720099E1
4.072036391E0,-4.570050240E0,-2.659905052E1,-4.108050346E0,2.729965065E1
4.074535081E0,-4.309050083E0,-2.631195068E1,-4.036050320E0,2.696620781E1
4.077033545E0,-3.957000256E0,-2.584800148E1,-3.861000299E0,2.643263806E1
4.079532081E0,-3.499050140E0,-2.514600182E1,-3.667050123E0,2.565174489E1
4.082030545E0,-3.016050100E0,-2.422395134E1,-3.505050182E0,2.466134128E1
4.084529006E0,-2.647050142E0,-2.316900063E1,-3.301050186E0,2.355220577E1
4.087027697E0,-2.379000187E0,-2.212005043E1,-3.133050203E0,2.246713770E1
4.089526160E0,-2.178000212E0,-2.110500145E1,-3.028050184E0,2.143207547E1
4.092024711E0,-1.954950094E0,-2.014905167E1,-2.986950159E0,2.046284399E1
4.094523174E0,-1.720050097E0,-1.922504997E1,-2.961000204E0,1.952763788E1
4.097021865E0,-1.594050050E0,-1.832700157E1,-2.664000034E0,1.858808431E1
4.099520328E0,-1.600950122E0,-1.729995155E1,-2.077950001E0,1.749769245E1
4.102018865E0,-1.384950042E0,-1.627995110E1,-1.903050065E0,1.644920952E1
4.104517328E0,-1.158000112E0,-1.521000099E1,-1.977000117E0,1.538160017E1
4.107015790E0,-1.072050095E0,-1.418100071E1,-2.025000095E0,1.436491204E1
4.109514480E0,-1.063950062E0,-1.319400024E1,-1.912050128E0,1.337421279E1
4.112013020E0,-1.098000050E0,-1.217700100E1,-1.873950124E0,1.236918132E1
4.114511459E0,-1.024049997E0,-1.114005089E1,-1.900050044E0,1.134722884E1
4.117010149E0,-9.520500302E-1,-1.013205051E1,-1.756950140E0,1.032723199E1
4.119508613E0,-9.520500302E-1,-9.043050766E0,-1.728000045E0,9.255763100E0
4.122007149E0,-9.660000205E-1,-8.056050301E0,-1.612950087E0,8.272527453E0
4.124505603E0,-9.330000281E-1,-7.101000309E0,-1.647000074E0,7.348966164E0
4.127004293E0,-7.750500441E-1,-6.238950253E0,-1.620000124E0,6.492272578E0
4.129502757E0,-7.009500265E-1,-5.401050091E0,-1.503000021E0,5.649927618E0
4.132001218E0,-5.110500455E-1,-4.531949997E0,-1.357050061E0,4.758290428E0
4.134499755E0,-2.340000123E-1,-3.675000191E0,-1.249050021E0,3.888509787E0
