"Time (s)","Acceleration x (m/s^2)","Acceleration y (m/s^2)","Acceleration z (m/s^2)","Absolute acceleration (m/s^2)"
7.768996000E-3,-3.049050093E0,4.783050060E0,8.338950157E0,1.008525478E1
1.026662600E-2,-3.034950256E0,4.821000099E0,8.346000671E0,1.010488457E1
1.276539600E-2,-3.031950235E0,4.849950314E0,8.362050056E0,1.013107208E1
1.526407900E-2,-3.067950249E0,4.867050171E0,8.370000839E0,1.015664365E1
1.776284600E-2,-3.088050127E0,4.867050171E0,8.350950241E0,1.014704888E1
2.026138700E-2,-3.223950148E0,4.861950397E0,8.299950600E0,1.014502815E1
2.276007700E-2,-3.246000051E0,4.857000351E0,8.275950432E0,1.013007030E1
2.525884200E-2,-3.181050062E0,4.882950306E0,8.307000160E0,1.014734127E1
2.775761100E-2,-3.159000158E0,4.869000435E0,8.287950516E0,1.011813080E1
3.025615200E-2,-3.159000158E0,4.876049995E0,8.307000160E0,1.013712963E1
3.275491900E-2,-3.111000061E0,4.861950397E0,8.346000671E0,1.014754208E1
3.525361300E-2,-3.193050146E0,4.849950314E0,8.329050064E0,1.015335719E1
3.775238000E-2,-3.430050135E0,4.801950455E0,8.298000336E0,1.018237603E1
4.025092000E-2,-3.540000200E0,4.797000408E0,8.281050682E0,1.020385294E1
4.274968700E-2,-3.526050091E0,4.845000267E0,8.272050858E0,1.021439583E1
4.524838200E-2,-3.487050056E0,4.888050079E0,8.233050346E0,1.018997889E1
4.774716300E-2,-3.478050232E0,4.933950424E0,8.157000542E0,1.014777601E1
5.024570300E-2,-3.432000160E0,4.972050190E0,8.118000031E0,1.011937907E1
5.274439400E-2,-3.427950144E0,4.969950199E0,8.077950478E0,1.008486644E1
5.524316300E-2,-3.420000076E0,4.945950031E0,7.944000244E0,9.963230506E0
5.774170300E-2,-3.436950207E0,4.921950340E0,7.852950573E0,9.884687885E0
6.024048100E-2,-3.451050282E0,4.906949997E0,7.759050369E0,9.807689277E0
6.273917500E-2,-3.439950228E0,4.921950340E0,7.750050545E0,9.804189725E0
6.523794200E-2,-3.376950264E0,4.929000378E0,7.738050461E0,9.776311306E0
6.773648300E-2,-3.349050045E0,4.933950424E0,7.723050594E0,9.757331268E0
7.023525000E-2,-3.322050095E0,4.984050274E0,7.735050201E0,9.783035091E0
7.273401900E-2,-3.286050081E0,4.984050274E0,7.788000584E0,9.812840331E0
7.523271300E-2,-3.279000044E0,4.981050014E0,7.816950321E0,9.831958750E0
7.773148100E-2,-3.298050165E0,4.993050098E0,7.824000359E0,9.850008416E0
8.023003100E-2,-3.291000128E0,4.989000320E0,7.819050312E0,9.841664179E0
8.272872100E-2,-3.331950188E0,4.986000061E0,7.804950237E0,9.842730153E0
8.522749100E-2,-3.307950258E0,4.984050274E0,7.774050236E0,9.809136002E0
8.772603100E-2,-3.343950272E0,5.013000011E0,7.732950211E0,9.803606045E0
9.022479800E-2,-3.351000071E0,5.002950191E0,7.678050518E0,9.757621219E0
9.272351700E-2,-3.334050179E0,5.005050182E0,7.635000229E0,9.719035262E0
9.522205500E-2,-3.328950167E0,5.014950275E0,7.584000587E0,9.682391254E0
9.772082200E-2,-3.304950237E0,5.013000011E0,7.543950558E0,9.641786930E0
1.002195170E-1,-3.267000198E0,5.013000011E0,7.552950382E0,9.635897410E0
1.027182840E-1,-3.222000122E0,5.008050442E0,7.560000420E0,9.623692657E0
1.052170430E-1,-3.162000179E0,5.026950359E0,7.564950466E0,9.617533499E0
1.077155840E-1,-3.097050190E0,5.008050442E0,7.546050549E0,9.571581269E0
1.102143510E-1,-3.055950165E0,5.005050182E0,7.551000595E0,9.560699176E0
1.127130450E-1,-3.022950172E0,4.993050098E0,7.564950466E0,9.554959581E0
1.152118120E-1,-2.997000217E0,4.981050014E0,7.548000336E0,9.527076079E0
1.177103240E-1,-2.992050171E0,4.953000069E0,7.522050381E0,9.490301146E0
1.202090910E-1,-2.973000050E0,4.926000118E0,7.527000427E0,9.474172359E0
1.227077850E-1,-3.001050234E0,4.885950089E0,7.563000202E0,9.490931610E0
1.252065530E-1,-3.022950172E0,4.833000183E0,7.567950249E0,9.474702607E0
1.277050930E-1,-3.046950102E0,4.822950363E0,7.584000587E0,9.490090623E0
1.302037830E-1,-3.070950031E0,4.792050362E0,7.612950325E0,9.505340258E0
1.327025530E-1,-3.109050035E0,4.752000332E0,7.668000221E0,9.541798922E0
1.352013220E-1,-3.118950129E0,4.720950127E0,7.744950294E0,9.591635683E0
1.376998620E-1,-3.121050119E0,4.693950176E0,7.816950321E0,9.637366571E0
1.401986250E-1,-3.126000166E0,4.675050259E0,7.929000378E0,9.720957718E0
1.426973190E-1,-3.109050035E0,4.627050400E0,8.025000572E0,9.771203698E0
1.451960860E-1,-3.100050211E0,4.606050014E0,8.130000114E0,9.844943367E0
1.476946270E-1,-3.082950115E0,4.567049980E0,8.209050179E0,9.886912145E0
1.501933940E-1,-3.042000055E0,4.548000336E0,8.287950516E0,9.931172899E0
1.526920830E-1,-3.018000126E0,4.522050381E0,8.343000412E0,9.958058058E0
1.551906220E-1,-2.997000217E0,4.498050213E0,8.395950317E0,9.985311600E0
1.576893890E-1,-2.956050158E0,4.474050045E0,8.431950569E0,9.992654639E0
1.601880830E-1,-2.917950153E0,4.435950279E0,8.452950478E0,9.982207158E0
1.626868600E-1,-2.898000240E0,4.402050018E0,8.499000549E0,1.000047299E1
1.651856300E-1,-2.908050060E0,4.378050327E0,8.536950111E0,1.002514823E1
1.676841700E-1,-2.902950048E0,4.339950085E0,8.592000008E0,1.005409120E1
1.701828600E-1,-2.902950048E0,4.314000130E0,8.638050079E0,1.008234225E1
1.726816300E-1,-2.925000191E0,4.287000179E0,8.700000763E0,1.013035093E1
1.751801700E-1,-2.953050137E0,4.279950142E0,8.746050835E0,1.017506184E1
1.776789370E-1,-2.961000204E0,4.279950142E0,8.772000313E0,1.019968063E1
1.801776320E-1,-2.965050220E0,4.261050224E0,8.764950752E0,1.018687555E1
1.826763990E-1,-2.958000183E0,4.258049965E0,8.748000145E0,1.016898526E1
1.851749390E-1,-2.950950146E0,4.251000404E0,8.704950333E0,1.012695766E1
1.876737070E-1,-2.956050158E0,4.251000404E0,8.668950081E0,1.009752111E1
1.901724010E-1,-2.956050158E0,4.227000237E0,8.614050865E0,1.004030059E1
1.926711680E-1,-2.968050241E0,4.225049973E0,8.532000542E0,9.972732963E0
1.951697090E-1,-2.986950159E0,4.218000412E0,8.452950478E0,9.907864074E0
1.976684760E-1,-2.998950243E0,4.230000019E0,8.401050568E0,9.872398562E0
2.001671700E-1,-3.004050255E0,4.230000019E0,8.346000671E0,9.827153469E0
2.026659370E-1,-2.980050087E0,4.255949974E0,8.329050064E0,9.816663571E0
2.051644780E-1,-2.977050066E0,4.254000187E0,8.307000160E0,9.796203160E0
2.076632450E-1,-2.965050220E0,4.255949974E0,8.290950775E0,9.779800496E0
2.101619400E-1,-2.929950237E0,4.270050049E0,8.286000252E0,9.771168609E0
2.126607070E-1,-2.908050060E0,4.246050358E0,8.282999992E0,9.751604364E0
2.151592470E-1,-2.922000170E0,4.267950058E0,8.239950180E0,9.728836604E0
2.176579380E-1,-2.937000036E0,4.263000011E0,8.182950020E0,9.682964904E0
2.201567020E-1,-2.920050144E0,4.282050133E0,8.104050636E0,9.619682058E0
2.226552420E-1,-2.896050215E0,4.267950058E0,8.008049965E0,9.525301506E0
2.251540090E-1,-2.886000156E0,4.278000355E0,7.921950340E0,9.454500575E0
2.276527040E-1,-2.926950216E0,4.243950367E0,7.824000359E0,9.369799032E0
2.301514710E-1,-2.961000204E0,4.207950115E0,7.795050144E0,9.340084214E0
2.326502300E-1,-2.992050171E0,4.162950039E0,7.771050453E0,9.309765969E0
2.351487710E-1,-3.037050247E0,4.141050339E0,7.819050312E0,9.354652313E0
2.376475380E-1,-3.040050030E0,4.108050346E0,7.873950481E0,9.387069725E0
2.401462320E-1,-3.018000126E0,4.099950314E0,7.929000378E0,9.422683499E0
2.426447560E-1,-3.001050234E0,4.105050087E0,8.005949974E0,9.484354154E0
2.451435230E-1,-2.970000029E0,4.108050346E0,8.072999954E0,9.532591782E0
2.476422170E-1,-2.962950230E0,4.090950012E0,8.137050629E0,9.577397298E0
2.501409850E-1,-2.956050158E0,4.072050095E0,8.226000786E0,9.642972230E0
2.526395250E-1,-2.961000204E0,4.060050011E0,8.341050148E0,9.737794713E0
2.551383060E-1,-2.970000029E0,4.057050228E0,8.451000214E0,9.833613849E0
2.576370010E-1,-3.001050234E0,4.072050095E0,8.494050026E0,9.886191396E0
2.601357680E-1,-3.049050093E0,4.074000359E0,8.575950623E0,9.972016570E0
2.626343080E-1,-3.094950199E0,4.075950146E0,8.611050606E0,1.001709932E1
2.651330750E-1,-3.133050203E0,4.081050396E0,8.592000008E0,1.001466125E1
2.676317600E-1,-3.157050133E0,4.114950180E0,8.542050362E0,9.993318013E0
2.701305270E-1,-3.195000172E0,4.162950039E0,8.467950821E0,9.962146868E0
2.726290670E-1,-3.219000101E0,4.218000412E0,8.389050484E0,9.926210614E0
2.751278350E-1,-3.274050236E0,4.255949974E0,8.287950516E0,9.875355127E0
2.776265290E-1,-3.355950117E0,4.290000439E0,8.178000450E0,9.825792401E0
2.801252820E-1,-3.478050232E0,4.309050083E0,8.062950134E0,9.781406387E0
2.826238230E-1,-3.624000072E0,4.342050076E0,7.960050583E0,9.764690505E0
2.851225900E-1,-3.769950151E0,4.369050026E0,7.836000443E0,9.731599314E0
2.876212840E-1,-3.889950275E0,4.390050411E0,7.692000389E0,9.673216928E0
2.901198230E-1,-3.970950127E0,4.431000233E0,7.630050182E0,9.675736342E0
2.926186000E-1,-4.033050060E0,4.474050045E0,7.567950249E0,9.672460264E0
2.951172940E-1,-4.074000359E0,4.504950047E0,7.534050465E0,9.677498140E0
2.976160620E-1,-4.096050262E0,4.507050037E0,7.522050381E0,9.678448725E0
3.001148310E-1,-4.105050087E0,4.479000092E0,7.527000427E0,9.673087070E0
3.026133850E-1,-4.146000385E0,4.456950188E0,7.527000427E0,9.680364642E0
3.051121520E-1,-4.146000385E0,4.407000065E0,7.540950298E0,9.668345265E0
3.076108470E-1,-4.141050339E0,4.357050419E0,7.560000420E0,9.658457051E0
3.101093850E-1,-4.062000275E0,4.315950394E0,7.591950417E0,9.631458101E0
3.126081530E-1,-3.985050201E0,4.279950142E0,7.687050343E0,9.658640758E0
3.151069170E-1,-3.862950087E0,4.242000103E0,7.804950237E0,9.686805276E0
3.176056110E-1,-3.772050142E0,4.190999985E0,7.953000546E0,9.749003068E0
3.201041500E-1,-3.741000175E0,4.165050030E0,8.116050720E0,9.859665479E0
3.226029170E-1,-3.685950279E0,4.134000301E0,8.245050430E0,9.932625260E0
3.251016110E-1,-3.621000290E0,4.141050339E0,8.365050316E0,1.001169355E1
3.276003880E-1,-3.520950079E0,4.146000385E0,8.491950035E0,1.008462315E1
3.300989290E-1,-3.472950220E0,4.147950172E0,8.604000092E0,1.016344880E1
3.325976960E-1,-3.456000090E0,4.155000210E0,8.748000145E0,1.028277540E1
3.350964650E-1,-3.496950150E0,4.132050037E0,8.869950294E0,1.039127115E1
3.375951600E-1,-3.583050251E0,4.122000217E0,8.985000610E0,1.051472163E1
3.400936980E-1,-3.676950216E0,4.134000301E0,9.049950600E0,1.060714510E1
3.425924650E-1,-3.768000126E0,4.135950089E0,9.109050751E0,1.069012225E1
3.450911600E-1,-3.877950191E0,4.144050121E0,9.202950478E0,1.081230533E1
3.475899270E-1,-3.933000088E0,4.135950089E0,9.307950020E0,1.091844798E1
3.500884570E-1,-3.961050272E0,4.177050114E0,9.439949989E0,1.105668679E1
3.525872250E-1,-4.000050068E0,4.231950283E0,9.627000809E0,1.125117542E1
3.550859190E-1,-4.030950069E0,4.290000439E0,9.849000931E0,1.147412226E1
3.575846860E-1,-4.093050003E0,4.345050335E0,1.013400078E1,1.176139841E1
3.600832270E-1,-4.258049965E0,4.315950394E0,1.036395073E1,1.200707675E1
3.625819840E-1,-4.438050270E0,4.270050049E0,1.054395008E1,1.221083539E1
3.650806780E-1,-4.617000103E0,4.219950199E0,1.069395065E1,1.238891643E1
3.675792170E-1,-4.761000156E0,4.159950256E0,1.080900097E1,1.252225262E1
3.700779840E-1,-4.902000427E0,4.072050095E0,1.085700035E1,1.258910866E1
3.725767530E-1,-4.984050274E0,4.018949986E0,1.090995026E1,1.264989054E1
3.750754520E-1,-4.897950172E0,4.036050320E0,1.103400040E1,1.272905271E1
3.775742200E-1,-4.560000420E0,3.964050293E0,1.118295097E1,1.271084934E1
3.800727600E-1,-4.315950394E0,3.772050142E0,1.122795010E1,1.260645285E1
3.825715270E-1,-4.560000420E0,3.406050205E0,1.038105011E1,1.183896039E1
3.850702320E-1,-4.998000145E0,3.054000139E0,9.271950722E0,1.096704119E1
3.875687700E-1,-5.194050312E0,2.970000029E0,8.917950630E0,1.073912949E1
3.900675370E-1,-5.415000439E0,2.914950132E0,8.689949989E0,1.064586280E1
3.925662320E-1,-5.587050438E0,2.896050215E0,8.544000626E0,1.061141772E1
3.950649990E-1,-5.635050297E0,2.889000177E0,8.608950615E0,1.068710178E1
3.975635240E-1,-5.601000309E0,2.914950132E0,8.781000137E0,1.081545663E1
4.000622920E-1,-5.520000458E0,2.926950216E0,8.935050011E0,1.090286941E1
4.025610610E-1,-5.407950401E0,2.941950083E0,9.121050835E0,1.100429762E1
4.050597550E-1,-5.230050087E0,2.941950083E0,9.211950302E0,1.099402213E1
4.075585220E-1,-5.026950359E0,2.941950083E0,9.282000542E0,1.095814009E1
4.100570680E-1,-4.773000240E0,2.937000036E0,9.286950111E0,1.084688632E1
4.125558350E-1,-4.597949982E0,2.905950069E0,9.223950386E0,1.070826553E1
4.150545290E-1,-4.407000065E0,2.841000080E0,9.070950508E0,1.047736008E1
4.175530680E-1,-4.186050415E0,2.773950100E0,8.865000725E0,1.018852566E1
4.200518400E-1,-3.981000185E0,2.668950081E0,8.626049995E0,9.868150563E0
4.225505340E-1,-3.756000280E0,2.518050194E0,8.310000420E0,9.460667094E0
4.250493020E-1,-3.483000278E0,2.331000090E0,8.020050049E0,9.049091399E0
4.275478420E-1,-3.226050138E0,2.134950161E0,7.732950211E0,8.646613825E0
4.300466090E-1,-3.040050030E0,1.882950068E0,7.471950531E0,8.283565046E0
4.325453040E-1,-2.865000248E0,1.618050098E0,7.230000496E0,7.943501729E0
4.350440710E-1,-2.707050085E0,1.330050111E0,7.077000141E0,7.692924311E0
4.375428400E-1,-2.593950033E0,1.050000072E0,6.928050518E0,7.471878004E0
4.400413810E-1,-2.506050110E0,7.440000176E-1,6.793950558E0,7.279532084E0
4.425401480E-1,-2.440950155E0,4.590000212E-1,6.700950146E0,7.146443279E0
4.450388230E-1,-2.415000200E0,1.789500117E-1,6.535950184E0,6.970143032E0
4.475373620E-1,-2.332950115E0,-6.195000187E-2,6.334950447E0,6.751154806E0
4.500361290E-1,-2.191950083E0,-2.680500150E-1,6.124050140E0,6.510029654E0
4.525348230E-1,-1.966950059E0,-4.549500346E-1,5.824950218E0,6.164893926E0
4.550335990E-1,-1.711050034E0,-6.199500561E-1,5.410050392E0,5.707948452E0
4.575321400E-1,-1.383000016E0,-7.800000310E-1,4.999050140E0,5.245149321E0
4.600308300E-1,-8.779500127E-1,-9.409500360E-1,4.465050220E0,4.646811452E0
4.625295990E-1,-3.610500097E-1,-1.105949998E0,3.829950094E0,4.002749084E0
4.650281550E-1,1.600500047E-1,-1.314000010E0,3.150000095E0,3.416827861E0
4.675269220E-1,6.060000062E-1,-1.530000091E0,2.335950136E0,2.857411298E0
4.700256910E-1,9.289500713E-1,-1.626000047E0,1.474050045E0,2.383201192E0
4.725243860E-1,1.213950038E0,-1.636950135E0,7.729500532E-1,2.179617449E0
4.750231530E-1,1.458000064E0,-1.681050062E0,2.149500102E-1,2.235597684E0
4.775217070E-1,1.695000052E0,-1.747950077E0,-3.040500283E-1,2.453732070E0
4.800204750E-1,1.864950061E0,-1.860000134E0,-9.190500379E-1,2.789676002E0
4.825191690E-1,1.951050043E0,-1.984950066E0,-1.543950081E0,3.182829698E0
4.850179360E-1,1.963050127E0,-2.137950182E0,-2.133000135E0,3.601955907E0
4.875164910E-1,1.924950123E0,-2.338950157E0,-2.580000162E0,3.979010134E0
4.900152580E-1,1.753050089E0,-2.566050053E0,-2.992050171E0,4.313949665E0
4.925139520E-1,1.555950046E0,-2.835000038E0,-3.442050219E0,4.722913875E0
4.950124910E-1,1.483950019E0,-3.169950247E0,-3.937950134E0,5.268599765E0
4.975112580E-1,1.494000077E0,-3.529050112E0,-4.347000122E0,5.795053148E0
5.000099520E-1,1.539000034E0,-3.876000166E0,-4.668000221E0,6.259562641E0
5.025087190E-1,1.599000096E0,-4.218000412E0,-4.807050228E0,6.592121106E0
5.050072600E-1,1.630050063E0,-4.570050240E0,-4.819050312E0,6.838542850E0
5.075060270E-1,1.591950059E0,-4.885950089E0,-4.699050426E0,6.963324505E0
5.100047960E-1,1.603950024E0,-5.206950188E0,-4.441050053E0,7.029076149E0
5.125034870E-1,1.578000069E0,-5.506950378E0,-4.003050327E0,6.988633530E0
5.150020250E-1,1.618050098E0,-5.811000347E0,-3.399000168E0,6.923800495E0
5.175007920E-1,1.717050076E0,-6.094950199E0,-2.785950184E0,6.917961934E0
5.199994870E-1,1.884000063E0,-6.412050247E0,-2.133000135E0,7.015235861E0
5.224982580E-1,2.203050137E0,-6.555000305E0,-1.333050013E0,7.042618919E0
5.249967980E-1,2.547000170E0,-6.658050537E0,-5.689499974E-1,7.151262191E0
5.274955660E-1,2.844000101E0,-6.760950089E0,1.459500045E-1,7.336217287E0
5.299942600E-1,3.061950207E0,-6.852000237E0,7.489500642E-1,7.542305517E0
5.324930270E-1,3.045000076E0,-6.919050217E0,1.228050113E0,7.658550022E0
5.349915490E-1,2.859000206E0,-6.997950554E0,1.678050041E0,7.743451819E0
5.374902390E-1,2.578950167E0,-7.053000450E0,2.218950033E0,7.830679317E0
5.399890080E-1,2.266950130E0,-7.089000225E0,2.743050098E0,7.932043301E0
5.424875490E-1,1.860000134E0,-7.137000561E0,3.289050102E0,8.075532681E0
5.449863160E-1,1.326000094E0,-7.264050484E0,3.919050217E0,8.359644746E0
5.474850850E-1,8.209500313E-1,-7.350000381E0,4.656000137E0,8.739267809E0
5.499837790E-1,2.179500163E-1,-7.431000233E0,5.446050167E0,9.215569928E0
5.524825470E-1,-1.095000096E-2,-7.132050514E0,6.427950382E0,9.601292130E0
5.549810870E-1,-7.290000319E-1,-7.362000465E0,7.411950588E0,1.047222533E1
5.574798440E-1,-1.324950099E0,-7.630050182E0,8.551950455E0,1.153728803E1
5.599785390E-1,-1.948050141E0,-7.864950180E0,9.744000435E0,1.267272209E1
5.624773060E-1,-2.448000193E0,-8.052000046E0,1.092900085E1,1.379385622E1
5.649758460E-1,-2.725950241E0,-8.116050720E0,1.200405025E1,1.474443307E1
5.674745130E-1,-2.998950243E0,-8.137949944E0,1.293795109E1,1.557595937E1
5.699732820E-1,-3.307950258E0,-8.188050270E0,1.365600109E1,1.626262795E1
5.724718220E-1,-3.574050188E0,-8.116050720E0,1.430505085E1,1.683088215E1
5.749705900E-1,-3.853950262E0,-7.977000237E0,1.485795116E1,1.729867562E1
5.774693590E-1,-4.230000019E0,-7.764000416E0,1.527000046E1,1.764498559E1
5.799680630E-1,-4.641000271E0,-7.543950558E0,1.570605087E1,1.803136455E1
5.824668300E-1,-5.206050396E0,-7.254000187E0,1.589895058E1,1.823458551E1
5.849653710E-1,-5.854950428E0,-6.948000431E0,1.602195168E1,1.841896007E1
5.874640610E-1,-6.609000206E0,-6.570000172E0,1.589700031E1,1.842711060E1
5.899628300E-1,-7.489950180E0,-6.079050064E0,1.555500031E1,1.830333953E1
5.924613800E-1,-8.587050438E0,-5.808000088E0,1.526700115E1,1.845404087E1
5.949601470E-1,-9.829950333E0,-5.431950092E0,1.475295067E1,1.854140121E1
5.974588420E-1,-1.088505077E1,-4.848000050E0,1.456605053E1,1.881906647E1
5.999576090E-1,-1.192005062E1,-4.305000305E0,1.430505085E1,1.911164865E1
6.024561490E-1,-1.282500076E1,-3.661050081E0,1.420905113E1,1.948797235E1
6.049549070E-1,-1.365795040E1,-2.905950069E0,1.391895103E1,1.971601767E1
6.074536020E-1,-1.447005081E1,-2.265000105E0,1.371795082E1,2.006725618E1
6.099523690E-1,-1.536300087E1,-1.669050097E0,1.345695019E1,2.049138922E1
6.124509090E-1,-1.613805008E1,-1.004999995E0,1.328505039E1,2.092699810E1
6.149496830E-1,-1.702695084E1,-3.160500228E-1,1.279905033E1,2.130334790E1
6.174483770E-1,-1.784100151E1,4.540500343E-1,1.224600029E1,2.164421446E1
6.199471440E-1,-1.879395103E1,1.215000033E0,1.182900047E1,2.223992070E1
6.224456850E-1,-1.982805061E1,1.785000086E0,1.169805050E1,2.309073844E1
6.249444520E-1,-2.080905151E1,2.379000187E0,1.152000046E1,2.390369589E1
6.274431500E-1,-2.165895081E1,3.013050079E0,1.133100033E1,2.462884872E1
6.299419180E-1,-2.227905083E1,3.613950253E0,1.113705063E1,2.516844530E1
6.324404580E-1,-2.265795135E1,4.239000320E0,1.091895008E1,2.550637870E1
6.349391480E-1,-2.289705086E1,4.828050137E0,1.053600025E1,2.566305335E1
6.374379230E-1,-2.312700081E1,5.254050255E0,1.029195023E1,2.585319032E1
6.399364630E-1,-2.333295059E1,5.475000381E0,9.985950470E0,2.596384831E1
6.424352300E-1,-2.368005180E1,5.652000427E0,9.520950317E0,2.614074324E1
6.449339250E-1,-2.392200089E1,5.817000389E0,9.184050560E0,2.627634686E1
6.474326920E-1,-2.413005066E1,6.009000301E0,8.761950493E0,2.636549271E1
6.499312180E-1,-2.430705070E1,6.199950218E0,8.125050545E0,2.636832462E1
6.524299850E-1,-2.444100189E1,6.418050289E0,7.564950466E0,2.637768789E1
6.549287550E-1,-2.444895172E1,6.661950111E0,7.072050571E0,2.630868143E1
6.574274490E-1,-2.420400047E1,6.958950520E0,6.487950325E0,2.600680931E1
6.599259870E-1,-2.384295082E1,7.215000153E0,5.794050217E0,2.557564367E1
6.624247550E-1,-2.353395081E1,7.399950504E0,5.094000340E0,2.519037410E1
6.649234490E-1,-2.311695099E1,7.515000343E0,4.720950127E0,2.476198747E1
6.674222160E-1,-2.271495056E1,7.594050407E0,4.279950142E0,2.433015729E1
6.699207570E-1,-2.240595055E1,7.573950291E0,3.832950115E0,2.396002607E1
6.724195240E-1,-2.210700035E1,7.522050381E0,3.483000278E0,2.360999783E1
6.749182130E-1,-2.181705093E1,7.447950363E0,3.282000065E0,2.328577249E1
6.774169810E-1,-2.148495102E1,7.345050335E0,3.085950136E0,2.291453628E1
6.799155210E-1,-2.169795036E1,7.174950123E0,2.451000214E0,2.298452439E1
6.824142880E-1,-2.175795174E1,7.050000191E0,2.053950071E0,2.296365993E1
6.849129870E-1,-2.148195076E1,6.976050377E0,1.762050033E0,2.265489589E1
6.874115250E-1,-2.121195030E1,6.873000145E0,1.540950060E0,2.235082758E1
6.899105230E-1,-2.089605141E1,6.727050304E0,1.423950076E0,2.199831366E1
6.924090630E-1,-2.020605087E1,6.604950428E0,1.276050091E0,2.129643552E1
6.949077540E-1,-1.923195076E1,6.556950092E0,9.570000172E-1,2.034151847E1
6.974065230E-1,-1.837005043E1,6.427950382E0,7.510500550E-1,1.947668799E1
6.999050640E-1,-1.776600075E1,6.301050186E0,7.819500566E-1,1.886651695E1
7.024038310E-1,-1.729005051E1,5.986950397E0,4.210500121E-1,1.830209564E1
7.049025250E-1,-1.683300018E1,5.616000175E0,-9.795000404E-2,1.774539228E1
7.074010640E-1,-1.633695030E1,5.311950207E0,-5.689499974E-1,1.718826531E1
7.098998220E-1,-1.626000023E1,4.966950417E0,-7.150500417E-1,1.701674177E1
7.123985160E-1,-1.606904984E1,4.741950035E0,-1.012050033E0,1.678465662E1
7.148972830E-1,-1.593495083E1,4.503000259E0,-1.261050105E0,1.660692376E1
7.173958240E-1,-1.588905048E1,4.243950367E0,-1.231950045E0,1.649214179E1
7.198946190E-1,-1.566000080E1,4.045050144E0,-1.225050092E0,1.622032070E1
7.223933130E-1,-1.528605080E1,3.868050098E0,-1.117950082E0,1.580743410E1
7.248920810E-1,-1.485705090E1,3.636000156E0,-9.979500771E-1,1.532802540E1
7.273908500E-1,-1.440000057E1,3.483000278E0,-9.280500412E-1,1.484427783E1
7.298893900E-1,-1.391895103E1,3.328950167E0,-9.499500394E-1,1.434299523E1
7.323881580E-1,-1.368900108E1,3.139950037E0,-9.379500151E-1,1.407578726E1
7.348868520E-1,-1.366305065E1,2.902950048E0,-1.081950068E0,1.400987823E1
7.373856190E-1,-1.385400105E1,2.611050129E0,-1.234950066E0,1.415189137E1
7.398841600E-1,-1.372500038E1,2.367000103E0,-1.534050107E0,1.401183909E1
7.423828500E-1,-1.368000031E1,2.001000166E0,-1.948050141E0,1.396213842E1
7.448816330E-1,-1.374195099E1,1.527000070E0,-2.233050108E0,1.400569381E1
7.473801740E-1,-1.389705086E1,1.117050052E0,-2.626050234E0,1.418703504E1
7.498789410E-1,-1.407195091E1,7.939500213E-1,-3.069000244E0,1.442459433E1
7.523776350E-1,-1.408200073E1,5.209500194E-1,-3.745950222E0,1.458102454E1
7.548761740E-1,-1.432095051E1,1.950000077E-1,-4.411950111E0,1.498642560E1
7.573749560E-1,-1.490805054E1,-6.705000252E-2,-5.017950058E0,1.573004416E1
7.598736500E-1,-1.557600117E1,-1.360500008E-1,-5.851050377E0,1.663926418E1
7.623724170E-1,-1.657200050E1,-2.869500220E-1,-6.639000416E0,1.785468755E1
7.648711870E-1,-1.723995018E1,-8.110500574E-1,-6.718050480E0,1.852041810E1
7.673697270E-1,-1.776600075E1,-1.177950025E0,-6.612000465E0,1.899307503E1
7.698685080E-1,-1.870305061E1,-1.065000057E0,-6.295950413E0,1.976302909E1
7.723672030E-1,-1.862400055E1,-7.999500632E-1,-4.812000275E0,1.925223788E1
7.748659700E-1,-1.752495003E1,-1.339500099E-1,-3.250950098E0,1.782443527E1
7.773645100E-1,-1.564995098E1,2.650500238E-1,-2.443950176E0,1.584184679E1
7.798631860E-1,-1.454895115E1,3.610500097E-1,-2.085000038E0,1.470202577E1
7.823619550E-1,-1.366500092E1,1.620000005E-1,-1.717950106E0,1.377351976E1
7.848604950E-1,-1.297305107E1,-3.400500119E-1,-9.360000491E-1,1.301121763E1
7.873592630E-1,-1.257600021E1,-1.008000016E0,2.200500071E-1,1.261825136E1
7.898579570E-1,-1.175895023E1,-1.474950075E0,1.197000027E0,1.191138940E1
7.923567390E-1,-1.102695084E1,-1.831050038E0,1.993950129E0,1.135439237E1
7.948552800E-1,-9.997050285E0,-2.511000156E0,2.530050039E0,1.061354274E1
7.973540470E-1,-8.656050682E0,-3.105000257E0,3.117000103E0,9.709991228E0
7.998527410E-1,-7.941000462E0,-3.795000076E0,3.519000053E0,9.478653664E0
8.023515080E-1,-8.151000023E0,-4.293000221E0,3.411000252E0,9.823623313E0
8.048502590E-1,-8.532000542E0,-4.510950089E0,3.160050154E0,1.015527552E1
8.073487990E-1,-9.232950211E0,-4.690050125E0,2.892000198E0,1.075209770E1
8.098475660E-1,-1.040895081E1,-4.872000217E0,2.686050177E0,1.180243655E1
8.123462610E-1,-1.024905014E1,-4.846050262E0,2.382000208E0,1.158452230E1
8.148447990E-1,-9.255000114E0,-4.393050194E0,1.896000147E0,1.041867236E1
8.173435610E-1,-9.466050148E0,-3.685050249E0,1.582050085E0,1.028049528E1
8.198422560E-1,-9.067950249E0,-3.282000065E0,1.632000089E0,9.780729545E0
8.223410230E-1,-7.299000263E0,-3.285000086E0,3.172050238E0,8.609792861E0
8.248395630E-1,-5.989050388E0,-3.052050114E0,4.045950413E0,7.845600627E0
8.273382390E-1,-5.815050125E0,-2.665050030E0,3.208050251E0,7.156038431E0
8.298370080E-1,-6.291000366E0,-2.575950146E0,2.827050209E0,7.362364949E0
8.323355480E-1,-7.342050552E0,-3.112050056E0,3.234000206E0,8.605191410E0
8.348343160E-1,-8.170050621E0,-4.033950329E0,3.766050100E0,9.859290835E0
8.373330850E-1,-8.833950043E0,-4.822050095E0,4.051050186E0,1.084904826E1
8.398317790E-1,-9.019950867E0,-5.371950150E0,3.595950127E0,1.109721674E1
8.423305460E-1,-8.877000809E0,-5.674050331E0,3.354000092E0,1.105645997E1
8.448290870E-1,-8.596950531E0,-5.416050434E0,3.265050173E0,1.067247457E1
8.473278540E-1,-8.605950356E0,-4.642050266E0,3.330000162E0,1.032956501E1
8.498265340E-1,-8.695050240E0,-3.595950127E0,3.796950102E0,1.014650610E1
8.523253020E-1,-8.367000580E0,-2.320050001E0,4.330950260E0,9.702909917E0
8.548238420E-1,-8.452950478E0,-8.280000687E-1,5.608950138E0,1.017832391E1
8.573226090E-1,-8.239950180E0,-4.095000029E-2,6.478050232E0,1.048158341E1
8.598213040E-1,-7.936050415E0,-1.770000011E-1,7.134000301E0,1.067268408E1
8.623198370E-1,-6.849000454E0,-1.165950060E0,8.628000259E0,1.107748325E1
8.648195370E-1,-6.885000229E0,-2.169000149E0,9.397050858E0,1.184957192E1
8.673172990E-1,-7.003950119E0,-2.538000107E0,9.076050758E0,1.174186779E1
8.698160680E-1,-7.206000328E0,-2.734050035E0,8.767050743E0,1.167315934E1
8.723148280E-1,-7.452000141E0,-3.025950193E0,8.145000458E0,1.144682109E1
8.748132900E-1,-7.786950588E0,-3.418950081E0,7.390050411E0,1.126670600E1
8.773121340E-1,-8.230050087E0,-3.892950296E0,6.837000370E0,1.138566469E1
8.798108280E-1,-8.388000488E0,-4.137000084E0,6.837000370E0,1.158524475E1
8.823095950E-1,-7.909050465E0,-4.056000233E0,6.576000214E0,1.105658157E1
8.848081210E-1,-7.564950466E0,-3.735000134E0,6.124050140E0,1.042509912E1
8.873068110E-1,-7.203000546E0,-3.346950054E0,5.212050438E0,9.500040068E0
8.898055800E-1,-7.311000347E0,-2.908950090E0,4.168050289E0,8.904232697E0
8.923041210E-1,-7.704000473E0,-2.632950068E0,3.780000210E0,8.976215847E0
8.948028880E-1,-8.371950150E0,-2.344050169E0,3.873000145E0,9.517575880E0
8.973016010E-1,-9.118950844E0,-1.999050140E0,3.982950211E0,1.014964819E1
8.998003690E-1,-9.724050522E0,-1.602000117E0,3.736950159E0,1.053984627E1
9.022989090E-1,-9.214050293E0,-9.720000625E-1,3.555000067E0,9.923786193E0
9.047975990E-1,-8.752050400E0,-3.400500119E-1,3.375000238E0,9.386407557E0
9.072963600E-1,-8.503050804E0,1.810500026E-1,2.643000126E0,8.906183343E0
9.097949000E-1,-8.167950630E0,4.710000157E-1,1.843050122E0,8.386542331E0
9.122936670E-1,-8.182050705E0,5.809500217E-1,1.177050114E0,8.286670238E0
9.147924370E-1,-8.497950554E0,6.049500108E-1,7.969500422E-1,8.556649899E0
9.172911310E-1,-8.941050529E0,5.910000205E-1,6.439500451E-1,8.983670589E0
9.197899120E-1,-9.538050652E0,7.030500174E-1,8.350500464E-1,9.600312398E0
9.222884530E-1,-1.025100040E1,9.229500294E-1,4.140000343E-1,1.030078842E1
9.247872200E-1,-1.095495033E1,1.012050033E0,-1.380000114E-1,1.100246454E1
9.272859140E-1,-1.180200100E1,8.899500370E-1,-2.029500157E-1,1.183724746E1
9.297846810E-1,-1.222605038E1,8.350500464E-1,-1.650000066E-1,1.225564529E1
9.322832220E-1,-1.175205040E1,7.339500189E-1,-1.309500039E-1,1.177567489E1
9.347819120E-1,-1.156095028E1,6.480000019E-1,-2.100000158E-2,1.157911553E1
9.372806810E-1,-1.123995018E1,7.080000043E-1,1.020000055E-1,1.126268831E1
9.397792220E-1,-1.119000053E1,7.680000067E-1,4.020000100E-1,1.122352618E1
9.422779840E-1,-1.109400082E1,7.339500189E-1,7.200000286E-1,1.114154104E1
9.447767530E-1,-1.101195049E1,5.860500336E-1,9.600000381E-1,1.106924154E1
9.472754480E-1,-1.107195091E1,2.959500253E-1,1.198950052E0,1.114060881E1
9.497742150E-1,-1.078695011E1,2.100000158E-2,1.312050104E0,1.086647179E1
9.522727550E-1,-1.080405045E1,-1.939500123E-1,1.339950085E0,1.088855311E1
9.547714170E-1,-1.124205017E1,-5.599500537E-1,1.150950074E0,1.131467729E1
9.572701860E-1,-1.126095009E1,-6.100500226E-1,8.929500580E-1,1.131275907E1
9.597687260E-1,-1.096695042E1,-3.780000210E-1,5.670000315E-1,1.098810150E1
9.622674940E-1,-1.083495045E1,-1.200000048E-1,8.295000345E-2,1.083593244E1
9.647661880E-1,-1.307400036E1,-1.650000066E-1,3.060000241E-1,1.307862173E1
9.672649650E-1,-1.309095097E1,1.380000114E-1,2.680500150E-1,1.309442217E1
9.697635060E-1,-1.331595039E1,7.290000319E-1,5.500500202E-1,1.334722934E1
9.722622730E-1,-1.339500046E1,1.159950018E0,5.599500537E-1,1.345678511E1
9.747609670E-1,-1.366305065E1,1.407000065E0,2.959500253E-1,1.373849296E1
9.772597340E-1,-1.436205101E1,1.642050028E0,-3.270000219E-1,1.445931418E1
9.797582800E-1,-1.530495071E1,1.857000113E0,-3.180000186E-1,1.542047632E1
9.822569700E-1,-1.537695026E1,1.909950137E0,1.605000161E-2,1.549512073E1
9.847557400E-1,-1.517295074E1,2.257050037E0,5.505000427E-2,1.534000455E1
9.872545090E-1,-1.705500031E1,2.640000105E0,7.969500422E-1,1.727650906E1
9.897530540E-1,-1.640895081E1,3.148050070E0,7.009500265E-1,1.672289499E1
9.922518210E-1,-1.729500008E1,3.447000265E0,4.260000288E-1,1.764030370E1
9.947505160E-1,-1.874805069E1,3.681000233E0,-2.170500159E-1,1.910723104E1
9.972492830E-1,-1.920795059E1,3.604950190E0,-9.120000601E-1,1.956457963E1
9.997478270E-1,-1.958100128E1,3.454050064E0,-1.306950092E0,1.992621870E1
1.002246518E0,-2.070600128E1,4.045050144E0,-8.160000443E-1,2.111318962E1
1.004745287E0,-2.268405151E1,5.226000309E0,-5.689499974E-1,2.328520939E1
1.007243827E0,-2.375700188E1,6.339000225E0,-3.229500055E-1,2.459028993E1
1.009742595E0,-2.289705086E1,6.543000221E0,4.759500325E-1,2.381831896E1
1.012241280E0,-2.126205063E1,5.875050068E0,2.583000183E0,2.220952274E1
1.014740047E0,-1.962705040E1,5.218950272E0,4.407000065E0,2.078172752E1
1.017238588E0,-1.871205139E1,4.993050098E0,5.439000130E0,2.011601698E1
1.019737355E0,-1.743795013E1,4.099950314E0,6.451950073E0,1.903994110E1
1.022236049E0,-1.619595146E1,3.634050131E0,6.607950211E0,1.786561418E1
1.024734821E0,-1.501500034E1,3.234000206E0,6.900000095E0,1.683802227E1
1.027233361E0,-1.351395035E1,2.463000059E0,6.706050396E0,1.528608306E1
1.029732128E0,-1.226205063E1,1.396950126E0,6.514050484E0,1.395500659E1
1.032230823E0,-1.229295063E1,6.259500384E-1,5.851050377E0,1.362876514E1
1.034729590E0,-1.363200092E1,3.220500052E-1,4.371000290E0,1.431924610E1
1.037228130E0,-1.446195030E1,7.605000585E-2,2.833950043E0,1.473719997E1
1.039726897E0,-1.396200085E1,5.980500579E-1,1.467000127E0,1.405159140E1
1.042225592E0,-1.274100018E1,-6.730500460E-1,-3.510000110E-1,1.276359208E1
1.044724359E0,-1.327695084E1,-1.055999994E0,-1.221000075E0,1.337472993E1
1.047222899E0,-1.458000088E1,-1.033950090E0,-1.747050047E0,1.472065427E1
1.049721677E0,-1.620105171E1,-3.810000122E-1,-2.686050177E0,1.642662787E1
1.052220371E0,-1.845600128E1,-7.050000131E-3,-3.322950125E0,1.875276061E1
1.054718910E0,-2.265795135E1,3.100500107E-1,-2.539950132E0,2.280197880E1
1.057217677E0,-2.388600159E1,9.660000205E-1,-3.009000063E0,2.409415508E1
1.059716465E0,-2.286405182E1,2.104050159E0,-3.724950075E0,2.326085006E1
1.062215159E0,-1.972995186E1,3.142950058E0,-3.913950205E0,2.035849065E1
1.064713927E0,-1.427295113E1,3.669000149E0,-4.218000412E0,1.532873848E1
1.067212467E0,-8.932050705E0,3.853950262E0,-4.311000347E0,1.064045048E1
1.069711234E0,-3.709950209E0,3.294000149E0,-3.469050169E0,6.053798527E0
1.072209939E0,-1.062000036E0,2.712000132E0,-1.764000058E0,3.405067546E0
1.074708477E0,1.089000106E0,1.858950138E0,2.145000219E0,3.040171506E0
1.077207244E0,3.177000046E0,1.428000093E0,4.323000431E0,5.551652572E0
1.079705939E0,4.585050106E0,1.428000093E0,6.391950130E0,7.994929344E0
1.082204691E0,6.187050343E0,1.189050078E0,9.109050751E0,1.107556940E1
1.084703231E0,6.448050499E0,1.060050011E0,1.056795025E1,1.242508083E1
1.087201999E0,6.868950367E0,-1.905000024E-2,1.227195072E1,1.406355633E1
1.089700693E0,6.213000298E0,-1.207050085E0,1.406505108E1,1.542348873E1
1.092199470E0,4.330950260E0,-2.398950100E0,1.450605106E1,1.532767462E1
1.094698011E0,1.225950003E0,-3.154950142E0,1.441005039E1,1.480223686E1
1.097196778E0,-1.771050096E0,-3.261000156E0,1.185105038E1,1.241845947E1
1.099695547E0,-3.076050043E0,-3.843000174E0,1.175505066E1,1.274409472E1
1.102194011E0,-5.070000172E0,-3.763950109E0,1.139100075E1,1.302409767E1
1.104692989E0,-6.949050426E0,-3.450000048E0,1.019205093E1,1.280896969E1
1.107191529E0,-6.466050148E0,-3.187050104E0,8.535000801E0,1.117198870E1
1.109690219E0,-5.853000164E0,-2.683950186E0,7.498050213E0,9.883418261E0
1.112188989E0,-4.945050240E0,-2.371950150E0,6.574050426E0,8.561413925E0
1.114687525E0,-3.712050200E0,-2.205000162E0,6.160050392E0,7.522470554E0
1.117186292E0,-2.463000059E0,-2.191050053E0,5.953950405E0,6.805629659E0
1.119684987E0,-9.210000634E-1,-2.212050200E0,5.463000298E0,5.965381752E0
1.122183525E0,5.359500051E-1,-2.230950117E0,4.836000443E0,5.352689148E0
1.124682292E0,1.543950081E0,-2.157000065E0,4.513050079E0,5.234887979E0
1.127180991E0,2.125950098E0,-2.068050146E0,3.835050106E0,4.848103190E0
1.129679758E0,2.397000074E0,-1.858050108E0,3.106950045E0,4.341785133E0
1.132178298E0,2.755950212E0,-1.630050063E0,2.680950165E0,4.176100881E0
1.134677066E0,2.956950188E0,-1.378950119E0,2.298000097E0,3.990722026E0
1.137175835E0,2.883000135E0,-1.068000078E0,1.857000113E0,3.591763267E0
1.139674563E0,2.950050116E0,-8.790000677E-1,1.387950063E0,3.376661396E0
1.142173330E0,2.875050068E0,-5.550000072E-1,1.221000075E0,3.172503599E0
1.144671871E0,2.988000154E0,-3.880500197E-1,7.129500508E-1,3.096292221E0
1.147170561E0,3.217950106E0,-1.840500087E-1,3.299999982E-2,3.223378086E0
1.149669330E0,3.225000143E0,-1.699500084E-1,-8.470500112E-1,3.338712723E0
1.152167866E0,3.163050175E0,-2.629500031E-1,-1.555950046E0,3.534828094E0
1.154666633E0,2.902050257E0,-4.279500246E-1,-2.098950148E0,3.607024901E0
1.157165327E0,2.760000229E0,-4.860000312E-1,-2.659050226E0,3.863204033E0
1.159664095E0,2.940000057E0,-6.100500226E-1,-3.294000149E0,4.457151371E0
1.162162616E0,3.079050064E0,-9.580500722E-1,-3.571950197E0,4.812196738E0
1.164661383E0,3.057000160E0,-1.374000072E0,-3.757950068E0,5.035406129E0
1.167160078E0,3.085950136E0,-1.776000142E0,-3.481050253E0,4.979455353E0
1.169658845E0,3.048000097E0,-1.915050149E0,-3.342000246E0,4.911892437E0
1.172157405E0,2.815950155E0,-2.071050167E0,-2.791050196E0,4.473118070E0
1.174656096E0,3.175050259E0,-2.514000177E0,-2.391000032E0,4.702980139E0
1.177154865E0,3.486000061E0,-2.635950089E0,-2.704950094E0,5.139765005E0
1.179653634E0,3.567000151E0,-3.079050064E0,-2.575950146E0,5.370247529E0
1.182152175E0,3.439950228E0,-3.570000172E0,-2.446050167E0,5.528229392E0
1.184650942E0,3.864000082E0,-4.384050369E0,-1.720950127E0,6.091967138E0
1.187149636E0,3.724950075E0,-4.969950199E0,-1.434000015E0,6.374324599E0
1.189648403E0,3.445050240E0,-5.550000191E0,-1.126950026E0,6.628792472E0
1.192146944E0,2.716950178E0,-6.174000263E0,-4.590000212E-1,6.760974674E0
1.194645634E0,1.852950096E0,-6.577050209E0,1.380000114E-1,6.834475658E0
1.197144408E0,9.150000215E-1,-6.649050236E0,3.079500198E-1,6.718774240E0
1.199642949E0,-4.320000112E-1,-6.586050510E0,7.030500174E-1,6.637542065E0
1.202141716E0,-1.194000006E0,-6.517050266E0,1.459950089E0,6.784470094E0
1.204640410E0,-1.665000081E0,-6.121950150E0,1.933950067E0,6.632545647E0
1.207139178E0,-2.022000074E0,-5.703000069E0,2.056050062E0,6.390620936E0
1.209637718E0,-2.178000212E0,-5.380050182E0,1.720950127E0,6.053948647E0
1.212136485E0,-2.175000191E0,-4.915050030E0,1.531950116E0,5.588847268E0
1.214635180E0,-2.077050209E0,-4.477050304E0,1.660950065E0,5.207386304E0
1.217133947E0,-2.305050135E0,-4.177950382E0,2.025000095E0,5.183546171E0
1.219632716E0,-2.740050077E0,-3.945000172E0,2.193000078E0,5.280165729E0
1.222131247E0,-3.214050055E0,-3.922050238E0,2.140050173E0,5.503854155E0
1.224630014E0,-3.894000292E0,-3.934050083E0,2.251950026E0,5.975890498E0
1.227128708E0,-4.696050167E0,-3.955050230E0,2.527950048E0,6.639716932E0
1.229627247E0,-5.872050285E0,-4.081950188E0,2.704950094E0,7.645917008E0
1.232126014E0,-7.036050320E0,-4.314000130E0,2.875050068E0,8.739709041E0
1.234624684E0,-7.917000294E0,-4.645050049E0,2.857950211E0,9.613701837E0
1.237123451E0,-9.123000145E0,-5.001000404E0,2.806050062E0,1.077557672E1
1.239621992E0,-1.024905014E1,-5.289000034E0,2.760000229E0,1.185892708E1
1.242120682E0,-1.112505054E1,-5.550000191E0,2.905950069E0,1.276768568E1
1.244619442E0,-1.148895073E1,-5.779050350E0,3.085950136E0,1.322560018E1
1.247117983E0,-1.166400051E1,-5.959050179E0,3.105000257E0,1.346106287E1
1.249616750E0,-1.165905094E1,-5.992950439E0,3.037950039E0,1.345652497E1
1.252115444E0,-1.197495079E1,-6.043050289E0,3.675000191E0,1.390767880E1
1.254614226E0,-1.247295094E1,-6.061950207E0,4.069950104E0,1.445289726E1
1.257112766E0,-1.286100101E1,-6.097950459E0,3.852000237E0,1.474544854E1
1.259611533E0,-1.320495033E1,-6.094950199E0,3.691050291E0,1.500476536E1
1.262110303E0,-1.322205067E1,-5.935050488E0,3.591000080E0,1.493126685E1
1.264608997E0,-1.303800106E1,-5.688000202E0,3.700950146E0,1.469829412E1
1.267107764E0,-1.290405083E1,-5.485050201E0,3.997950077E0,1.458025748E1
1.269606305E0,-1.270995045E1,-5.499000072E0,4.363950253E0,1.451984518E1
1.272104995E0,-1.257795048E1,-5.494950294E0,4.765950203E0,1.452974873E1
1.274603764E0,-1.271505070E1,-5.434950352E0,4.999050140E0,1.470379889E1
1.277102295E0,-1.283700085E1,-5.485050201E0,5.599950314E0,1.504107077E1
1.279601062E0,-1.275300026E1,-5.442000389E0,6.193050385E0,1.518579128E1
1.282099756E0,-1.272705078E1,-5.430000305E0,6.808950424E0,1.542156058E1
1.284598523E0,-1.256100082E1,-5.487000465E0,7.527000427E0,1.563782757E1
1.287097074E0,-1.278900051E1,-5.671950340E0,8.038949966E0,1.613549724E1
1.289595841E0,-1.319595051E1,-6.043050289E0,8.616000175E0,1.687859667E1
1.292094535E0,-1.363605022E1,-6.378000259E0,9.037950516E0,1.755862473E1
1.294593074E0,-1.365300083E1,-6.783000469E0,8.740950584E0,1.757321098E1
1.297091841E0,-1.338705063E1,-7.003050327E0,8.688000679E0,1.742805767E1
1.299590591E0,-1.300695038E1,-7.132050514E0,8.367000580E0,1.703096008E1
1.302089286E0,-1.379400063E1,-7.324050426E0,7.492950439E0,1.732225373E1
1.304588053E0,-1.490805054E1,-7.752000332E0,6.459000111E0,1.800172665E1
1.307086593E0,-1.633500099E1,-8.284049988E0,4.987050056E0,1.898231835E1
1.309585366E0,-1.825005150E1,-8.988000870E0,3.319950104E0,2.061238967E1
1.312084060E0,-1.900695038E1,-9.651000023E0,2.551950216E0,2.146901055E1
1.314582598E0,-1.921995163E1,-1.026900005E1,-2.629500031E-1,2.179284390E1
1.317081366E0,-1.938000107E1,-1.159995079E1,-4.157999992E0,2.296589349E1
1.319580060E0,-1.916700172E1,-1.252605057E1,-8.314949989E0,2.436009629E1
1.322078817E0,-1.854705048E1,-1.316595078E1,-9.880050659E0,2.479820038E1
1.324577358E0,-1.851105118E1,-1.433895111E1,-1.194705009E1,2.628681306E1
1.327076125E0,-1.781700134E1,-1.485795116E1,-1.242300034E1,2.631606329E1
1.329574819E0,-1.750500107E1,-1.530600071E1,-1.223595047E1,2.627579122E1
1.332073586E0,-1.684200096E1,-1.492305088E1,-9.733950615E0,2.451734567E1
1.334572122E0,-1.657395172E1,-1.429800034E1,-6.310950279E0,2.278062297E1
1.337070889E0,-1.557600117E1,-1.303605080E1,-2.583000183E0,2.047491936E1
1.339569658E0,-1.389495087E1,-1.149705029E1,1.494000077E0,1.809651516E1
1.342068353E0,-1.254705048E1,-1.031595039E1,4.084050179E0,1.674893352E1
1.344567120E0,-1.186005020E1,-8.983050346E0,5.245050430E0,1.577550438E1
1.347065675E0,-1.128495026E1,-7.519950390E0,5.386050224E0,1.459141162E1
1.349564366E0,-1.140300083E1,-6.390000343E0,5.395950317E0,1.414131579E1
1.352063135E0,-1.161300087E1,-5.422950268E0,4.744950294E0,1.366692109E1
1.354561675E0,-1.215405083E1,-4.921950340E0,3.825000286E0,1.365932553E1
1.357060443E0,-1.246605015E1,-4.810050011E0,2.335950136E0,1.356449964E1
1.359559126E0,-1.176195049E1,-4.876950264E0,6.220500469E-1,1.274813985E1
1.362057664E0,-1.037595081E1,-2.626050234E0,1.108050108E0,1.076030995E1
1.364556432E0,-9.535050392E0,-2.071050167E0,1.570050120E0,9.882888857E0
1.367055126E0,-7.609950542E0,-1.567950130E0,1.869000077E0,7.991431421E0
1.369553893E0,-8.446050644E0,-1.731000066E0,2.347950220E0,8.935603110E0
1.372052439E0,-1.005195045E1,-1.872000098E0,2.173050165E0,1.045314495E1
1.374551206E0,-1.141905022E1,-2.035050154E0,1.608000040E0,1.170990184E1
1.377049900E0,-1.357200050E1,-3.036000252E0,3.010500073E-1,1.391068389E1
1.379548668E0,-1.752000046E1,-5.631000042E0,-2.535000086E0,1.857645830E1
1.382047437E0,-2.056005096E1,-8.086950302E0,-5.391000271E0,2.274153347E1
1.384545981E0,-2.224605179E1,-9.847050667E0,-7.327950478E0,2.540767768E1
1.387044748E0,-2.274900055E1,-1.086000061E1,-8.094000816E0,2.647582838E1
1.389543443E0,-2.299095154E1,-1.152795029E1,-8.784000397E0,2.717786146E1
1.392041981E0,-2.268900108E1,-1.175100040E1,-9.366000175E0,2.721394385E1
1.394540734E0,-1.904505157E1,-1.075005054E1,-9.603000641E0,2.388504129E1
1.397039429E0,-1.623705101E1,-9.931050301E0,-9.307950020E0,2.118739057E1
1.399538196E0,-1.485300064E1,-9.567000389E0,-8.446050644E0,1.958251506E1
1.402036736E0,-1.413900089E1,-9.391950607E0,-7.168050289E0,1.842555365E1
1.404535504E0,-1.364805031E1,-9.148050308E0,-5.803050041E0,1.742502486E1
1.407034208E0,-1.306905079E1,-8.815050125E0,-4.632000446E0,1.643047855E1
1.409532975E0,-1.263600063E1,-8.403000832E0,-3.670050144E0,1.561243745E1
1.412031516E0,-1.213800049E1,-7.819050312E0,-3.220050097E0,1.479315133E1
1.414530206E0,-1.162995052E1,-7.345050335E0,-3.114000082E0,1.410328012E1
1.417028989E0,-1.112505054E1,-6.997950554E0,-2.202000141E0,1.332617223E1
1.419527530E0,-1.064400005E1,-6.814050198E0,-1.347000122E0,1.270985549E1
1.422026297E0,-9.990000725E0,-6.531000137E0,-1.033950090E0,1.198011394E1
1.424525066E0,-9.231000900E0,-6.316050529E0,-7.150500417E-1,1.120781729E1
1.427023761E0,-8.611050606E0,-6.154950142E0,-2.479500175E-1,1.058749654E1
1.429522513E0,-7.828050137E0,-5.947050095E0,-7.605000585E-2,9.831152393E0
1.432021053E0,-7.207950115E0,-5.812950134E0,2.560500205E-1,9.263395476E0
1.434519744E0,-6.619050503E0,-5.740950108E0,7.729500532E-1,8.795896173E0
1.437018513E0,-6.078000069E0,-5.724000454E0,1.264050007E0,8.444174824E0
1.439517053E0,-5.982000351E0,-5.928000450E0,1.891050100E0,8.631430242E0
1.442015826E0,-5.704050064E0,-6.040050507E0,2.335950136E0,8.629893412E0
1.444514520E0,-5.001000404E0,-5.965950489E0,2.845950127E0,8.288667107E0
1.447013287E0,-4.431000233E0,-5.698050499E0,3.306000233E0,7.939217851E0
1.449511828E0,-4.668000221E0,-5.647950172E0,3.792000294E0,8.250383836E0
1.452010586E0,-3.954000235E0,-5.242950439E0,3.933000088E0,7.654484754E0
1.454509280E0,-3.744000196E0,-5.089950085E0,4.314000130E0,7.650864425E0
1.457008047E0,-3.205050230E0,-4.815000057E0,4.539000034E0,7.352488955E0
1.459506588E0,-3.114000082E0,-4.767000198E0,4.825950146E0,7.463985679E0
1.462005278E0,-2.946000099E0,-4.639950275E0,4.941000462E0,7.390638721E0
1.464504124E0,-2.527050018E0,-4.342950344E0,5.116050243E0,7.170855568E0
1.467002819E0,-2.584950209E0,-4.363950253E0,5.779050350E0,7.689177611E0
1.469501357E0,-1.993050098E0,-4.081950188E0,6.223950386E0,7.705330910E0
1.472000124E0,-2.161050081E0,-4.117949963E0,6.780000210E0,8.221681835E0
1.474498819E0,-1.503000021E0,-3.844950199E0,6.796950340E0,7.952432648E0
1.476997576E0,-1.440000057E0,-3.790050268E0,6.283950329E0,7.478376357E0
1.479496116E0,-1.207950115E0,-3.661050081E0,5.407950401E0,6.641412404E0
1.481994807E0,-5.809500217E-1,-3.712950230E0,5.070000172E0,6.310974891E0
1.484493576E0,-5.329500437E-1,-3.766050100E0,5.299950123E0,6.523545080E0
1.486992116E0,-2.530499995E-1,-3.847050190E0,5.737950325E0,6.912879530E0
1.489490889E0,-5.205000192E-2,-4.032000065E0,6.265050411E0,7.450542959E0
1.491989583E0,-1.000500023E-1,-4.411950111E0,6.727050304E0,8.045403631E0
1.494488350E0,-2.359500080E-1,-4.771050453E0,6.871050358E0,8.368388606E0
1.496986891E0,-2.939999998E-1,-5.032050133E0,6.568950176E0,8.280040517E0
1.499485658E0,-5.779500008E-1,-5.365050316E0,6.106950283E0,8.149394631E0
1.501984352E0,-8.230500221E-1,-5.728950500E0,5.737950325E0,8.149991356E0
1.504483119E0,-9.379500151E-1,-6.000000477E0,5.695050240E0,8.325464142E0
1.506981660E0,-9.900000691E-1,-6.100050449E0,5.941950321E0,8.573067668E0
1.509480427E0,-1.009050012E0,-6.012000084E0,7.632000446E0,9.767791856E0
1.511979116E0,-7.720500231E-1,-5.839050293E0,7.869000435E0,9.829126991E0
1.514477884E0,-3.799500167E-1,-5.671950340E0,7.453050137E0,9.373544635E0
1.516976424E0,5.295000225E-2,-5.382000446E0,6.799050331E0,8.671552220E0
1.519475191E0,5.200500488E-1,-4.981950283E0,6.154950142E0,7.935596507E0
1.521973886E0,1.008000016E0,-4.578000069E0,5.736000061E0,7.407823254E0
1.524472667E0,1.350000024E0,-4.254000187E0,5.473050117E0,7.062102749E0
1.526971207E0,1.276050091E0,-4.056000233E0,5.323950291E0,6.813507791E0
1.529469898E0,1.033950090E0,-3.945000172E0,5.062950134E0,6.501195521E0
1.531968667E0,8.239500523E-1,-3.847050190E0,4.893000126E0,6.278545937E0
1.534467207E0,5.239500403E-1,-3.742050171E0,4.137000084E0,5.602877191E0
1.536965975E0,3.379500210E-1,-3.606000185E0,3.825000286E0,5.267644136E0
1.539464669E0,-2.939999998E-1,-3.505050182E0,3.142950058E0,4.716985038E0
1.541963436E0,-9.379500151E-1,-3.463950157E0,2.557050228E0,4.406495977E0
1.544461977E0,-1.620000124E0,-3.433050156E0,1.696950078E0,4.158109347E0
1.546960755E0,-3.528000116E0,-3.640950203E0,2.595000155E-2,5.069908934E0
1.549459449E0,-1.038495064E1,-4.510950089E0,-3.616950274E0,1.188605064E1
1.551958216E0,-1.628700066E1,-5.190000057E0,-6.744000435E0,1.837618113E1
1.554456757E0,-1.831905174E1,-5.386950493E0,-7.444950581E0,2.049473546E1
1.556955524E0,-1.913595009E1,-5.416050434E0,-7.170000553E0,2.114065032E1
1.559454213E0,-1.918905067E1,-5.236050129E0,-7.290000439E0,2.118442808E1
1.561952981E0,-1.872900009E1,-5.071050167E0,-7.242000580E0,2.071080797E1
1.564451521E0,-1.782105064E1,-4.795050144E0,-7.084050179E0,1.976780511E1
1.566950288E0,-1.693305016E1,-4.537050247E0,-7.090950489E0,1.891017164E1
1.569448988E0,-1.522395039E1,-4.156050205E0,-7.045950413E0,1.728255872E1
1.571947755E0,-1.307400036E1,-3.771000147E0,-6.463950157E0,1.506428157E1
1.574446295E0,-1.119405079E1,-3.546000242E0,-4.042950153E0,1.241878966E1
1.576945063E0,-9.348000526E0,-3.285000086E0,-2.797950029E0,1.029586634E1
1.579443757E0,-9.067950249E0,-3.589050055E0,-8.280000687E-1,9.787470875E0
1.581942523E0,-9.979950905E0,-4.582050323E0,1.537050128E0,1.108860353E1
1.584441064E0,-1.119705009E1,-5.005950451E0,3.852000237E0,1.285579156E1
1.586939831E0,-1.267905045E1,-5.542050362E0,6.097950459E0,1.512142990E1
1.589438525E0,-1.735500145E1,-1.002405071E1,2.480805206E1,3.189227360E1
1.591937064E0,-1.681395149E1,-7.611000538E0,1.469295025E1,2.359065665E1
1.594435831E0,-1.707705116E1,-8.344050407E0,1.245405102E1,2.272338532E1
1.596934600E0,-1.636800003E1,-9.924000740E0,1.672800064E1,2.542092093E1
1.599433294E0,-1.438605022E1,-9.237000465E0,1.205400085E1,2.091840231E1
1.601932062E0,-1.252095032E1,-9.754050255E0,1.144395065E1,1.956731202E1
1.604430612E0,-1.045905018E1,-1.006695080E1,1.015095043E1,1.771375239E1
1.606929302E0,-9.121050835E0,-1.024500084E1,8.829000473E0,1.631272080E1
1.609428072E0,-7.894950390E0,-1.057500076E1,7.920000553E0,1.539114328E1
1.611926612E0,-7.174050331E0,-1.074705029E1,7.333050251E0,1.485731180E1
1.614425379E0,-6.703050137E0,-1.023300076E1,6.306000233E0,1.376266052E1
1.616924084E0,-5.980050087E0,-1.048395061E1,5.836950302E0,1.340687168E1
1.619422851E0,-5.524950027E0,-1.066395092E1,5.218950272E0,1.309512749E1
1.621921391E0,-5.275950432E0,-1.081395054E1,4.945950031E0,1.300921216E1
1.624420159E0,-5.026950359E0,-1.100400066E1,4.516950130E0,1.291360132E1
1.626918853E0,-4.789950371E0,-1.105395031E1,4.222949982E0,1.276584304E1
1.629417605E0,-4.335000038E0,-1.106100082E1,3.792000294E0,1.247065479E1
1.631916146E0,-3.790950298E0,-1.096995068E1,3.064050198E0,1.200414618E1
1.634414836E0,-3.424950123E0,-1.111095047E1,2.571000099E0,1.190770949E1
1.636913605E0,-3.102000237E0,-1.112100029E1,2.080049992E0,1.173139637E1
1.639412146E0,-2.893950224E0,-1.117605019E1,1.579950094E0,1.165226536E1
1.641910932E0,-3.133050203E0,-1.106295013E1,9.090000391E-1,1.153391305E1
1.644409701E0,-3.187950134E0,-1.093905067E1,7.780500650E-1,1.142064874E1
1.646908395E0,-4.069050312E0,-9.972000122E0,-1.549500078E-1,1.077134933E1
1.649407163E0,-4.938000202E0,-9.115050316E0,-2.130000144E-1,1.036886480E1
1.651905703E0,-6.054000378E0,-7.882050514E0,-3.850500286E-1,9.946150230E0
1.654404480E0,-6.765000343E0,-7.012050152E0,-5.640000105E-1,9.759721973E0
1.656903175E0,-7.945050240E0,-5.173950195E0,-1.374000072E0,9.580264095E0
1.659401942E0,-8.058000565E0,-4.210950375E0,-1.371000051E0,9.194733128E0
1.661900482E0,-8.202000618E0,-3.469050169E0,-7.060500383E-1,8.933399681E0
1.664399250E0,-7.981050491E0,-3.256050110E0,-9.000000358E-2,8.620158309E0
1.666897944E0,-7.716000557E0,-3.262950182E0,4.999500215E-1,8.392464388E0
1.669396482E0,-7.219950199E0,-3.993000269E0,9.400500655E-1,8.303940399E0
1.671895250E0,-7.002000332E0,-4.470000267E0,1.017000079E0,8.369181573E0
1.674393944E0,-6.673950195E0,-5.149950027E0,1.267950058E0,8.524745969E0
1.676892730E0,-6.700050354E0,-5.760000229E0,1.672950029E0,8.992610254E0
1.679391271E0,-6.877950191E0,-6.268050194E0,2.434050083E0,9.618692836E0
1.681889961E0,-6.732000351E0,-6.874050140E0,3.375000238E0,1.019622581E1
1.684388730E0,-6.865950108E0,-6.952950478E0,3.847050190E0,1.050164684E1
1.686887271E0,-6.732000351E0,-7.410000324E0,2.571000099E0,1.033624569E1
1.689386033E0,-6.691050529E0,-7.720950603E0,1.186950088E0,1.028552798E1
1.691884802E0,-6.214050293E0,-7.825950146E0,5.770500302E-1,1.000964053E1
1.694383497E0,-5.700000286E0,-8.140049934E0,3.900000155E-1,9.944974420E0
1.696882264E0,-5.968050480E0,-8.004000664E0,8.595000207E-2,9.984439922E0
1.699380814E0,-6.207000256E0,-8.131050110E0,4.420500100E-1,1.023895680E1
1.701879581E0,-5.305050373E0,-8.533050537E0,1.879050136E0,1.022190493E1
1.704378276E0,-5.500950336E0,-9.130949974E0,-1.930500120E-1,1.066170579E1
1.706877043E0,-4.924050331E0,-9.699000359E0,-3.709500134E-1,1.088367969E1
1.709375569E0,-4.249050140E0,-1.004595089E1,-2.680500150E-1,1.091088480E1
1.711874337E0,-3.303000212E0,-1.073505020E1,-9.000000358E-2,1.123206184E1
1.714373031E0,-2.725950241E0,-1.102305031E1,-1.140000075E-1,1.135567870E1
1.716871569E0,-2.701950073E0,-1.120005035E1,5.239500403E-1,1.153326432E1
1.719370337E0,-3.211950064E0,-1.110900021E1,1.108050108E0,1.161698256E1
1.721869031E0,-3.523050070E0,-1.098405075E1,1.965000153E0,1.170138788E1
1.724367798E0,-4.117050171E0,-1.087695026E1,2.863050222E0,1.197727873E1
1.726866339E0,-5.238000393E0,-1.055805016E1,3.907050133E0,1.241668683E1
1.729365029E0,-4.926000118E0,-1.045800018E1,4.467000008E0,1.239311640E1
1.731863798E0,-4.407000065E0,-1.055295086E1,4.632000446E0,1.233863240E1
1.734362318E0,-4.605000019E0,-1.053000069E1,4.756950378E0,1.243846922E1
1.736861085E0,-4.591050148E0,-1.055100060E1,4.852950096E0,1.248809352E1
1.739359854E0,-4.399950027E0,-1.047900009E1,4.702050209E0,1.229952354E1
1.741858549E0,-4.096050262E0,-1.045305061E1,4.534049988E0,1.210791081E1
1.744357316E0,-3.442050219E0,-1.050600052E1,4.033950329E0,1.176845410E1
1.746855856E0,-3.307950258E0,-1.069005013E1,3.574050188E0,1.174706522E1
1.749354623E0,-3.187950134E0,-1.083105087E1,3.052050114E0,1.169571285E1
1.751853318E0,-3.100050211E0,-1.087905025E1,2.608950138E0,1.160907690E1
1.754352085E0,-2.865000248E0,-1.094595051E1,2.248050213E0,1.153584798E1
1.756850625E0,-2.958000183E0,-1.098195076E1,1.807050109E0,1.151600789E1
1.759349307E0,-3.235950232E0,-1.088100052E1,1.534050107E0,1.145516721E1
1.761848076E0,-3.304950237E0,-1.070895004E1,1.446000099E0,1.130023112E1
1.764346617E0,-3.343950272E0,-1.063005066E1,1.350000024E0,1.122508265E1
1.766845384E0,-3.234000206E0,-1.054605007E1,1.402950048E0,1.111963121E1
1.769344078E0,-3.480000257E0,-1.056300068E1,1.102950096E0,1.117604062E1
1.771842845E0,-3.717000246E0,-1.049100018E1,1.180050015E0,1.119239445E1
1.774341386E0,-3.571050167E0,-1.043100071E1,1.587000132E0,1.113897412E1
1.776840153E0,-3.598050117E0,-1.028100014E1,2.308050156E0,1.113427249E1
1.779338847E0,-3.442050219E0,-1.028505039E1,2.929950237E0,1.123452623E1
1.781837615E0,-3.601950169E0,-1.000500011E1,3.772950172E0,1.128313898E1
1.784336384E0,-3.430050135E0,-9.877950668E0,4.266000271E0,1.129326842E1
1.786834924E0,-3.270000219E0,-9.795000076E0,4.422000408E0,1.123338843E1
1.789333615E0,-3.190950155E0,-9.763050079E0,4.390950203E0,1.117048582E1
1.791832384E0,-3.243000269E0,-9.675000191E0,4.359000206E0,1.109610572E1
1.794330905E0,-3.241050243E0,-9.676950455E0,4.129950047E0,1.100928082E1
1.796829673E0,-3.271950245E0,-9.667950630E0,3.961950302E0,1.094860621E1
1.799328367E0,-3.214050055E0,-9.679950714E0,3.796950102E0,1.088339991E1
1.801826905E0,-3.121050119E0,-9.748950005E0,3.624000072E0,1.085892981E1
1.804325692E0,-3.214050055E0,-9.627000809E0,3.646050215E0,1.078438429E1
1.806824386E0,-2.874000072E0,-9.376049995E0,3.720000267E0,1.048849808E1
1.809323153E0,-2.617950201E0,-9.201000214E0,3.592950106E0,1.021867695E1
1.811821694E0,-2.338050127E0,-9.028050423E0,3.406050205E0,9.928411294E0
1.814320461E0,-1.810950041E0,-8.854050636E0,3.085950136E0,9.549703711E0
1.816819155E0,-1.474050045E0,-8.832000732E0,2.580000162E0,9.318447366E0
1.819317922E0,-1.492950082E0,-8.755050659E0,2.248050213E0,9.161525078E0
1.821816463E0,-1.375950098E0,-8.655000687E0,1.969950080E0,8.982370449E0
1.824315230E0,-1.299000025E0,-8.535000801E0,1.747050047E0,8.808281535E0
1.826813924E0,-1.246050000E0,-8.539950371E0,1.527000070E0,8.764423663E0
1.829312692E0,-1.438050032E0,-8.652000427E0,1.291950107E0,8.865338931E0
1.831811461E0,-1.858950138E0,-8.827050209E0,1.149000049E0,9.093553328E0
1.834310001E0,-2.379000187E0,-9.055050850E0,1.072050095E0,9.423527959E0
1.836808692E0,-2.644950151E0,-9.213000298E0,9.619500637E-1,9.633300769E0
1.839307446E0,-3.001050234E0,-9.385050774E0,9.000000358E-1,9.894214501E0
1.841805986E0,-3.375000238E0,-9.459000587E0,8.689500690E-1,1.008059487E1
1.844304754E0,-4.050000191E0,-9.208050728E0,1.303950071E0,1.014351939E1
1.846803448E0,-5.287950039E0,-8.016000748E0,2.563950062E0,9.939442817E0
1.849301981E0,-6.673950195E0,-6.481050491E0,3.523950100E0,9.948057649E0
1.851800749E0,-6.313050270E0,-5.884950161E0,3.016050100E0,9.142417641E0
1.854299443E0,-5.355000019E0,-6.060000420E0,1.872000098E0,8.300844214E0
1.856798210E0,-4.348950386E0,-6.217950344E0,8.020500541E-1,7.630174325E0
1.859296751E0,-2.950950146E0,-5.767050266E0,6.649500132E-1,6.512229576E0
1.861795504E0,-1.567050099E0,-4.944000244E0,8.970000148E-1,5.263401320E0
1.864294198E0,-3.580500185E-1,-4.173000336E0,1.090950012E0,4.328083126E0
1.866792965E0,4.860000312E-1,-3.924000263E0,1.182000041E0,4.126875112E0
1.869291506E0,8.119500279E-1,-4.242000103E0,1.467000127E0,4.561350359E0
1.871790273E0,5.700000525E-1,-5.173950195E0,2.209050179E0,5.654605501E0
1.874289027E0,1.650000066E-1,-6.310950279E0,2.739000082E0,6.881674206E0
1.876787722E0,-3.100500107E-1,-7.099050522E0,3.235950232E0,7.807946159E0
1.879286260E0,-1.120050073E0,-7.792950153E0,3.301050186E0,8.537067212E0
1.881785027E0,-2.083950043E0,-8.250000000E0,2.995050192E0,9.020846603E0
1.884283722E0,-2.733000040E0,-8.204999924E0,1.756950140E0,8.824861855E0
1.886782480E0,-3.886950254E0,-8.595000267E0,2.166000128E0,9.678531315E0
1.889281020E0,-4.723050117E0,-8.832000732E0,1.800000072E0,1.017602278E1
1.891779788E0,-5.482050419E0,-9.378000259E0,1.606050134E0,1.098085437E1
1.894278482E0,-5.566050053E0,-9.912000656E0,1.507950068E0,1.146745759E1
1.896777020E0,-5.581950188E0,-1.040295029E1,1.494000077E0,1.190006634E1
1.899275793E0,-5.764050484E0,-1.092705059E1,1.495950103E0,1.244437943E1
1.901774487E0,-5.973000050E0,-1.136505032E1,1.611000061E0,1.293972254E1
1.904273254E0,-5.649000168E0,-1.164300060E1,1.551000118E0,1.303365901E1
1.906771795E0,-6.138000488E0,-1.188195038E1,1.771050096E0,1.349045638E1
1.909270528E0,-5.374050140E0,-1.229595089E1,1.366950035E0,1.348849049E1
1.911769222E0,-5.010000229E0,-1.206195068E1,1.702050090E0,1.317147414E1
1.914267989E0,-4.741950035E0,-1.192305088E1,1.956000090E0,1.297964440E1
1.916766759E0,-4.672950268E0,-1.184400082E1,2.362950087E0,1.294991709E1
1.919265299E0,-4.648950100E0,-1.202100086E1,2.299950123E0,1.309224844E1
1.921764004E0,-4.543050289E0,-1.220505047E1,2.427000046E0,1.324737303E1
1.924262774E0,-4.311000347E0,-1.235205078E1,2.419950008E0,1.330466236E1
1.926761314E0,-3.861000299E0,-1.231305027E1,2.578050137E0,1.315921247E1
1.929260081E0,-3.243000269E0,-1.172400093E1,3.313050270E0,1.260736097E1
1.931758776E0,-3.370050192E0,-1.155900097E1,3.447000265E0,1.252395914E1
1.934257543E0,-2.905950069E0,-1.124295044E1,2.592000008E0,1.189819080E1
1.936756083E0,-2.773950100E0,-1.073505020E1,2.533050060E0,1.137332162E1
1.939254851E0,-2.761950016E0,-1.038105011E1,2.287950039E0,1.098313638E1
1.941753545E0,-2.827050209E0,-1.004805088E1,2.302950144E0,1.068920571E1
1.944252331E0,-2.898000240E0,-9.778050423E0,2.185050011E0,1.042991462E1
1.946750872E0,-2.878950119E0,-9.502050400E0,2.008050203E0,1.012963875E1
1.949249562E0,-2.886000156E0,-9.244050026E0,2.014950037E0,9.891485300E0
1.951748331E0,-2.913000107E0,-9.121950150E0,1.999050140E0,9.782215783E0
1.954246882E0,-2.922000170E0,-8.893950462E0,2.001000166E0,9.573110335E0
1.956745649E0,-2.986950159E0,-9.024000168E0,2.314950228E0,9.783324836E0
1.959244343E0,-3.004050255E0,-9.043050766E0,2.458050013E0,9.840888931E0
1.961743110E0,-2.929950237E0,-9.032999992E0,2.527950048E0,9.827015249E0
1.964241651E0,-2.857950211E0,-8.932950020E0,2.704950094E0,9.761261726E0
1.966740437E0,-2.818950176E0,-8.836950302E0,2.796000242E0,9.687919699E0
1.969239131E0,-2.824050188E0,-8.812950134E0,2.839050055E0,9.680059646E0
1.971737899E0,-2.869950056E0,-8.736000061E0,2.796000242E0,9.611031565E0
1.974236439E0,-2.889000177E0,-8.731050491E0,2.715000153E0,9.588993197E0
1.976735206E0,-2.953050137E0,-8.740950584E0,2.691000223E0,9.610733813E0
1.979233906E0,-2.974950075E0,-8.740950584E0,2.566050053E0,9.583274907E0
1.981732673E0,-3.058950186E0,-8.712000847E0,2.479950190E0,9.560663572E0
1.984231213E0,-2.992050171E0,-8.727000237E0,2.362950087E0,9.523467355E0
1.986729981E0,-3.111000061E0,-8.767050743E0,2.326950073E0,9.589275090E0
1.989228675E0,-3.169050217E0,-8.803050041E0,2.213999987E0,9.614487259E0
1.991727413E0,-3.169050217E0,-8.812950134E0,1.932000041E0,9.562614366E0
1.994225954E0,-3.169050217E0,-8.851050377E0,1.816950083E0,9.575243060E0
1.996724721E0,-2.974950075E0,-8.743050575E0,1.333050013E0,9.331038723E0
1.999223415E0,-3.334050179E0,-8.932950020E0,1.740000129E0,9.692321038E0
2.001722182E0,-3.478050232E0,-8.821949959E0,1.594050050E0,9.615853059E0
2.004220718E0,-3.436950207E0,-8.937000275E0,1.587000132E0,9.705728723E0
2.006719408E0,-3.319950104E0,-9.246000290E0,2.025000095E0,1.003051422E1
2.009218177E0,-3.304950237E0,-9.579000473E0,2.334000111E0,1.039843751E1
2.011716947E0,-3.111000061E0,-9.481050491E0,2.218950033E0,1.022215139E1
2.014215487E0,-2.929950237E0,-9.473999977E0,2.314950228E0,1.018333337E1
2.016714178E0,-3.001050234E0,-9.553050041E0,2.314950228E0,1.027745407E1
2.019212947E0,-3.055950165E0,-9.579000473E0,2.125950098E0,1.027695214E1
2.021711716E0,-3.139950037E0,-9.687000275E0,2.299950123E0,1.043968539E1
2.024210271E0,-2.950950146E0,-9.622050285E0,2.287950039E0,1.032117599E1
2.026708962E0,-2.647050142E0,-9.495000839E0,1.869000077E0,1.003270037E1
2.029207731E0,-3.006000042E0,-9.607950211E0,2.299950123E0,1.032659257E1
2.031706271E0,-3.217050076E0,-9.676950455E0,2.602050066E0,1.052442140E1
2.034205039E0,-2.925000191E0,-9.715950012E0,2.359950066E0,1.041751770E1
2.036703733E0,-2.812050104E0,-9.700950623E0,2.050950050E0,1.030642833E1
2.039202500E0,-2.647050142E0,-9.595950127E0,1.912950039E0,1.013649403E1
2.041701041E0,-2.428950071E0,-9.603000641E0,1.695000052E0,1.004940023E1
2.044199808E0,-2.302050114E0,-9.568950653E0,1.659000039E0,9.980808207E0
2.046698502E0,-2.491050005E0,-9.742050171E0,1.429050088E0,1.015652774E1
2.049197050E0,-2.724000216E0,-1.000995064E1,1.423950076E0,1.047124266E1
2.051695817E0,-2.755050182E0,-1.025700092E1,1.186950088E0,1.068668424E1
2.054194511E0,-2.688000202E0,-1.038300037E1,1.297050118E0,1.080344301E1
2.056693279E0,-2.484000206E0,-1.033800030E1,1.333050013E0,1.071548083E1
2.059192048E0,-2.745000124E0,-1.043100071E1,1.213050008E0,1.085413708E1
2.061690603E0,-2.760000229E0,-1.038600063E1,1.314000010E0,1.082650481E1
2.064189370E0,-2.886000156E0,-1.019895077E1,1.414950013E0,1.069344085E1
2.066688065E0,-2.992050171E0,-1.010595036E1,1.426050067E0,1.063561073E1
2.069186603E0,-3.016050100E0,-9.889950752E0,1.546050072E0,1.045456622E1
2.071685365E0,-2.953050137E0,-9.744000435E0,1.671000123E0,1.031786271E1
2.074184060E0,-2.733000040E0,-9.682050705E0,1.747050047E0,1.021095387E1
2.076682827E0,-2.331000090E0,-9.406949997E0,1.615950108E0,9.825251366E0
2.079181367E0,-2.251950026E0,-9.388050079E0,1.491000056E0,9.768820009E0
2.081680135E0,-1.918950081E0,-9.337050438E0,1.369050026E0,9.630014448E0
2.084178838E0,-1.179000020E0,-9.139050484E0,1.297050118E0,9.305623235E0
2.086677605E0,-1.462050080E0,-8.976000786E0,1.696950078E0,9.251260461E0
2.089176146E0,-1.498050094E0,-8.808000565E0,2.023050070E0,9.160663710E0
2.091674913E0,-1.416000009E0,-8.623950005E0,2.089950085E0,8.985847821E0
2.094173607E0,-1.404000044E0,-8.758049965E0,1.623000026E0,9.017138371E0
2.096672179E0,-1.189050078E0,-8.890050888E0,1.222950101E0,9.052207014E0
2.099170946E0,-1.050000072E0,-8.956950188E0,1.228050113E0,9.101514374E0
2.101669715E0,-1.311000109E0,-9.067049980E0,1.474050045E0,9.279166997E0
2.104168410E0,-1.909950137E0,-9.328050613E0,1.873950124E0,9.704232419E0
2.106667177E0,-2.860050201E0,-9.754050255E0,2.443950176E0,1.045439027E1
2.109165708E0,-2.632950068E0,-9.718050003E0,2.580000162E0,1.039371554E1
2.111664475E0,-2.925000191E0,-9.610050201E0,2.707050085E0,1.040369219E1
2.114163170E0,-3.091950178E0,-9.577050209E0,2.703000069E0,1.042047293E1
2.116661937E0,-3.298050165E0,-9.648000717E0,2.161950111E0,1.042281541E1
2.119160478E0,-3.178950071E0,-9.595950127E0,1.381050110E0,1.020270953E1
2.121659244E0,-3.399000168E0,-9.771000862E0,5.860500336E-1,1.036190690E1
2.124157938E0,-3.793950081E0,-1.014600086E1,4.500000179E-2,1.083223964E1
2.126656477E0,-3.693000078E0,-1.009905052E1,-4.020000100E-1,1.076060756E1
2.129155244E0,-3.006000042E0,-9.972000122E0,-7.080000043E-1,1.043925700E1
2.131653919E0,-2.647050142E0,-9.985950470E0,-7.729500532E-1,1.035970719E1
2.134152686E0,-2.239950180E0,-1.014195061E1,-2.410500050E-1,1.038915993E1
2.136651227E0,-1.684950113E0,-1.023495007E1,3.010500073E-1,1.037708489E1
2.139149994E0,-6.190500259E-1,-1.037595081E1,4.399500191E-1,1.040370772E1
2.141648688E0,8.740500212E-1,-1.032405090E1,4.540500343E-1,1.037092821E1
2.144147471E0,1.219050050E0,-1.009095001E1,1.282950044E0,1.024496540E1
2.146646011E0,1.993950129E0,-9.568950653E0,1.801950097E0,9.939199056E0
2.149144778E0,1.420050025E0,-9.550050735E0,2.925000191E0,1.008839121E1
2.151643473E0,3.349500299E-1,-9.771000862E0,3.556950092E0,1.040367932E1
2.154142240E0,-6.070500016E-1,-9.880950928E0,4.567950249E0,1.090265428E1
2.156640770E0,-1.210950017E0,-1.034505081E1,4.932000160E0,1.152436991E1
2.159139538E0,-8.680500388E-1,-1.063995075E1,4.110000134E0,1.143915049E1
2.161638232E0,-1.210950017E0,-1.072605038E1,2.724000216E0,1.113259780E1
2.164136999E0,-2.158950090E0,-1.056105042E1,1.534050107E0,1.088807426E1
2.166635540E0,-2.608950138E0,-1.023300076E1,9.600000381E-1,1.060389199E1
2.169134312E0,-2.961000204E0,-9.901950836E0,2.680500150E-1,1.033866545E1
2.171633006E0,-2.950950146E0,-9.502050400E0,-6.460500360E-1,9.970679476E0
2.174131545E0,-3.547050238E0,-9.184050560E0,-1.821000099E0,1.001221212E1
2.176630312E0,-4.122000217E0,-8.854050636E0,-2.773950100E0,1.015282708E1
2.179129015E0,-4.414050102E0,-8.775000572E0,-3.349050045E0,1.037789042E1
2.181627782E0,-4.945050240E0,-8.647950172E0,-3.603000164E0,1.059349679E1
2.184126323E0,-4.966950417E0,-8.647950172E0,-3.315000057E0,1.050937030E1
2.186625090E0,-5.464950085E0,-8.593050003E0,-4.783050060E0,1.125094466E1
2.189123784E0,-5.950950146E0,-8.546999931E0,-2.251950026E0,1.065534112E1
2.191622543E0,-6.085050106E0,-8.461050034E0,-1.114950061E0,1.048142720E1
2.194121083E0,-6.115950108E0,-8.218950272E0,1.099500060E-1,1.024539303E1
2.196619773E0,-6.007950306E0,-8.241000175E0,1.981950045E0,1.038930588E1
2.199118543E0,-5.452950478E0,-8.478000641E0,2.479950190E0,1.038081484E1
2.201617083E0,-4.675050259E0,-8.499000549E0,1.423950076E0,9.803914477E0
2.204115859E0,-3.858000278E0,-8.595000267E0,1.045950055E0,9.479040419E0
2.206614554E0,-3.580950260E0,-8.855999947E0,9.550500512E-1,9.600211478E0
2.209113321E0,-3.394050121E0,-8.923050880E0,9.190500379E-1,9.590884538E0
2.211612090E0,-3.210000038E0,-8.893950462E0,1.017000079E0,9.510033871E0
2.214110631E0,-3.195000172E0,-8.808000565E0,1.150950074E0,9.439999265E0
2.216609312E0,-3.114000082E0,-8.796000481E0,1.411950111E0,9.437172462E0
2.219108081E0,-3.054000139E0,-8.782050133E0,1.582050085E0,9.431553629E0
2.221606622E0,-2.398050070E0,-8.530050278E0,1.720950127E0,9.026298866E0
2.224105389E0,-2.592000008E0,-8.703000069E0,1.704000115E0,9.239279768E0
2.226604102E0,-2.599050045E0,-8.758049965E0,1.732950091E0,9.298473872E0
2.229102869E0,-2.434050083E0,-8.716950417E0,1.743000031E0,9.216717066E0
2.231601410E0,-2.431950092E0,-8.880000114E0,1.708950043E0,9.364256165E0
2.234100177E0,-2.044049978E0,-8.983050346E0,1.680000067E0,9.364600048E0
2.236598871E0,-1.588950038E0,-8.944950104E0,1.671000123E0,9.237377117E0
2.239097634E0,-1.977000117E0,-8.695950508E0,1.684950113E0,9.075634501E0
2.241596174E0,-2.332950115E0,-8.035050392E0,1.057950020E0,8.433501603E0
2.244094864E0,-3.444000244E0,-8.056050301E0,9.499500394E-1,8.812689102E0
2.246593634E0,-3.753000259E0,-8.595000267E0,1.314000010E0,9.470250079E0
2.249092169E0,-3.745950222E0,-9.186000824E0,1.503000021E0,1.003363161E1
2.251590936E0,-3.352950096E0,-9.292050362E0,1.333050013E0,9.968023706E0
2.254089631E0,-2.818950176E0,-9.268050194E0,8.230500221E-1,9.722172897E0
2.256588398E0,-2.608950138E0,-9.316050529E0,3.079500198E-1,9.679372475E0
2.259087167E0,-2.736000061E0,-9.249000549E0,1.140000075E-1,9.645864580E0
2.261585708E0,-2.749950171E0,-9.073950768E0,3.990000188E-1,9.489889856E0
2.264084475E0,-2.637000084E0,-8.854050636E0,5.479500294E-1,9.254632967E0
2.266583169E0,-3.042000055E0,-8.830050468E0,4.620000124E-1,9.350775349E0
2.269081936E0,-3.376950264E0,-8.832000732E0,4.020000100E-1,9.464123522E0
2.271580477E0,-3.447000265E0,-8.937000275E0,3.970500231E-1,9.586940777E0
2.274079167E0,-3.376950264E0,-9.021000862E0,3.229500055E-1,9.637766668E0
2.276577936E0,-3.217050076E0,-9.037950516E0,3.679500222E-1,9.600486859E0
2.279076477E0,-3.078000069E0,-9.019050598E0,3.559500277E-1,9.536459434E0
2.281575244E0,-3.532950163E0,-9.366000175E0,2.890500128E-1,1.001435200E1
2.284073938E0,-3.745950222E0,-9.567000389E0,2.530499995E-1,1.027733788E1
2.286572482E0,-3.906000137E0,-9.715950012E0,1.050000042E-1,1.047222740E1
2.289071249E0,-3.781950235E0,-9.751049995E0,-6.405000389E-2,1.045897825E1
2.291569943E0,-3.733950138E0,-9.613050461E0,-1.690500081E-1,1.031415051E1
2.294068711E0,-3.741000175E0,-9.505050659E0,-2.200500071E-1,1.021711761E1
2.296567251E0,-3.637950182E0,-9.473999977E0,-3.060000241E-1,1.015307801E1
2.299066027E0,-3.583050251E0,-9.423000336E0,-3.180000186E-1,1.008624352E1
2.301564722E0,-3.532950163E0,-9.454950333E0,-3.349500299E-1,1.009901055E1
2.304063489E0,-3.580950260E0,-9.462000847E0,-3.040500283E-1,1.012151724E1
2.306562029E0,-3.492000103E0,-9.483000755E0,-3.040500283E-1,1.011008479E1
2.309060807E0,-3.439950228E0,-9.411000252E0,-2.629500031E-1,1.002343883E1
2.311559576E0,-3.412950277E0,-9.421050072E0,-2.560500205E-1,1.002347124E1
2.314058270E0,-3.379950047E0,-9.442950249E0,-2.149500102E-1,1.003192779E1
2.316556809E0,-3.349050045E0,-9.433050156E0,-1.459500045E-1,1.001098761E1
2.319055576E0,-3.315000057E0,-9.466950417E0,-8.100000024E-2,1.003089909E1
2.321554284E0,-3.328950167E0,-9.427950859E0,-1.095000096E-2,9.998414200E0
2.324053051E0,-3.313050270E0,-9.294000626E0,5.895000324E-2,9.867027152E0
2.326551592E0,-3.262050152E0,-9.196050644E0,1.170000061E-1,9.758176451E0
2.329050359E0,-3.226050138E0,-9.253050804E0,2.220000178E-1,9.801817826E0
2.331549053E0,-3.123000145E0,-9.289050102E0,3.829500079E-1,9.807458000E0
2.334047812E0,-2.854950190E0,-9.409049988E0,5.020500422E-1,9.845456643E0
2.336546352E0,-2.707050085E0,-9.340050697E0,6.990000606E-1,9.749526567E0
2.339045119E0,-2.848050117E0,-8.973000526E0,9.120000601E-1,9.458217170E0
2.341543814E0,-2.992050171E0,-8.763000488E0,1.065000057E0,9.320770725E0
2.344042342E0,-3.214050055E0,-8.905950546E0,1.314000010E0,9.558905215E0
2.346541109E0,-3.480000257E0,-9.012000084E0,1.252050042E0,9.741364207E0
2.349039804E0,-3.214050055E0,-8.925000191E0,8.539500237E-1,9.524441023E0
2.351538571E0,-3.058950186E0,-8.892000198E0,5.550000072E-1,9.419812566E0
2.354037111E0,-3.133050203E0,-8.971050262E0,6.199500561E-1,9.522609120E0
2.356535860E0,-3.178950071E0,-9.057000160E0,7.129500508E-1,9.625137570E0
2.359034554E0,-3.163950205E0,-9.007050514E0,7.819500566E-1,9.578569087E0
2.361533321E0,-3.669000149E0,-8.833950043E0,9.330000281E-1,9.610968968E0
2.364031862E0,-3.763050079E0,-8.559000015E0,7.780500650E-1,9.382024785E0
2.366530552E0,-3.648000240E0,-8.410950661E0,7.180500627E-1,9.196063977E0
2.369029326E0,-3.717000246E0,-8.439000130E0,8.140500188E-1,9.257185936E0
2.371528096E0,-3.664950132E0,-8.583000183E0,8.640000224E-1,9.372632909E0
2.374026636E0,-3.556950092E0,-8.703000069E0,7.780500650E-1,9.433952833E0
2.376525403E0,-3.640950203E0,-8.794050217E0,7.560000420E-1,9.547951281E0
2.379024098E0,-3.691050291E0,-8.863050461E0,7.200000286E-1,9.627871819E0
2.381522874E0,-3.705000162E0,-8.869950294E0,6.960000396E-1,9.637814093E0
2.384021414E0,-3.727050066E0,-8.896950722E0,7.420500517E-1,9.674568343E0
2.386520181E0,-3.757950068E0,-8.941950798E0,7.920000553E-1,9.731800289E0
2.389018876E0,-3.715050220E0,-8.959050179E0,7.990500331E-1,9.731631888E0
2.391517624E0,-3.853950262E0,-9.076050758E0,8.470500112E-1,9.896722877E0
2.394016164E0,-4.005000114E0,-9.117000580E0,9.310500622E-1,1.000132890E1
2.396514932E0,-4.072050095E0,-9.153000832E0,9.330000281E-1,1.006128745E1
2.399013626E0,-4.026000023E0,-9.193950653E0,8.470500112E-1,1.007248224E1
2.401512159E0,-4.026000023E0,-9.154950142E0,7.060500383E-1,1.002598100E1
2.404010927E0,-4.038000107E0,-9.139050484E0,6.049500108E-1,1.000967797E1
2.406509621E0,-3.976050138E0,-9.109950066E0,5.500500202E-1,9.955034903E0
2.409008388E0,-4.000050068E0,-9.085950851E0,5.239500403E-1,9.941299063E0
2.411506929E0,-3.945000172E0,-9.055050850E0,5.310000181E-1,9.891356493E0
2.414005596E0,-3.906000137E0,-9.048000336E0,5.239500403E-1,9.869025828E0
2.416504442E0,-3.892050266E0,-9.069000244E0,5.650500059E-1,9.885044371E0
2.419003137E0,-3.778950214E0,-9.093000412E0,5.959500074E-1,9.865002667E0
2.421501675E0,-3.741000175E0,-9.162000656E0,5.890500546E-1,9.913844779E0
2.424000437E0,-3.769950151E0,-9.220050812E0,6.390000582E-1,9.981491982E0
2.426499132E0,-3.691050291E0,-9.246000290E0,6.220500469E-1,9.974934580E0
2.428997899E0,-3.685950279E0,-9.289050102E0,6.199500561E-1,1.001284272E1
2.431496439E0,-3.757950068E0,-9.301050186E0,6.030000448E-1,1.004964339E1
2.433995211E0,-3.744000196E0,-9.298950195E0,5.479500294E-1,1.003933571E1
2.436493906E0,-3.756000280E0,-9.301050186E0,4.810500145E-1,1.004233448E1
2.438992673E0,-3.799050093E0,-9.265050888E0,4.740000367E-1,1.002490028E1
2.441491214E0,-3.787050247E0,-9.256050110E0,3.990000188E-1,1.000876687E1
2.443989904E0,-3.768000126E0,-9.274950027E0,3.109500110E-1,1.001594793E1
2.446488692E0,-3.790950298E0,-9.265050888E0,2.440500110E-1,1.001359239E1
2.448987233E0,-3.652950287E0,-9.280050278E0,1.429500133E-1,9.974157291E0
2.451486000E0,-3.588000059E0,-9.250950813E0,1.960500032E-1,9.924327230E0
2.453984694E0,-3.703050137E0,-9.265050888E0,2.560500205E-1,9.980947344E0
2.456483461E0,-3.580950260E0,-9.258000374E0,3.040500283E-1,9.931073563E0
2.458982002E0,-3.508950233E0,-9.337050438E0,3.850500286E-1,9.982059214E0
2.461480692E0,-3.207000256E0,-9.439949989E0,4.020000100E-1,9.977931171E0
2.463979461E0,-2.857950211E0,-9.628950119E0,4.020000100E-1,1.005217209E1
2.466478002E0,-2.818950176E0,-9.889950752E0,5.569500327E-1,1.029892224E1
2.468976769E0,-3.265050173E0,-1.000005054E1,8.470500112E-1,1.055362768E1
2.471475449E0,-3.396000147E0,-9.780000687E0,8.110500574E-1,1.038455741E1
2.473974217E0,-3.540000200E0,-9.421050072E0,8.470500112E-1,1.009976631E1
2.476472986E0,-3.724050283E0,-9.262950897E0,8.140500188E-1,1.001666048E1
2.478971526E0,-3.847050190E0,-9.061950684E0,5.620500445E-1,9.860762932E0
2.481470294E0,-4.017000198E0,-8.925000191E0,1.120500043E-1,9.787976001E0
2.483968997E0,-4.123950005E0,-8.857950211E0,-2.269500047E-1,9.773523002E0
2.486467535E0,-4.057050228E0,-8.782050133E0,-3.709500134E-1,9.680995042E0
2.488966303E0,-3.946950197E0,-8.748000145E0,-3.919500113E-1,9.605183351E0
2.491464997E0,-3.814950228E0,-8.719950676E0,-2.220000178E-1,9.520539325E0
2.493963764E0,-3.721950293E0,-8.770050049E0,5.205000192E-2,9.527297678E0
2.496462305E0,-3.562050104E0,-8.848950386E0,2.839500010E-1,9.543204466E0
2.498961072E0,-3.451050282E0,-8.932950020E0,4.879500270E-1,9.588818453E0
2.501459766E0,-3.292950153E0,-8.925000191E0,6.360000372E-1,9.534340311E0
2.503958533E0,-3.363000154E0,-8.959050179E0,7.579500079E-1,9.599418647E0
2.506457074E0,-3.319950104E0,-8.949000359E0,7.230000496E-1,9.572324962E0
2.508955841E0,-3.466050148E0,-8.851050377E0,7.420500517E-1,9.534423668E0
2.511454535E0,-3.733950138E0,-8.715000153E0,7.900500298E-1,9.514083789E0
2.513953074E0,-4.014000416E0,-8.619000435E0,7.440000176E-1,9.536923186E0
2.516451841E0,-4.189050198E0,-8.572950363E0,5.100000501E-1,9.555297983E0
2.518950521E0,-4.147950172E0,-8.599950790E0,4.039500058E-1,9.556558996E0
2.521449289E0,-4.147950172E0,-8.692950249E0,3.870000243E-1,9.639639188E0
2.523947829E0,-4.306050301E0,-8.770050049E0,4.639500082E-1,9.781160292E0
2.526446596E0,-4.596000195E0,-8.815050125E0,4.999500215E-1,9.953807137E0
2.528945305E0,-3.858000278E0,-8.664000511E0,1.020000055E-1,9.484696885E0
2.531444072E0,-3.331950188E0,-8.784000397E0,-2.805000171E-2,9.394750759E0
2.533942612E0,-2.605950117E0,-8.755050659E0,9.000000544E-3,9.134657577E0
2.536441380E0,-2.247000217E0,-8.632950783E0,-1.770000011E-1,8.922341520E0
2.538940093E0,-2.937000036E0,-8.595000267E0,3.060000241E-1,9.088104028E0
2.541438860E0,-3.195000172E0,-8.815050125E0,9.840000272E-1,9.427692764E0
2.543937401E0,-3.349050045E0,-8.836950302E0,1.192050099E0,9.525167205E0
2.546436168E0,-3.814950228E0,-8.854050636E0,1.134000063E0,9.707420566E0
2.548934862E0,-3.897000074E0,-8.782050133E0,8.809500337E-1,9.648164959E0
2.551433629E0,-3.645000219E0,-8.776950836E0,5.530500412E-1,9.519808660E0
2.553932170E0,-3.540000200E0,-8.818050385E0,4.930500090E-1,9.514867961E0
2.556430937E0,-3.301050186E0,-8.845950127E0,4.950000346E-1,9.454776095E0
2.558929631E0,-3.076050043E0,-8.968950272E0,5.209500194E-1,9.496080337E0
2.561428170E0,-3.082950115E0,-9.115050316E0,7.320000529E-1,9.650106101E0
2.563926923E0,-2.926950216E0,-9.129000664E0,8.850000501E-1,9.627508285E0
2.566425617E0,-2.994000196E0,-9.184050560E0,1.018950105E0,9.713345519E0
2.568924385E0,-3.226050138E0,-9.213000298E0,1.012050033E0,9.813817771E0
2.571422925E0,-3.379950047E0,-9.196050644E0,7.939500213E-1,9.829637145E0
2.573921706E0,-3.514050245E0,-9.127050400E0,6.049500108E-1,9.798855170E0
2.576420401E0,-3.633000135E0,-9.067049980E0,4.279500246E-1,9.777178865E0
2.578919168E0,-3.751050234E0,-9.028050423E0,2.560500205E-1,9.779654079E0
2.581417708E0,-3.868050098E0,-8.977950096E0,1.260000020E-1,9.776567674E0
2.583916476E0,-4.000050068E0,-8.923050880E0,9.795000404E-2,9.779101787E0
2.586415180E0,-4.081050396E0,-8.893950462E0,9.495000541E-2,9.786027931E0
2.588913947E0,-4.118999958E0,-8.851050377E0,9.300000221E-2,9.762986348E0
2.591412488E0,-4.033050060E0,-8.827050209E0,8.595000207E-2,9.705137587E0
2.593911255E0,-3.994950294E0,-8.884950638E0,1.669500023E-1,9.743194958E0
2.596409949E0,-3.973050117E0,-8.890050888E0,2.290500104E-1,9.740153794E0
2.598908740E0,-3.925950289E0,-8.913000107E0,2.719500065E-1,9.743131600E0
2.601407281E0,-3.898950100E0,-8.949000359E0,3.199500144E-1,9.766718349E0
2.603906048E0,-3.909000158E0,-8.964000702E0,3.559500277E-1,9.785718739E0
2.606404742E0,-3.921000242E0,-9.021000862E0,3.679500222E-1,9.843174624E0
2.608903510E0,-3.909000158E0,-9.057000160E0,3.180000186E-1,9.869683792E0
2.611402064E0,-3.909000158E0,-9.081000328E0,2.820000052E-1,9.890620466E0
2.613900754E0,-3.838950157E0,-9.124050140E0,3.109500110E-1,9.903661908E0
2.616399524E0,-3.844050169E0,-9.148050308E0,3.349500299E-1,9.928531496E0
2.618898064E0,-3.856050253E0,-9.177000046E0,3.829500079E-1,9.961581406E0
2.621396831E0,-3.910950184E0,-9.153000832E0,4.039500058E-1,9.961733342E0
2.623895522E0,-3.942000151E0,-9.157950401E0,4.420500100E-1,9.980121690E0
2.626394289E0,-3.949050188E0,-9.145950317E0,3.679500222E-1,9.968891203E0
2.628892829E0,-3.988050222E0,-9.150000572E0,3.420000076E-1,9.987192751E0
2.631391597E0,-4.021049976E0,-9.150000572E0,3.730500042E-1,1.000152587E1
2.633890291E0,-3.985050201E0,-9.181950569E0,3.730500042E-1,1.001638696E1
2.636389043E0,-3.906000137E0,-9.217950821E0,3.420000076E-1,1.001720612E1
2.638887584E0,-3.856050253E0,-9.268050194E0,3.850500286E-1,1.004560309E1
2.641386274E0,-3.756000280E0,-9.322950363E0,4.330500066E-1,1.006044104E1
2.643885043E0,-3.733950138E0,-9.361050606E0,4.330500066E-1,1.008757574E1
2.646383574E0,-3.681000233E0,-9.364050865E0,4.620000124E-1,1.007217232E1
2.648882341E0,-3.633000135E0,-9.355950356E0,4.860000312E-1,1.004831792E1
2.651381110E0,-3.592950106E0,-9.349050522E0,5.239500403E-1,1.002938481E1
2.653879804E0,-3.607050180E0,-9.313050270E0,5.650500059E-1,1.000314940E1
2.656378572E0,-3.643050194E0,-9.325050354E0,4.930500090E-1,1.002354614E1
2.658877122E0,-3.564000130E0,-9.328050613E0,4.090500176E-1,9.994095611E0
2.661375812E0,-3.460950136E0,-9.331950188E0,3.829500079E-1,9.960427745E0
2.663874582E0,-3.349050045E0,-9.298950195E0,4.570500255E-1,9.894215768E0
2.666373122E0,-3.243000269E0,-9.298950195E0,4.189500213E-1,9.857131662E0
2.668871878E0,-3.556950092E0,-9.282000542E0,6.169500351E-1,9.959320025E0
2.671370573E0,-3.535050154E0,-9.273000717E0,4.999500215E-1,9.936552315E0
2.673869340E0,-3.415950060E0,-9.280050278E0,4.500000179E-1,9.899017526E0
2.676367880E0,-3.420000076E0,-9.262950897E0,4.980000257E-1,9.886691250E0
2.678866648E0,-3.472950220E0,-9.270000458E0,5.329500437E-1,9.913542630E0
2.681365328E0,-3.490050077E0,-9.306000710E0,5.500500202E-1,9.954127474E0
2.683864095E0,-3.580950260E0,-9.319950104E0,6.079500318E-1,1.000271353E1
2.686362636E0,-3.502050161E0,-9.316050529E0,5.910000205E-1,9.970076922E0
2.688861326E0,-3.507000208E0,-9.346950531E0,5.530500412E-1,9.998519842E0
2.691360095E0,-3.514050245E0,-9.318000793E0,5.740500093E-1,9.975130141E0
2.693858636E0,-3.499050140E0,-9.340050697E0,4.780500233E-1,9.985410895E0
2.696357403E0,-3.439950228E0,-9.354000092E0,4.330500066E-1,9.975876282E0
2.698856097E0,-3.436950207E0,-9.358950615E0,4.780500233E-1,9.981538717E0
2.701354636E0,-3.376950264E0,-9.328050613E0,4.980000257E-1,9.932991763E0
2.703853403E0,-3.313050270E0,-9.307950020E0,5.239500403E-1,9.893874838E0
2.706352121E0,-3.303000212E0,-9.304050446E0,5.239500403E-1,9.886844225E0
2.708850889E0,-3.387000084E0,-9.294000626E0,5.929500461E-1,9.909682485E0
2.711349658E0,-3.363000154E0,-9.298950195E0,5.809500217E-1,9.905440308E0
2.713848198E0,-3.352950096E0,-9.331950188E0,5.449500084E-1,9.930988831E0
2.716346965E0,-2.922000170E0,-9.403950691E0,3.949500322E-1,9.855372095E0
2.718845645E0,-3.229050159E0,-9.538050652E0,5.770500302E-1,1.008633540E1
2.721344412E0,-3.612000227E0,-9.316050529E0,6.390000582E-1,1.001217580E1
2.723842952E0,-3.882000208E0,-9.261000633E0,5.959500074E-1,1.005938441E1
2.726341720E0,-3.982950211E0,-9.237000465E0,5.479500294E-1,1.007404185E1
2.728840414E0,-3.949050188E0,-9.184050560E0,4.159500301E-1,1.000573818E1
2.731338953E0,-3.808050156E0,-9.142950058E0,2.200500071E-1,9.906725178E0
2.733837720E0,-3.669000149E0,-9.202950478E0,2.200500071E-1,9.909807344E0
2.736336414E0,-3.520950079E0,-9.220050812E0,3.010500073E-1,9.874059831E0
2.738835181E0,-3.459000111E0,-9.234000206E0,4.069500268E-1,9.868994371E0
2.741333722E0,-3.435000181E0,-9.241050720E0,5.100000501E-1,9.871998010E0
2.743832489E0,-3.532950163E0,-9.208050728E0,6.150000095E-1,9.881708358E0
2.746331183E0,-3.502050161E0,-9.202950478E0,5.599500537E-1,9.862666824E0
2.748829951E0,-3.657000065E0,-9.164999962E0,4.980000257E-1,9.880226607E0
2.751328491E0,-3.664950132E0,-9.097949982E0,4.140000343E-1,9.817125311E0
2.753827273E0,-3.727050066E0,-9.081000328E0,2.920500040E-1,9.820425773E0
2.756325968E0,-3.717000246E0,-9.055050850E0,2.560500205E-1,9.791608567E0
2.758824735E0,-3.697950125E0,-9.037950516E0,2.530499995E-1,9.768491130E0
2.761323275E0,-3.669000149E0,-8.992050171E0,2.389500141E-1,9.714711806E0
2.763821966E0,-3.636000156E0,-9.007050514E0,2.890500128E-1,9.717561732E0
2.766320740E0,-3.574050188E0,-9.024000168E0,3.180000186E-1,9.711206814E0
2.768819280E0,-3.520950079E0,-9.031050682E0,3.610500097E-1,9.699862009E0
2.771318048E0,-3.516000271E0,-9.049950600E0,3.990000188E-1,9.717153121E0
2.773816742E0,-3.547050238E0,-9.048000336E0,4.660500288E-1,9.729598044E0
2.776315509E0,-3.571050167E0,-9.048000336E0,4.780500233E-1,9.738954831E0
2.778814050E0,-3.633000135E0,-9.013950348E0,5.959500074E-1,9.736793480E0
2.781312817E0,-3.739050150E0,-9.076050758E0,5.959500074E-1,9.834142047E0
2.783811511E0,-3.628950119E0,-9.097949982E0,4.639500082E-1,9.805978913E0
2.786310278E0,-3.490050077E0,-9.082950592E0,3.780000210E-1,9.737726892E0
2.788808809E0,-3.487050056E0,-9.100049973E0,4.140000343E-1,9.754067030E0
2.791307576E0,-3.655050278E0,-9.093000412E0,4.900500178E-1,9.812349262E0
2.793806270E0,-3.693000078E0,-9.048000336E0,4.570500255E-1,9.783325323E0
2.796305038E0,-3.588000059E0,-8.985000610E0,3.660000265E-1,9.681835384E0
2.798803578E0,-3.516000271E0,-8.917950630E0,3.900000155E-1,9.593966925E0
2.801302345E0,-3.463050127E0,-8.884950638E0,3.589500189E-1,9.542741175E0
2.803801040E0,-3.444000244E0,-8.878050804E0,2.800500095E-1,9.526770270E0
2.806299807E0,-3.519000053E0,-9.000000000E0,3.250500262E-1,9.668971967E0
2.808798347E0,-3.691050291E0,-8.992050171E0,4.090500176E-1,9.728727586E0
2.811297115E0,-3.760050297E0,-8.923050880E0,3.589500189E-1,9.689564509E0
2.813795818E0,-3.993000269E0,-8.821949959E0,3.589500189E-1,9.690185619E0
2.816294356E0,-4.107000351E0,-8.608950615E0,1.840500087E-1,9.540196905E0
2.818793124E0,-3.873000145E0,-8.599950790E0,-9.300000221E-2,9.432281417E0
2.821291818E0,-3.781950235E0,-8.812950134E0,-2.460000068E-1,9.593318178E0
2.823790580E0,-3.744000196E0,-8.913000107E0,-2.320500165E-1,9.670209697E0
2.826289121E0,-3.748050213E0,-8.925000191E0,-1.050000042E-1,9.680626726E0
2.828787811E0,-3.796050072E0,-8.947050095E0,2.295000106E-2,9.719065194E0
2.831286580E0,-3.802950144E0,-8.988000870E0,1.140000075E-1,9.760101712E0
2.833785121E0,-3.649950266E0,-9.013950348E0,2.680500150E-1,9.728581018E0
2.836283888E0,-3.544950247E0,-9.085950851E0,3.610500097E-1,9.759689147E0
2.838782582E0,-3.544950247E0,-9.094950676E0,3.400500119E-1,9.767314578E0
2.841281349E0,-3.519000053E0,-9.064050674E0,4.780500233E-1,9.734932348E0
2.843780119E0,-3.508950233E0,-9.094950676E0,5.479500294E-1,9.763765092E0
2.846278659E0,-3.454050064E0,-9.115050316E0,5.359500051E-1,9.762266464E0
2.848777426E0,-3.448950052E0,-9.162000656E0,5.530500412E-1,9.805272910E0
2.851276121E0,-3.447000265E0,-9.190950394E0,6.000000238E-1,9.834397795E0
2.853774659E0,-3.447000265E0,-9.225000381E0,6.000000238E-1,9.866227389E0
2.856273422E0,-3.496950150E0,-9.225000381E0,6.150000095E-1,9.884711296E0
2.858772117E0,-3.559050083E0,-9.213000298E0,5.310000181E-1,9.890812555E0
2.861270884E0,-3.604950190E0,-9.210000038E0,4.980000257E-1,9.902917277E0
2.863769424E0,-3.598050117E0,-9.193950653E0,3.990000188E-1,9.880986503E0
2.866268192E0,-3.652950287E0,-9.201000214E0,3.079500198E-1,9.904407299E0
2.868766905E0,-3.736050129E0,-9.142950058E0,2.920500040E-1,9.881138575E0
2.871265672E0,-3.751050234E0,-9.106950760E0,2.080500126E-1,9.851406743E0
2.873764213E0,-3.789000273E0,-9.164999962E0,2.560500205E-1,9.920650633E0
2.876262980E0,-3.778950214E0,-9.177000046E0,2.269500047E-1,9.927200052E0
2.878761669E0,-3.849000216E0,-9.162000656E0,2.560500205E-1,9.940956709E0
2.881260208E0,-3.885000229E0,-9.106950760E0,2.269500047E-1,9.903599610E0
2.883758975E0,-3.906000137E0,-9.085950851E0,1.140000075E-1,9.890618583E0
2.886257669E0,-3.901950121E0,-9.057000160E0,4.695000127E-2,9.861879686E0
2.888756436E0,-3.814950228E0,-8.896950722E0,-1.099500060E-1,9.680995114E0
2.891254977E0,-3.913950205E0,-9.118950844E0,1.669500023E-1,9.924824583E0
2.893753744E0,-3.837000132E0,-9.196050644E0,1.050000042E-1,9.964985823E0
2.896252438E0,-3.769950151E0,-9.225000381E0,2.595000155E-2,9.965632423E0
2.898751206E0,-3.697950125E0,-9.238950729E0,-1.095000096E-2,9.951540866E0
2.901249746E0,-3.772050142E0,-9.258000374E0,7.605000585E-2,9.997235458E0
2.903748518E0,-3.784050226E0,-9.277050018E0,1.170000061E-1,1.001979951E1
2.906247213E0,-3.765000105E0,-9.261000633E0,1.000500023E-1,9.997568130E0
2.908745980E0,-3.733950138E0,-9.232050896E0,1.240500063E-1,9.959344144E0
2.911244520E0,-3.673950195E0,-9.208050728E0,1.530000120E-1,9.915115594E0
2.913743283E0,-3.628950119E0,-9.198000908E0,2.200500071E-1,9.890445980E0
2.916241977E0,-3.576000214E0,-9.160050392E0,2.560500205E-1,9.836659104E0
2.918740744E0,-3.574050188E0,-9.148050308E0,2.989500165E-1,9.825987498E0
2.921239285E0,-3.528000116E0,-9.115050316E0,3.300000131E-1,9.779561702E0
2.923738052E0,-3.499050140E0,-9.105000496E0,3.469500244E-1,9.760366808E0
2.926236741E0,-3.495000124E0,-9.103050232E0,3.610500097E-1,9.757607622E0
2.928735280E0,-3.508950233E0,-9.139050484E0,4.110000134E-1,9.798157811E0
2.931234047E0,-3.490050077E0,-9.153000832E0,4.540500343E-1,9.806326285E0
2.933732741E0,-3.528000116E0,-9.145950317E0,4.900500178E-1,9.815056854E0
2.936231508E0,-3.540000200E0,-9.174000740E0,4.710000157E-1,9.844578813E0
2.938730054E0,-3.496950150E0,-9.193950653E0,4.830000103E-1,9.848384536E0
2.941228821E0,-3.507000208E0,-9.229050636E0,4.660500288E-1,9.883907564E0
2.943727515E0,-3.408000231E0,-9.208050728E0,4.090500176E-1,9.827002885E0
2.946226283E0,-3.451050282E0,-9.184050560E0,4.279500246E-1,9.820370357E0
2.948724804E0,-3.507000208E0,-9.201000214E0,4.470000267E-1,9.856838459E0
2.951223571E0,-3.507000208E0,-9.190950394E0,5.190000534E-1,9.850988816E0
2.953722266E0,-3.577950239E0,-9.198000908E0,5.140500069E-1,9.882772689E0
2.956221033E0,-3.568950176E0,-9.190950394E0,4.260000288E-1,9.868761347E0
2.958719573E0,-3.564000130E0,-9.178950310E0,3.750000298E-1,9.853722684E0
2.961218336E0,-3.559050083E0,-9.169950485E0,3.900000155E-1,9.844131724E0
2.963717030E0,-3.568950176E0,-9.174000740E0,4.350000322E-1,9.853370995E0
2.966215568E0,-3.672000170E0,-9.184050560E0,4.860000312E-1,9.902856455E0
2.968714336E0,-3.601950169E0,-9.129000664E0,4.399500191E-1,9.823759675E0
2.971213105E0,-3.621000290E0,-9.118950844E0,4.980000257E-1,9.824200304E0
2.973711799E0,-3.565950155E0,-9.133950233E0,5.050500035E-1,9.818356425E0
2.976210566E0,-3.550050259E0,-9.189000130E0,5.070000291E-1,9.863956065E0
2.978709107E0,-3.562050104E0,-9.196050644E0,5.119500160E-1,9.875102086E0
2.981207797E0,-3.541950226E0,-9.205950737E0,4.210500121E-1,9.872802210E0
2.983706551E0,-3.496950150E0,-9.178950310E0,3.510000110E-1,9.828783757E0
2.986205092E0,-3.451050282E0,-9.169950485E0,3.300000131E-1,9.803399408E0
2.988703859E0,-3.444000244E0,-9.217950821E0,2.869500220E-1,9.844495687E0
2.991202554E0,-3.358050108E0,-9.253050804E0,3.229500055E-1,9.848844928E0
2.993701321E0,-3.382050276E0,-9.237000465E0,3.870000243E-1,9.844298385E0
2.996199852E0,-3.424950123E0,-9.265050888E0,4.189500213E-1,9.886706753E0
2.998698619E0,-3.435000181E0,-9.246000290E0,4.879500270E-1,9.875517345E0
3.001197314E0,-3.418050051E0,-9.234000206E0,5.239500403E-1,9.860240849E0
3.003696081E0,-3.412950277E0,-9.208050728E0,4.570500255E-1,9.830835291E0
3.006194621E0,-3.430050135E0,-9.232050896E0,4.639500082E-1,9.859576932E0
3.008693326E0,-3.480000257E0,-9.250950813E0,4.020000100E-1,9.892021874E0
3.011192095E0,-3.460950136E0,-9.262950897E0,3.870000243E-1,9.895969088E0
3.013690635E0,-3.415950060E0,-9.246000290E0,3.319500089E-1,9.862425005E0
3.016189403E0,-3.442050219E0,-9.184050560E0,4.420500100E-1,9.817835943E0
3.018688097E0,-3.436950207E0,-9.184050560E0,5.329500437E-1,9.820562467E0
3.021186646E0,-3.418050051E0,-9.162000656E0,5.790000558E-1,9.795946266E0
3.023685413E0,-3.448950052E0,-9.205950737E0,6.199500561E-1,9.850336213E0
3.026184107E0,-3.471000195E0,-9.205950737E0,5.689499974E-1,9.855002558E0
3.028682874E0,-3.327000141E0,-9.186000824E0,4.879500270E-1,9.782107968E0
3.031181415E0,-3.343950272E0,-9.190950394E0,5.100000501E-1,9.793654712E0
3.033680182E0,-3.580950260E0,-9.184050560E0,6.340500116E-1,9.877854467E0
3.036178876E0,-3.514050245E0,-9.127050400E0,5.980500579E-1,9.798431609E0
3.038677644E0,-3.454050064E0,-9.032999992E0,5.839500427E-1,9.688475028E0
3.041176413E0,-3.463050127E0,-8.995050430E0,5.910000205E-1,9.656755638E0
3.043674957E0,-3.463050127E0,-8.941950798E0,5.569500327E-1,9.605279465E0
3.046173724E0,-3.424950123E0,-8.935050011E0,5.740500093E-1,9.586184614E0
3.048672419E0,-3.388950109E0,-9.021000862E0,5.569500327E-1,9.652649001E0
3.051171186E0,-3.364950180E0,-9.093000412E0,5.599500537E-1,9.711801598E0
3.053669727E0,-3.375000238E0,-9.154950142E0,5.260500312E-1,9.771410714E0
3.056168384E0,-3.370050192E0,-9.127050400E0,5.359500051E-1,9.744102304E0
3.058667153E0,-3.396000147E0,-9.093000412E0,5.190000534E-1,9.720330989E0
3.061165694E0,-3.439950228E0,-9.040050507E0,5.410500169E-1,9.687543850E0
3.063664461E0,-3.463050127E0,-8.983050346E0,5.860500336E-1,9.645276790E0
3.066163155E0,-3.568950176E0,-8.901000023E0,7.150500417E-1,9.616470420E0
3.068661690E0,-3.583050251E0,-8.881950378E0,5.329500437E-1,9.592253509E0
3.071160457E0,-3.568950176E0,-8.866050720E0,3.990000188E-1,9.565744182E0
3.073659151E0,-3.424950123E0,-8.857950211E0,3.679500222E-1,9.504154486E0
3.076157918E0,-3.210000038E0,-8.866050720E0,1.410000026E-1,9.430314768E0
3.078656449E0,-3.717000246E0,-8.961000443E0,3.870000243E-1,9.709036450E0
3.081155216E0,-3.820050240E0,-8.977950096E0,2.610000074E-1,9.760353107E0
3.083653910E0,-3.841950178E0,-9.007050514E0,2.410500050E-1,9.795184799E0
3.086152678E0,-3.640950203E0,-9.045000076E0,1.909500062E-1,9.752179585E0
3.088651218E0,-3.823050261E0,-9.045000076E0,3.780000210E-1,9.827035346E0
3.091149985E0,-3.720000267E0,-9.048000336E0,3.829500079E-1,9.790370921E0
3.093648680E0,-3.660000086E0,-9.032999992E0,4.620000124E-1,9.757260553E0
3.096147447E0,-3.592950106E0,-9.032999992E0,5.170500278E-1,9.735076787E0
3.098645987E0,-3.541950226E0,-9.032999992E0,4.980000257E-1,9.715374635E0
3.101144755E0,-3.502050161E0,-9.045000076E0,4.930500090E-1,9.711821664E0
3.103643454E0,-3.442050219E0,-9.021000862E0,5.550000072E-1,9.671307630E0
3.106142221E0,-3.376950264E0,-9.001950264E0,5.650500059E-1,9.631104981E0
3.108640762E0,-3.246000051E0,-8.976000786E0,5.140500069E-1,9.558731812E0
3.111139529E0,-3.258000135E0,-9.032999992E0,5.500500202E-1,9.618326714E0
3.113638223E0,-3.637950182E0,-9.105000496E0,7.609500289E-1,9.834366299E0
3.116136995E0,-3.763050079E0,-9.117000580E0,6.889500618E-1,9.887107649E0
3.118635536E0,-3.732000113E0,-9.073950768E0,4.999500215E-1,9.824172097E0
3.121134226E0,-3.745950222E0,-9.130949974E0,4.279500246E-1,9.878741404E0
3.123632995E0,-3.765000105E0,-9.097949982E0,3.709500134E-1,9.853198647E0
3.126131536E0,-3.892050266E0,-9.082950592E0,4.300500154E-1,9.891056048E0
3.128630303E0,-3.934950113E0,-9.037950516E0,4.810500145E-1,9.869133246E0
3.131128997E0,-3.973050117E0,-8.992050171E0,5.310000181E-1,9.845001500E0
3.133627765E0,-4.087950230E0,-9.001950264E0,6.289500594E-1,9.906665625E0
3.136126305E0,-4.194000244E0,-8.976000786E0,7.150500417E-1,9.933253481E0
3.138625072E0,-4.242000103E0,-8.977950096E0,7.009500265E-1,9.954370083E0
3.141123771E0,-4.266000271E0,-8.941950798E0,6.460500360E-1,9.928475363E0
3.143622538E0,-4.258049965E0,-8.944950104E0,5.119500160E-1,9.919940256E0
3.146121078E0,-4.291950226E0,-8.949000359E0,4.879500270E-1,9.936978383E0
3.148619769E0,-4.297049999E0,-8.980050087E0,4.740000367E-1,9.966474517E0
3.151118538E0,-4.297049999E0,-9.007050514E0,4.110000134E-1,9.988018756E0
3.153617059E0,-4.288949966E0,-9.045000076E0,3.900000155E-1,1.001794481E1
3.156115827E0,-4.254000187E0,-9.085950851E0,4.470000267E-1,1.004245137E1
3.158614521E0,-4.165050030E0,-9.103050232E0,5.170500278E-1,1.002399651E1
3.161113288E0,-4.134000301E0,-9.193950653E0,5.959500074E-1,1.009820992E1
3.163611824E0,-3.994950294E0,-9.268050194E0,6.439500451E-1,1.011291520E1
3.166110591E0,-3.964050293E0,-9.342000008E0,7.249500155E-1,1.017409511E1
3.168609285E0,-3.858000278E0,-9.349050522E0,7.870500088E-1,1.014437576E1
3.171108052E0,-3.727050066E0,-9.343950272E0,7.560000420E-1,1.008820326E1
3.173606822E0,-3.703050137E0,-9.376049995E0,8.449500203E-1,1.011616698E1
3.176105372E0,-3.736050129E0,-9.442950249E0,8.830500245E-1,1.019348602E1
3.178604062E0,-3.697950125E0,-9.462000847E0,8.400000334E-1,1.019362032E1
3.181102832E0,-3.720000267E0,-9.483000755E0,8.160000443E-1,1.021917616E1
3.183601372E0,-3.685950279E0,-9.469050407E0,8.179500103E-1,1.019402704E1
3.186100139E0,-3.648000240E0,-9.450000763E0,7.369500399E-1,1.015645192E1
3.188598839E0,-3.607050180E0,-9.427950859E0,7.200000286E-1,1.012005279E1
3.191097606E0,-3.636000156E0,-9.385050774E0,6.960000396E-1,1.008881020E1
3.193596146E0,-3.645000219E0,-9.382950783E0,6.409500241E-1,1.008645671E1
3.196094837E0,-3.655050278E0,-9.366000175E0,5.740500093E-1,1.007029718E1
3.198593606E0,-3.589950085E0,-9.376049995E0,5.740500093E-1,1.005622138E1
3.201092117E0,-3.532950163E0,-9.399000168E0,5.239500403E-1,1.005472350E1
3.203590885E0,-3.463050127E0,-9.415950775E0,4.860000312E-1,1.004435370E1
3.206089579E0,-3.234000206E0,-9.426000595E0,4.159500301E-1,9.974029225E0
3.208588346E0,-2.788050175E0,-9.373050690E0,2.839500010E-1,9.783043014E0
3.211086887E0,-4.750500321E-1,-9.724950790E0,-8.295000345E-2,9.736899974E0
3.213585630E0,-3.976050138E0,-1.008405018E1,1.381050110E0,1.092722939E1
3.216084324E0,-4.858950138E0,-9.756000519E0,1.981950045E0,1.107777363E1
3.218582863E0,-3.868050098E0,-9.531000137E0,1.435950041E0,1.038574637E1
3.221081630E0,-3.577950239E0,-9.510000229E0,7.150500417E-1,1.018592798E1
3.223580309E0,-3.784050226E0,-9.366000175E0,3.829500079E-1,1.010879054E1
3.226079076E0,-4.105050087E0,-8.947050095E0,2.370000184E-1,9.846690338E0
3.228577617E0,-4.394999981E0,-8.664000511E0,7.605000585E-2,9.715282461E0
3.231076384E0,-4.416000366E0,-8.527950287E0,-1.189500093E-1,9.604225343E0
3.233575078E0,-4.189050198E0,-8.503950119E0,-2.100000083E-1,9.482057223E0
3.236073846E0,-3.916050196E0,-8.595000267E0,-1.410000026E-1,9.446129352E0
3.238572386E0,-3.945000172E0,-8.662050247E0,1.500000060E-1,9.519277328E0
3.241071076E0,-3.870000124E0,-8.643000603E0,2.340000123E-1,9.472756536E0
3.243569923E0,-3.865950108E0,-8.575950623E0,2.530499995E-1,9.410448109E0
3.246068632E0,-3.609000206E0,-8.521050453E0,2.580000162E-1,9.257415801E0
3.248567170E0,-3.430050135E0,-8.566050529E0,2.530499995E-1,9.230736693E0
3.251065938E0,-3.277050257E0,-8.546999931E0,4.210500121E-1,9.163380889E0
3.253564632E0,-3.250050068E0,-8.566050529E0,6.720000505E-1,9.186491778E0
3.256063399E0,-3.207000256E0,-8.631000519E0,8.569500446E-1,9.247344699E0
3.258561925E0,-3.109050035E0,-8.652000427E0,8.730000257E-1,9.235011238E0
3.261060615E0,-3.115950108E0,-8.680950165E0,1.054949999E0,9.283370096E0
3.263559384E0,-3.090000153E0,-8.722050667E0,1.102950096E0,9.318732086E0
3.266057925E0,-3.162000179E0,-8.751000404E0,1.150950074E0,9.375656739E0
3.268556702E0,-3.178950071E0,-8.722050667E0,9.690000415E-1,9.333748040E0
3.271055396E0,-3.238050222E0,-8.700000763E0,9.379500151E-1,9.330312575E0
3.273554163E0,-3.235950232E0,-8.722050667E0,8.689500690E-1,9.343479863E0
3.276052704E0,-3.372000217E0,-8.734050751E0,8.970000148E-1,9.405245186E0
3.278551471E0,-3.382050276E0,-8.722050667E0,8.260500431E-1,9.391208153E0
3.281050175E0,-3.427950144E0,-8.763000488E0,8.350500464E-1,9.446604063E0
3.283548942E0,-3.447000265E0,-8.760000229E0,7.870500088E-1,9.446632339E0
3.286047482E0,-3.444000244E0,-8.779050827E0,8.059500456E-1,9.464799342E0
3.288546249E0,-3.391950130E0,-8.796000481E0,8.020500541E-1,9.461407635E0
3.291044944E0,-3.198000193E0,-8.892000198E0,6.750000119E-1,9.473673932E0
3.293543711E0,-3.339000225E0,-8.961000443E0,6.820500493E-1,9.587160357E0
3.296042251E0,-3.265050173E0,-9.055050850E0,6.649500132E-1,9.648660894E0
3.298541019E0,-3.364950180E0,-9.069000244E0,7.579500079E-1,9.702790493E0
3.301039713E0,-3.480000257E0,-9.052050591E0,8.400000334E-1,9.734249932E0
3.303538246E0,-3.538050175E0,-8.959050179E0,8.760000467E-1,9.672112242E0
3.306037014E0,-3.541950226E0,-8.988000870E0,6.840000153E-1,9.684907179E0
3.308535783E0,-3.523050070E0,-8.917950630E0,5.500500202E-1,9.604388594E0
3.311034477E0,-3.628950119E0,-8.818050385E0,5.140500069E-1,9.549426106E0
3.313533245E0,-3.727050066E0,-8.803050041E0,5.890500546E-1,9.577660058E0
3.316031776E0,-3.901950121E0,-8.848950386E0,6.870000362E-1,9.695416790E0
3.318530466E0,-3.937050104E0,-8.868000031E0,6.700500250E-1,9.725777866E0
3.321029236E0,-3.946950197E0,-8.937000275E0,5.550000072E-1,9.785520670E0
3.323527776E0,-3.918000221E0,-8.920950890E0,4.980000257E-1,9.756131125E0
3.326026548E0,-3.765000105E0,-8.854050636E0,4.399500191E-1,9.631354758E0
3.328525243E0,-4.075950146E0,-8.961000443E0,8.520000577E-1,9.881234873E0
3.331024010E0,-4.021049976E0,-8.989950180E0,9.049500227E-1,9.889741235E0
3.333522550E0,-3.945000172E0,-9.043050766E0,7.849500179E-1,9.897269322E0
3.336021317E0,-3.885000229E0,-9.037950516E0,6.790500283E-1,9.860977905E0
3.338520012E0,-3.949050188E0,-9.121950150E0,8.089500666E-1,9.972931973E0
3.341018550E0,-3.808050156E0,-9.001950264E0,6.529500484E-1,9.796055242E0
3.343517318E0,-4.030950069E0,-9.238950729E0,1.077000022E0,1.013739109E1
3.346016012E0,-4.063950062E0,-9.250950813E0,1.015050054E0,1.015510254E1
3.348514779E0,-3.820050240E0,-9.205950737E0,7.800000310E-1,9.997535339E0
3.351013324E0,-3.729000092E0,-9.258000374E0,7.470000386E-1,1.000869730E1
3.353512091E0,-3.685950279E0,-9.282000542E0,7.030500174E-1,1.001179519E1
3.356010785E0,-3.873000145E0,-9.340050697E0,9.049500227E-1,1.015163099E1
3.358509552E0,-3.973050117E0,-9.366000175E0,1.027050018E0,1.022555222E1
3.361008093E0,-4.021049976E0,-9.322950363E0,1.012050033E0,1.020345489E1
3.363506856E0,-4.162950039E0,-9.397050858E0,1.051050067E0,1.033147734E1
3.366005550E0,-4.150950432E0,-9.466950417E0,1.069950104E0,1.039222464E1
3.368504089E0,-4.239000320E0,-9.507000923E0,9.810000658E-1,1.045535994E1
3.371002856E0,-4.234050274E0,-9.543000221E0,9.600000381E-1,1.048416115E1
3.373501550E0,-4.402050018E0,-9.682050705E0,9.930000305E-1,1.068205033E1
3.376000318E0,-4.414050102E0,-9.720000267E0,8.419500589E-1,1.070846037E1
3.378498858E0,-4.380000114E0,-9.592950821E0,6.990000606E-1,1.056871362E1
3.380997625E0,-4.528950214E0,-9.507000923E0,7.200000286E-1,1.055522888E1
3.383496320E0,-4.621950150E0,-9.421050072E0,6.409500241E-1,1.051329751E1
3.385995115E0,-4.560000420E0,-9.304050446E0,5.020500422E-1,1.037357281E1
3.388493655E0,-4.455000401E0,-9.198000908E0,3.510000110E-1,1.022611609E1
3.390992423E0,-4.384950161E0,-9.121950150E0,3.010500073E-1,1.012563053E1
3.393491117E0,-4.378050327E0,-9.093000412E0,3.300000131E-1,1.009746905E1
3.395989884E0,-4.318050385E0,-9.069000244E0,3.250500262E-1,1.004977522E1
3.398488435E0,-4.170000076E0,-9.007050514E0,3.870000243E-1,9.933057365E0
3.400987202E0,-4.134000301E0,-8.928000450E0,5.140500069E-1,9.852075819E0
3.403485896E0,-4.093050003E0,-8.949000359E0,5.809500217E-1,9.857746633E0
3.405984663E0,-4.018949986E0,-8.928000450E0,6.630000472E-1,9.813293030E0
3.408483204E0,-3.976050138E0,-8.941950798E0,7.510500550E-1,9.814862962E0
3.410981971E0,-3.966000080E0,-8.964000702E0,7.510500550E-1,9.830897284E0
3.413480665E0,-3.970950127E0,-8.944950104E0,7.420500517E-1,9.814846690E0
3.415979204E0,-3.885000229E0,-8.925000191E0,8.179500103E-1,9.768208505E0
3.418477971E0,-3.961050272E0,-8.920950890E0,7.030500174E-1,9.786090300E0
3.420976675E0,-3.946950197E0,-8.855999947E0,7.470000386E-1,9.724461937E0
3.423475443E0,-3.934950113E0,-8.830050468E0,7.729500532E-1,9.697993373E0
3.425973983E0,-3.861000299E0,-8.824950218E0,7.680000067E-1,9.663172030E0
3.428472750E0,-3.823050261E0,-8.833950043E0,8.850000501E-1,9.666313244E0
3.430971445E0,-3.777000189E0,-8.940000534E0,8.659500480E-1,9.743675357E0
3.433470212E0,-3.850950241E0,-8.937000275E0,8.040000200E-1,9.764538274E0
3.435968752E0,-3.849000216E0,-8.839050293E0,8.659500480E-1,9.679539360E0
3.438467520E0,-3.829950094E0,-8.818050385E0,7.230000496E-1,9.641019623E0
3.440966214E0,-3.901950121E0,-8.763000488E0,7.390500307E-1,9.620893267E0
3.443464981E0,-3.940050125E0,-8.782050133E0,8.040000200E-1,9.658924141E0
3.445963536E0,-3.894000292E0,-8.824950218E0,8.110500574E-1,9.679916674E0
3.448462226E0,-3.814950228E0,-8.779050827E0,7.440000176E-1,9.600995505E0
3.450960995E0,-3.844050169E0,-8.728950500E0,7.420500517E-1,9.566709822E0
3.453459536E0,-3.898950100E0,-8.690999985E0,7.939500213E-1,9.558538029E0
3.455958303E0,-3.910950184E0,-8.655000687E0,8.179500103E-1,9.532765100E0
3.458456997E0,-3.942000151E0,-8.608950615E0,8.110500574E-1,9.503220405E0
3.460955764E0,-3.952050209E0,-8.554050446E0,7.819500566E-1,9.455259159E0
3.463454305E0,-4.009050369E0,-8.595000267E0,8.110500574E-1,9.518629978E0
3.465953072E0,-4.014000416E0,-8.643000603E0,8.299500346E-1,9.565692647E0
3.468451766E0,-3.973050117E0,-8.656949997E0,9.120000601E-1,9.568680922E0
3.470950524E0,-3.994950294E0,-8.712000847E0,9.330000281E-1,9.629593743E0
3.473449064E0,-4.038000107E0,-8.794050217E0,1.006950021E0,9.729065342E0
3.475947831E0,-4.090950012E0,-8.842050552E0,9.670500755E-1,9.790450236E0
3.478446526E0,-4.002000332E0,-8.844000816E0,9.910500646E-1,9.757793671E0
3.480945279E0,-4.000050068E0,-8.905950546E0,9.139500260E-1,9.805695301E0
3.483443819E0,-4.024050236E0,-9.025950432E0,8.610000610E-1,9.919782387E0
3.485942587E0,-3.993000269E0,-9.036000252E0,8.350500464E-1,9.914164628E0
3.488441281E0,-4.018949986E0,-9.082950592E0,7.920000553E-1,9.963895550E0
3.490940048E0,-4.033050060E0,-9.139050484E0,8.299500346E-1,1.002379936E1
3.493438599E0,-4.093050003E0,-9.177000046E0,8.520000577E-1,1.008445796E1
3.495937289E0,-4.135950089E0,-9.234000206E0,8.710500598E-1,1.015537154E1
3.498436058E0,-4.155000210E0,-9.217950821E0,8.329500556E-1,1.014536593E1
3.500934599E0,-4.146000385E0,-9.166950226E0,7.900500298E-1,1.009190144E1
3.503433366E0,-4.141050339E0,-9.190950394E0,7.819500566E-1,1.011104905E1
3.505932079E0,-4.177050114E0,-9.234000206E0,7.489500642E-1,1.016245215E1
3.508430618E0,-4.162950039E0,-9.225000381E0,7.150500417E-1,1.014603773E1
3.510929385E0,-4.190999985E0,-9.208050728E0,6.889500618E-1,1.014038122E1
3.513428079E0,-4.231950283E0,-9.190950394E0,6.820500493E-1,1.014140841E1
3.515926846E0,-4.203000069E0,-9.174000740E0,6.340500116E-1,1.011086142E1
3.518425377E0,-4.147950172E0,-9.085950851E0,6.100500226E-1,1.000660555E1
3.520924144E0,-4.118999958E0,-9.064050674E0,6.649500132E-1,9.978243022E0
3.523422838E0,-4.134000301E0,-8.995050430E0,6.510000229E-1,9.920921921E0
3.525921606E0,-4.153050423E0,-8.944950104E0,6.529500484E-1,9.883638193E0
3.528420146E0,-4.159950256E0,-8.916000366E0,6.460500360E-1,9.859900066E0
3.530918932E0,-4.162950039E0,-8.854050636E0,6.559500098E-1,9.805847037E0
3.533417627E0,-4.063950062E0,-8.833950043E0,6.150000095E-1,9.743335593E0
3.535916394E0,-4.005000114E0,-8.868000031E0,6.600000262E-1,9.752797060E0
3.538414934E0,-3.949050188E0,-8.899050713E0,6.529500484E-1,9.757788927E0
3.540913702E0,-3.994950294E0,-8.928000450E0,6.700500250E-1,9.803967918E0
3.543412382E0,-3.997050285E0,-8.908950806E0,7.110000253E-1,9.790369578E0
3.545911149E0,-3.949050188E0,-8.917950630E0,6.790500283E-1,9.776806727E0
3.548409690E0,-3.949050188E0,-8.952000618E0,7.030500174E-1,9.809566340E0
3.550908457E0,-3.961050272E0,-8.988000870E0,7.060500383E-1,9.847465946E0
3.553407151E0,-3.964050293E0,-8.992050171E0,7.060500383E-1,9.852368632E0
3.555905675E0,-3.933000088E0,-9.036000252E0,7.270500064E-1,9.881618893E0
3.558404442E0,-3.928050280E0,-9.037950516E0,7.440000176E-1,9.882695207E0
3.560903136E0,-3.981000185E0,-9.040050507E0,8.040000200E-1,9.910463746E0
3.563401903E0,-3.994950294E0,-9.021000862E0,7.969500422E-1,9.898141936E0
3.565900444E0,-3.966000080E0,-8.995050430E0,8.059500456E-1,9.863551305E0
3.568399207E0,-3.952050209E0,-9.076050758E0,8.179500103E-1,9.932896881E0
3.570897902E0,-4.048050404E0,-9.016050339E0,8.950500488E-1,9.923557345E0
3.573396669E0,-4.078950405E0,-8.976000786E0,9.210000634E-1,9.902255684E0
3.575895209E0,-4.096050262E0,-8.973000526E0,9.670500755E-1,9.910981387E0
3.578393976E0,-4.111950397E0,-8.961000443E0,9.240000248E-1,9.902597692E0
3.580892661E0,-4.096050262E0,-8.959050179E0,8.659500480E-1,9.888987680E0
3.583391428E0,-4.114950180E0,-8.940000534E0,7.990500331E-1,9.873950855E0
3.585889968E0,-4.098000050E0,-8.908950806E0,7.540500164E-1,9.835222432E0
3.588388659E0,-4.069050312E0,-8.845950127E0,7.129500508E-1,9.763006804E0
3.590887447E0,-4.062000275E0,-8.839050293E0,7.129500508E-1,9.753817411E0
3.593385987E0,-4.012050152E0,-8.880000114E0,7.440000176E-1,9.772639586E0
3.595884755E0,-3.982950211E0,-8.854050636E0,7.579500079E-1,9.738202774E0
3.598383449E0,-3.978000164E0,-8.887050629E0,7.510500550E-1,9.765665895E0
3.600882216E0,-3.990000248E0,-8.905950546E0,7.800000310E-1,9.790018241E0
3.603380757E0,-4.057050228E0,-8.904000282E0,7.969500422E-1,9.817128244E0
3.605879524E0,-4.162950039E0,-8.905950546E0,7.900500298E-1,9.862570010E0
3.608378218E0,-4.261050224E0,-8.949000359E0,8.089500666E-1,9.944624510E0
3.610876986E0,-4.279950142E0,-8.973000526E0,7.819500566E-1,9.972169150E0
3.613375526E0,-4.246050358E0,-8.988000870E0,7.060500383E-1,9.965521057E0
3.615874206E0,-4.309050083E0,-9.070950508E0,7.369500399E-1,1.006941662E1
3.618372976E0,-4.396950245E0,-9.186000824E0,7.390500307E-1,1.021087545E1
3.620871516E0,-4.612950325E0,-9.225000381E0,9.049500227E-1,1.035368907E1
3.623370283E0,-4.500000000E0,-9.106950760E0,8.040000200E-1,1.018984633E1
3.625869052E0,-4.443000317E0,-8.935050011E0,7.200000286E-1,1.000468743E1
3.628367747E0,-4.356000423E0,-8.940000534E0,7.630500197E-1,9.973995918E0
3.630866514E0,-4.242000103E0,-9.109950066E0,9.259500504E-1,1.009173615E1
3.633365055E0,-4.309050083E0,-9.025950432E0,8.040000200E-1,1.003404753E1
3.635863745E0,-3.865950108E0,-8.692950249E0,1.930500120E-1,9.515788069E0
3.638362509E0,-3.732000113E0,-9.082950592E0,9.049500227E-1,9.861376721E0
3.640861050E0,-4.141050339E0,-9.346950531E0,8.659500480E-1,1.025980758E1
3.643359817E0,-3.472950220E0,-9.091050148E0,6.439500451E-1,9.753114768E0
3.645858511E0,-3.612000227E0,-9.217950821E0,8.140500188E-1,9.933772718E0
3.648357278E0,-4.021049976E0,-9.268050194E0,8.730000257E-1,1.014040070E1
3.650855819E0,-4.414050102E0,-9.208050728E0,1.110000014E0,1.027152065E1
3.653354586E0,-4.207950115E0,-9.142950058E0,8.760000467E-1,1.010285880E1
3.655853280E0,-3.751050234E0,-9.037950516E0,3.730500042E-1,9.792552971E0
3.658352048E0,-3.624000072E0,-9.037950516E0,4.330500066E-1,9.747074349E0
3.660850574E0,-3.684000254E0,-9.064050674E0,6.480000019E-1,9.805548251E0
3.663349264E0,-3.715050220E0,-9.025950432E0,7.270500064E-1,9.787644305E0
3.665848034E0,-3.744000196E0,-8.952000618E0,6.840000153E-1,9.727471848E0
3.668346574E0,-3.586050272E0,-8.917950630E0,5.530500412E-1,9.627848376E0
3.670845365E0,-3.447000265E0,-8.893950462E0,6.289500594E-1,9.559275278E0
3.673344060E0,-3.411000252E0,-8.941950798E0,7.939500213E-1,9.603320438E0
3.675842598E0,-3.472950220E0,-9.012000084E0,8.830500245E-1,9.698314600E0
3.678341365E0,-3.456000090E0,-9.007050514E0,8.230500221E-1,9.682370935E0
3.680840060E0,-3.304950237E0,-8.961000443E0,8.040000200E-1,9.584813041E0
3.683338832E0,-3.325050116E0,-8.971050262E0,8.490000367E-1,9.605024838E0
3.685837372E0,-3.388950109E0,-8.965950012E0,9.190500379E-1,9.629013212E0
3.688336140E0,-3.387000084E0,-8.959050179E0,8.899500370E-1,9.619166322E0
3.690834834E0,-3.412950277E0,-8.983050346E0,8.640000224E-1,9.648311726E0
3.693333601E0,-3.459000111E0,-8.937000275E0,8.089500666E-1,9.617123057E0
3.695832370E0,-3.519000053E0,-8.935050011E0,7.420500517E-1,9.631672666E0
3.698330911E0,-3.600000143E0,-8.952000618E0,7.030500174E-1,9.674326613E0
3.700829678E0,-3.621000290E0,-8.973000526E0,7.200000286E-1,9.702823382E0
3.703328372E0,-3.672000170E0,-8.977950096E0,7.780500650E-1,9.731008945E0
3.705826925E0,-3.715050220E0,-8.977950096E0,8.730000257E-1,9.755373653E0
3.708325692E0,-3.784050226E0,-8.992050171E0,9.120000601E-1,9.798354275E0
3.710824386E0,-3.885000229E0,-9.009000778E0,9.259500504E-1,9.854577885E0
3.713323154E0,-3.922950268E0,-8.973000526E0,9.019500613E-1,9.834520383E0
3.715821694E0,-3.928050280E0,-8.952000618E0,8.809500337E-1,9.815496270E0
3.718320465E0,-4.000050068E0,-8.932950020E0,8.610000610E-1,9.825442367E0
3.720819160E0,-3.909000158E0,-8.881950378E0,8.470500112E-1,9.740986525E0
3.723317927E0,-3.937050104E0,-8.854050636E0,8.380500674E-1,9.726093980E0
3.725816467E0,-4.002000332E0,-8.764950752E0,8.350500464E-1,9.671487834E0
3.728315235E0,-4.005000114E0,-8.728950500E0,8.539500237E-1,9.641775428E0
3.730813943E0,-3.958950281E0,-8.695950508E0,8.260500431E-1,9.590370235E0
3.733312481E0,-3.898950100E0,-8.700000763E0,7.729500532E-1,9.565002715E0
3.735811249E0,-3.847050190E0,-8.719950676E0,7.540500164E-1,9.560644664E0
3.738309943E0,-3.757950068E0,-8.764950752E0,7.990500331E-1,9.570006863E0
3.740808710E0,-3.736050129E0,-8.827050209E0,9.190500379E-1,9.629098552E0
3.743307266E0,-3.681000233E0,-8.869950294E0,9.790500402E-1,9.653202573E0
3.745806033E0,-3.649950266E0,-8.923050880E0,1.045950055E0,9.697266908E0
3.748304727E0,-3.640950203E0,-8.961000443E0,1.089000106E0,9.733548610E0
3.750803494E0,-3.637950182E0,-9.032999992E0,1.078950047E0,9.797647860E0
3.753302054E0,-3.607050180E0,-9.061950684E0,1.015050054E0,9.806125015E0
3.755800744E0,-3.507000208E0,-9.217950821E0,1.045950055E0,9.917846506E0
3.758299513E0,-3.595050097E0,-9.367950439E0,1.141950011E0,1.009885788E1
3.760798054E0,-3.741000175E0,-9.214950562E0,1.017000079E0,9.997233884E0
3.763296821E0,-3.745950222E0,-9.058950424E0,7.129500508E-1,9.828785461E0
3.765795515E0,-3.696000099E0,-9.021000862E0,6.439500451E-1,9.770033007E0
3.768294283E0,-3.751050234E0,-9.282000542E0,8.710500598E-1,1.004911141E1
3.770792823E0,-3.813000202E0,-9.250950813E0,8.260500431E-1,1.003999104E1
3.773291590E0,-3.817950249E0,-9.124050140E0,8.970000148E-1,9.931245848E0
3.775790285E0,-3.861000299E0,-9.190950394E0,9.450000525E-1,1.001368651E1
3.778289033E0,-3.973050117E0,-9.100049973E0,8.110500574E-1,9.962622091E0
3.780787573E0,-3.861000299E0,-8.952000618E0,7.900500298E-1,9.781094899E0
3.783286264E0,-3.918000221E0,-9.019050598E0,8.209500313E-1,9.867520376E0
3.785785033E0,-3.957000256E0,-8.929950714E0,5.530500412E-1,9.783033023E0
3.788283573E0,-3.946950197E0,-8.767050743E0,5.359500051E-1,9.629477504E0
3.790782345E0,-3.934950113E0,-8.667000771E0,5.929500461E-1,9.536892812E0
3.793281114E0,-4.062000275E0,-8.844000816E0,6.559500098E-1,9.754305054E0
3.795779808E0,-4.050000191E0,-8.988000870E0,8.299500346E-1,9.893203639E0
3.798278575E0,-3.949050188E0,-8.964000702E0,7.990500331E-1,9.827857698E0
3.800777116E0,-3.969000101E0,-8.940000534E0,6.529500484E-1,9.803209429E0
3.803275812E0,-4.090950012E0,-8.956950188E0,7.680000067E-1,9.876874641E0
3.805774581E0,-4.074000359E0,-9.009000778E0,8.730000257E-1,9.925809941E0
3.808273122E0,-4.126950264E0,-9.021000862E0,9.690000415E-1,9.967403680E0
3.810771889E0,-4.159950256E0,-9.073950768E0,9.930000305E-1,1.003134177E1
3.813270583E0,-4.138950348E0,-9.184050560E0,1.105949998E0,1.013414131E1
3.815769356E0,-4.045050144E0,-9.238950729E0,1.060050011E0,1.014122021E1
3.818267896E0,-4.072050095E0,-9.067049980E0,8.659500480E-1,9.977116658E0
3.820766663E0,-4.099950314E0,-8.989950180E0,8.020500541E-1,9.913227583E0
3.823265358E0,-3.969000101E0,-9.037950516E0,8.020500541E-1,9.903574891E0
3.825764125E0,-3.918000221E0,-9.093000412E0,8.260500431E-1,9.935579545E0
3.828262674E0,-3.838950157E0,-9.067049980E0,9.019500613E-1,9.887489447E0
3.830761365E0,-3.874950171E0,-9.024000168E0,9.840000272E-1,9.869958151E0
3.833260134E0,-3.832050085E0,-9.069000244E0,1.113000035E0,9.908084697E0
3.835758674E0,-3.631050110E0,-9.067049980E0,9.810000658E-1,9.816225414E0
3.838257442E0,-3.648000240E0,-9.012000084E0,1.004999995E0,9.774153480E0
3.840756141E0,-3.684000254E0,-9.013950348E0,1.006950021E0,9.789642848E0
3.843254908E0,-3.820050240E0,-9.021000862E0,9.859500527E-1,9.845980799E0
3.845753449E0,-3.820050240E0,-8.973000526E0,9.499500394E-1,9.798465561E0
3.848252216E0,-3.721950293E0,-8.965950012E0,8.419500589E-1,9.744231807E0
3.850750910E0,-3.934950113E0,-8.973000526E0,8.490000367E-1,9.834600750E0
3.853249700E0,-4.039950371E0,-9.049950600E0,9.240000248E-1,9.953721962E0
3.855748241E0,-4.050000191E0,-9.162000656E0,9.330000281E-1,1.006057884E1
3.858246931E0,-3.930000305E0,-9.310950279E0,1.075049996E0,1.016338674E1
3.860745701E0,-4.153050423E0,-9.439949989E0,1.125000000E0,1.037430039E1
3.863244241E0,-4.375950336E0,-9.378000259E0,1.402950048E0,1.044337585E1
3.865743003E0,-3.765000105E0,-9.286950111E0,1.234950066E0,1.009691883E1
3.868241698E0,-3.511050224E0,-9.177000046E0,1.182000041E0,9.896561404E0
3.870740465E0,-3.760050297E0,-8.727000237E0,6.600000262E-1,9.525445470E0
3.873239005E0,-3.748050213E0,-8.403000832E0,3.079500198E-1,9.206146674E0
3.875737696E0,-3.319950104E0,-8.253000259E0,1.600500047E-1,8.897173595E0
3.878236461E0,-3.118950129E0,-8.350950241E0,5.020500422E-1,8.928509062E0
3.880735001E0,-3.207000256E0,-8.641050339E0,7.369500399E-1,9.246388320E0
3.883233768E0,-3.877950191E0,-9.037950516E0,1.003050089E0,9.885805819E0
3.885732463E0,-4.194000244E0,-9.157950401E0,1.009950042E0,1.012312663E1
3.888231230E0,-4.282050133E0,-8.929950714E0,9.000000358E-1,9.944343777E0
3.890729771E0,-4.297049999E0,-8.629050255E0,6.769500375E-1,9.663509112E0
3.893228538E0,-4.273050308E0,-8.538000107E0,4.540500343E-1,9.558376755E0
3.895727232E0,-4.213050365E0,-8.584950447E0,4.189500213E-1,9.572182963E0
3.898225999E0,-4.189050198E0,-8.690999985E0,5.839500427E-1,9.665537747E0
3.900724769E0,-4.085999966E0,-8.818050385E0,7.030500174E-1,9.744110407E0
3.903223281E0,-4.072050095E0,-8.932950020E0,8.470500112E-1,9.853764852E0
3.905722048E0,-3.930000305E0,-8.968950272E0,1.018950105E0,9.845061233E0
3.908220743E0,-3.825000286E0,-8.988000870E0,1.069950104E0,9.826473429E0
3.910719281E0,-3.781950235E0,-8.944950104E0,1.004999995E0,9.763467874E0
3.913218048E0,-3.756000280E0,-8.893950462E0,9.259500504E-1,9.698828611E0
3.915716738E0,-3.748050213E0,-8.904000282E0,8.640000224E-1,9.699257573E0
3.918215505E0,-3.799050093E0,-8.908950806E0,8.350500464E-1,9.721085055E0
3.920714045E0,-3.820050240E0,-8.881950378E0,8.040000200E-1,9.701971057E0
3.923212736E0,-3.801000118E0,-8.917950630E0,7.540500164E-1,9.723478635E0
3.925711510E0,-3.813000202E0,-8.916000366E0,8.850000501E-1,9.737415374E0
3.928210050E0,-3.820050240E0,-8.896950722E0,8.899500370E-1,9.723195311E0
3.930708818E0,-3.801000118E0,-8.920950890E0,9.240000248E-1,9.740879977E0
3.933207512E0,-3.856050253E0,-9.012000084E0,9.480000734E-1,9.848044131E0
3.935706279E0,-3.874950171E0,-9.049950600E0,9.120000601E-1,9.886788598E0
3.938204820E0,-3.837000132E0,-9.031050682E0,8.899500370E-1,9.852637084E0
3.940703587E0,-3.789000273E0,-9.040050507E0,8.280000687E-1,9.836900952E0
3.943202281E0,-3.847050190E0,-9.058950424E0,8.140500188E-1,9.875578737E0
3.945701048E0,-3.901950121E0,-9.058950424E0,8.299500346E-1,9.898414752E0
3.948199589E0,-3.877950191E0,-9.048000336E0,8.230500221E-1,9.878371278E0
3.950698279E0,-3.870000124E0,-9.032999992E0,7.990500331E-1,9.859537047E0
3.953197048E0,-3.825000286E0,-9.032999992E0,7.800000310E-1,9.840432719E0
3.955695589E0,-3.820050240E0,-9.019050598E0,8.089500666E-1,9.828044451E0
3.958194356E0,-3.793950081E0,-9.019050598E0,8.329500556E-1,9.819935677E0
3.960693035E0,-3.858000278E0,-9.024000168E0,8.899500370E-1,9.854377517E0
3.963191803E0,-3.892050266E0,-9.025950432E0,9.120000601E-1,9.871554112E0
3.965690343E0,-3.901950121E0,-9.031050682E0,8.710500598E-1,9.876427460E0
3.968189110E0,-3.904050112E0,-9.013950348E0,8.640000224E-1,9.861004218E0
3.970687805E0,-3.921000242E0,-8.997000694E0,8.040000200E-1,9.847166111E0
3.973186572E0,-3.954000235E0,-8.988000870E0,7.800000310E-1,9.850212055E0
3.975685112E0,-3.985050201E0,-8.983050346E0,7.420500517E-1,9.855275588E0
3.978183880E0,-3.870000124E0,-8.956950188E0,7.540500164E-1,9.786339921E0
3.980682574E0,-4.050000191E0,-8.956950188E0,6.720000505E-1,9.852971241E0
3.983181112E0,-3.976050138E0,-8.932950020E0,6.000000238E-1,9.796252895E0
3.985679875E0,-3.910950184E0,-8.904000282E0,6.630000472E-1,9.747631581E0
3.988178569E0,-3.922950268E0,-8.956950188E0,6.120000482E-1,9.797501698E0
3.990677336E0,-3.889950275E0,-9.001950264E0,6.150000095E-1,9.825733902E0
3.993175877E0,-3.724050283E0,-9.069000244E0,6.409500241E-1,9.824771390E0
3.995674572E0,-3.679050207E0,-9.091050148E0,7.150500417E-1,9.833305639E0
3.998173341E0,-3.721950293E0,-9.055050850E0,8.380500674E-1,9.825944626E0
4.000671882E0,-3.745950222E0,-9.043050766E0,9.310500622E-1,9.832383457E0
4.003170649E0,-3.717000246E0,-9.048000336E0,9.760500193E-1,9.830314061E0
4.005669418E0,-3.672000170E0,-9.031050682E0,1.004999995E0,9.800688071E0
4.008168122E0,-3.616950274E0,-9.025950432E0,9.619500637E-1,9.771154405E0
4.010666890E0,-3.612000227E0,-9.073950768E0,9.280500412E-1,9.810423286E0
4.013165430E0,-3.565950155E0,-9.088050842E0,9.240000248E-1,9.806245187E0
4.015664197E0,-3.598050117E0,-9.055050850E0,9.379500151E-1,9.788751747E0
4.018162892E0,-3.631050110E0,-9.037950516E0,9.690000415E-1,9.788157922E0
4.020661649E0,-3.724050283E0,-8.995050430E0,9.930000305E-1,9.785986502E0
4.023160189E0,-3.736050129E0,-8.983050346E0,9.859500527E-1,9.778822097E0
4.025658957E0,-3.681000233E0,-8.989950180E0,9.280500412E-1,9.758598456E0
4.028157651E0,-3.628950119E0,-9.004050255E0,8.590500355E-1,9.745776876E0
4.030656189E0,-3.540000200E0,-9.036000252E0,8.400000334E-1,9.740970281E0
4.033154928E0,-3.483000278E0,-9.081000328E0,8.539500237E-1,9.763456793E0
4.035653622E0,-3.487050056E0,-9.130949974E0,9.259500504E-1,9.817899420E0
4.038152389E0,-3.480000257E0,-9.169950485E0,9.930000305E-1,9.858217017E0
4.040650930E0,-3.538050175E0,-9.186000824E0,1.072050095E0,9.902004927E0
4.043149620E0,-3.552000284E0,-9.190950394E0,1.060050011E0,9.910296725E0
4.045648375E0,-3.571050167E0,-9.153000832E0,1.042950034E0,9.880160337E0
4.048146916E0,-3.613950253E0,-9.093000412E0,9.960000515E-1,9.835410974E0
4.050645683E0,-3.667050123E0,-9.081000328E0,9.570000172E-1,9.840105314E0
4.053144377E0,-3.693000078E0,-9.082950592E0,9.240000248E-1,9.848452522E0
4.055643139E0,-3.757950068E0,-9.094950676E0,8.760000467E-1,9.879660550E0
4.058141680E0,-3.837000132E0,-9.105000496E0,8.380500674E-1,9.915943322E0
4.060640447E0,-3.904050112E0,-9.115050316E0,8.260500431E-1,9.950281816E0
4.063139141E0,-3.909000158E0,-9.067049980E0,8.140500188E-1,9.907287975E0
4.065637909E0,-3.937050104E0,-9.036000252E0,8.040000200E-1,9.889190063E0
4.068136439E0,-3.970950127E0,-8.997000694E0,8.350500464E-1,9.869740371E0
4.070635206E0,-3.952050209E0,-8.961000443E0,8.850000501E-1,9.833689789E0
4.073133901E0,-3.910950184E0,-8.923050880E0,8.710500598E-1,9.781364760E0
4.075632425E0,-3.870000124E0,-8.890050888E0,9.259500504E-1,9.739984048E0
4.078131192E0,-3.861000299E0,-8.884950638E0,9.570000172E-1,9.734758353E0
4.080629887E0,-3.825000286E0,-8.913000107E0,1.000050068E0,9.750502460E0
4.083128654E0,-3.760050297E0,-8.913000107E0,1.000050068E0,9.725206901E0
4.085627194E0,-3.700050116E0,-8.908950806E0,1.039050102E0,9.702546080E0
4.088125962E0,-3.685950279E0,-8.940000534E0,1.077000022E0,9.729839056E0
4.090624675E0,-3.649950266E0,-8.964000702E0,1.132050037E0,9.744587360E0
4.093123442E0,-3.576000214E0,-8.989950180E0,1.102950096E0,9.737734885E0
4.095621983E0,-3.601950169E0,-9.012000084E0,1.108050108E0,9.768211995E0
4.098120750E0,-3.621000290E0,-9.028050423E0,1.102950096E0,9.789475800E0
4.100619454E0,-3.684000254E0,-9.028050423E0,1.101000071E0,9.812734250E0
4.103117993E0,-3.648000240E0,-9.067049980E0,1.027050018E0,9.827213890E0
4.105616760E0,-3.715050220E0,-9.069000244E0,1.003050089E0,9.851622864E0
4.108115454E0,-3.660000086E0,-9.127050400E0,9.790500402E-1,9.882165178E0
4.110614221E0,-3.660000086E0,-9.237000465E0,9.169500470E-1,9.977904370E0
4.113112995E0,-3.741000175E0,-9.273000717E0,9.859500527E-1,1.004767247E1
4.115611535E0,-3.942000151E0,-9.190950394E0,1.024049997E0,1.005294050E1
4.118110302E0,-3.847050190E0,-9.174000740E0,8.449500203E-1,9.983788123E0
4.120608997E0,-3.865950108E0,-9.081000328E0,8.449500203E-1,9.905759826E0
4.123107540E0,-3.981000185E0,-9.164999962E0,9.310500622E-1,1.003555883E1
4.125606307E0,-4.051949978E0,-9.222000122E0,9.690000415E-1,1.011941431E1
