"Time (s)","Acceleration x (m/s^2)","Acceleration y (m/s^2)","Acceleration z (m/s^2)","Absolute acceleration (m/s^2)"
6.339644000E-3,-3.652950287E0,3.895050287E0,5.895000458E0,7.954023695E0
8.838021000E-3,-3.708000183E0,3.949950218E0,5.695950508E0,7.860993848E0
1.133740400E-2,-3.802050114E0,3.997950077E0,5.575950146E0,7.844132196E0
1.383686600E-2,-3.921000242E0,4.045950413E0,5.566050053E0,7.919903461E0
1.633617500E-2,-4.069950104E0,4.052999973E0,5.679000378E0,8.077273545E0
1.883563500E-2,-4.194000244E0,4.117949963E0,5.895000458E0,8.324552861E0
2.133494500E-2,-4.342950344E0,4.164000034E0,6.165000439E0,8.614368484E0
2.383440400E-2,-4.394999981E0,4.207050323E0,6.421050072E0,8.845630632E0
2.633379100E-2,-4.417050362E0,4.234950066E0,6.640950203E0,9.030357443E0
2.883317500E-2,-4.354950428E0,4.267050266E0,6.835050106E0,9.159215095E0
3.133256000E-2,-4.300050259E0,4.288050175E0,7.024950504E0,9.285889086E0
3.383195500E-2,-4.182000160E0,4.270950317E0,7.177950382E0,9.340937514E0
3.633156800E-2,-4.041000366E0,4.243050098E0,7.341000557E0,9.392733749E0
3.883095500E-2,-3.900000095E0,4.213950157E0,7.549050331E0,9.484489315E0
4.133010800E-2,-3.739050150E0,4.201950073E0,7.780950546E0,9.601045352E0
4.382947100E-2,-3.558000088E0,4.189949989E0,8.005949974E0,9.711348028E0
4.632885600E-2,-3.364050150E0,4.132050037E0,8.181000710E0,9.763167700E0
4.882847100E-2,-3.057000160E0,4.075050354E0,8.322000504E0,9.757406302E0
5.132785800E-2,-2.707950115E0,4.027050018E0,8.398950577E0,9.700128683E0
5.382724200E-2,-2.404050112E0,3.943050146E0,8.490000725E0,9.664740747E0
5.632662700E-2,-2.173950195E0,3.826050282E0,8.605050087E0,9.664968040E0
5.882601200E-2,-2.097000122E0,3.673050165E0,8.779950142E0,9.745574971E0
6.132539600E-2,-2.064000130E0,3.520050049E0,8.938050270E0,9.825456300E0
6.382478100E-2,-2.029950142E0,3.378000259E0,9.096000671E0,9.913062672E0
6.632415100E-2,-1.948950052E0,3.271050215E0,9.181950569E0,9.940140445E0
6.882353500E-2,-1.909950137E0,3.180000067E0,9.238950729E0,9.955828470E0
7.132299600E-2,-1.908000112E0,3.124050140E0,9.322950363E0,1.001586527E1
7.382238200E-2,-1.896000147E0,3.057000160E0,9.421050072E0,1.008445591E1
7.632176700E-2,-1.897950053E0,3.010050058E0,9.507000923E0,1.015114192E1
7.882115100E-2,-1.873950124E0,2.971050024E0,9.579000473E0,1.020274852E1
8.132053600E-2,-1.900950074E0,2.940000057E0,9.615000725E0,1.023256813E1
8.381992100E-2,-1.953000069E0,2.919000149E0,9.619950294E0,1.024100653E1
8.631930500E-2,-2.053950071E0,2.884950161E0,9.634050369E0,1.026433509E1
8.881867900E-2,-2.155050039E0,2.871000051E0,9.664950371E0,1.031009930E1
9.131806300E-2,-2.265000105E0,2.884950161E0,9.711000443E0,1.038059211E1
9.381767800E-2,-2.353049994E0,2.919000149E0,9.756000519E0,1.045164830E1
9.631706500E-2,-2.422950029E0,2.968950033E0,9.799050331E0,1.052172697E1
9.881643500E-2,-2.470950127E0,3.040950060E0,9.820950508E0,1.057374298E1
1.013158200E-1,-2.487000227E0,3.096000195E0,9.888000488E0,1.065565301E1
1.038149740E-1,-2.502000093E0,3.169950247E0,9.955050468E0,1.074297998E1
1.063145870E-1,-2.479950190E0,3.262950182E0,1.006500053E1,1.086743910E1
1.088139640E-1,-2.454000235E0,3.322950125E0,1.023300076E1,1.103532596E1
1.113133480E-1,-2.371950150E0,3.390000105E0,1.042905045E1,1.121977457E1
1.138127330E-1,-2.277000189E0,3.450000048E0,1.057005024E1,1.134958996E1
1.163121180E-1,-2.158950090E0,3.475950241E0,1.075500011E1,1.150709881E1
1.188115020E-1,-2.041949987E0,3.534000158E0,1.090800095E1,1.164659613E1
1.213108760E-1,-1.888950109E0,3.591000080E0,1.106595039E1,1.178637655E1
1.238102600E-1,-1.707000136E0,3.630000114E0,1.120500088E1,1.190137786E1
1.263096440E-1,-1.543950081E0,3.678000212E0,1.127400017E1,1.195886898E1
1.288091050E-1,-1.363950014E0,3.718050241E0,1.129605007E1,1.197017145E1
1.313084910E-1,-1.213950038E0,3.739950180E0,1.126500034E1,1.193151854E1
1.338078570E-1,-1.090950012E0,3.771000147E0,1.122405052E1,1.189074952E1
1.363072410E-1,-9.960000515E-1,3.792000294E0,1.114500046E1,1.181449608E1
1.388066260E-1,-9.330000281E-1,3.828000069E0,1.109700012E1,1.177571591E1
1.413060110E-1,-8.980500698E-1,3.852000237E0,1.104900074E1,1.173562172E1
1.438053950E-1,-8.779500127E-1,3.910050154E0,1.097700024E1,1.168562461E1
1.463047840E-1,-8.710500598E-1,3.958050251E0,1.088400078E1,1.161405885E1
1.488041680E-1,-9.070500135E-1,4.019999981E0,1.076895046E1,1.153054351E1
1.513037830E-1,-9.600000381E-1,4.063050270E0,1.062495041E1,1.141575879E1
1.538031700E-1,-1.065000057E0,4.116000175E0,1.044795036E1,1.127986478E1
1.563025400E-1,-1.137000084E0,4.159049988E0,1.027800083E1,1.114575108E1
1.588019250E-1,-1.270950079E0,4.183050156E0,1.011795044E1,1.102207529E1
1.613010790E-1,-1.390950084E0,4.186950207E0,9.919050217E0,1.085600531E1
1.638006920E-1,-1.489050031E0,4.180050373E0,9.751950264E0,1.071403869E1
1.663000790E-1,-1.578000069E0,4.197000027E0,9.577050209E0,1.057472383E1
1.687994720E-1,-1.648950100E0,4.192049980E0,9.370950699E0,1.039745336E1
1.712988570E-1,-1.732950091E0,4.195050240E0,9.169950485E0,1.023179136E1
1.737983160E-1,-1.768950105E0,4.185000420E0,8.992950439E0,1.007554319E1
1.762977030E-1,-1.792950034E0,4.180050373E0,8.844000816E0,9.945041045E0
1.787970880E-1,-1.831050038E0,4.165950298E0,8.703000069E0,9.820900994E0
1.812964720E-1,-1.873950124E0,4.111050129E0,8.607000351E0,9.720744687E0
1.837957800E-1,-1.915050149E0,4.096950054E0,8.521050453E0,9.646798311E0
1.862952400E-1,-1.939050078E0,4.051050186E0,8.454000473E0,9.572933031E0
1.887946260E-1,-1.957950115E0,3.991050243E0,8.430000305E0,9.530317720E0
1.912940250E-1,-1.941000104E0,3.960000277E0,8.416049957E0,9.501525166E0
1.937934090E-1,-1.921950102E0,3.927000284E0,8.368050575E0,9.441371397E0
1.962927940E-1,-1.908000112E0,3.904950142E0,8.322000504E0,9.388545810E0
1.987921790E-1,-1.873950124E0,3.862050295E0,8.269950867E0,9.317682592E0
2.012915630E-1,-1.828950047E0,3.844950199E0,8.218950272E0,9.256340739E0
2.037909380E-1,-1.819050074E0,3.835950136E0,8.204999924E0,9.238261761E0
2.062903220E-1,-1.816950083E0,3.807000160E0,8.229000092E0,9.247215815E0
2.087899370E-1,-1.827000141E0,3.790050268E0,8.229000092E0,9.242232039E0
2.112893240E-1,-1.840950131E0,3.769050121E0,8.272050858E0,9.274786337E0
2.137886840E-1,-1.884000063E0,3.772950172E0,8.293050766E0,9.303725074E0
2.162880690E-1,-1.917000055E0,3.751950264E0,8.344050407E0,9.347470096E0
2.187874530E-1,-1.975050092E0,3.724950075E0,8.407950401E0,9.405833609E0
2.212868380E-1,-2.029950142E0,3.709050179E0,8.509050369E0,9.501667695E0
2.237862230E-1,-2.097000122E0,3.694050074E0,8.581050873E0,9.574855066E0
2.262856070E-1,-2.170950174E0,3.655950069E0,8.667000771E0,9.653802252E0
2.287849910E-1,-2.245050192E0,3.607950211E0,8.751000404E0,9.728183960E0
2.312844510E-1,-2.305050135E0,3.571950197E0,8.818050385E0,9.789284801E0
2.337838380E-1,-2.358000040E0,3.538950205E0,8.868000031E0,9.834925383E0
2.362832230E-1,-2.392050028E0,3.505050182E0,8.905950546E0,9.865253937E0
2.387826070E-1,-2.446950197E0,3.478950262E0,8.964000702E0,9.921893407E0
2.412819920E-1,-2.511000156E0,3.484050274E0,9.012000084E0,9.982979195E0
2.437813770E-1,-2.569050074E0,3.462000132E0,9.036000252E0,1.001173131E1
2.462807610E-1,-2.611950159E0,3.469050169E0,9.072000504E0,1.005772270E1
2.487801450E-1,-2.656950235E0,3.474000216E0,9.060000420E0,1.006040107E1
2.512795290E-1,-2.662050009E0,3.486000061E0,9.076050758E0,1.008034742E1
2.537789130E-1,-2.710050106E0,3.486000061E0,9.057000160E0,1.007600218E1
2.562782980E-1,-2.710050106E0,3.505050182E0,9.064050674E0,1.008894261E1
2.587776830E-1,-2.716950178E0,3.499950171E0,9.060000420E0,1.008538929E1
2.612770680E-1,-2.724000216E0,3.508050203E0,9.013950348E0,1.004877576E1
2.637764480E-1,-2.698050022E0,3.517050266E0,8.941950798E0,9.980360744E0
2.662760620E-1,-2.659950018E0,3.493050098E0,8.859000206E0,9.887295775E0
2.687754480E-1,-2.602050066E0,3.502950191E0,8.731950760E0,9.761572039E0
2.712748330E-1,-2.575950146E0,3.484050274E0,8.595000267E0,9.625391164E0
2.737742140E-1,-2.530050039E0,3.472050190E0,8.446949959E0,9.476668683E0
2.762735980E-1,-2.511000156E0,3.472050190E0,8.301000595E0,9.341673575E0
2.787729830E-1,-2.490000010E0,3.454950094E0,8.169000626E0,9.212456319E0
2.812723680E-1,-2.499000072E0,3.438000202E0,8.029950142E0,9.085424923E0
2.837717520E-1,-2.511000156E0,3.433050156E0,7.885950565E0,8.959864479E0
2.862711640E-1,-2.530050039E0,3.426000118E0,7.740000248E0,8.834377955E0
2.887706240E-1,-2.569050074E0,3.433050156E0,7.582050323E0,8.710530337E0
2.912700110E-1,-2.617050171E0,3.418950081E0,7.429050446E0,8.586557038E0
2.937693960E-1,-2.707950115E0,3.402000189E0,7.254000187E0,8.457370621E0
2.962687890E-1,-2.827050209E0,3.373050213E0,7.153950214E0,8.399326419E0
2.987681740E-1,-2.913000107E0,3.381000042E0,7.089000225E0,8.376792650E0
3.012675580E-1,-3.031050205E0,3.352050066E0,7.077000141E0,8.396870607E0
3.037669430E-1,-3.160050154E0,3.342000246E0,7.077000141E0,8.440308858E0
3.062663280E-1,-3.306000233E0,3.316050053E0,7.077000141E0,8.485856261E0
3.087657230E-1,-3.439950228E0,3.310950041E0,7.108050346E0,8.562711455E0
3.112651070E-1,-3.586050272E0,3.292050123E0,7.138950348E0,8.640715401E0
3.137644910E-1,-3.715950251E0,3.277950048E0,7.185000420E0,8.727970773E0
3.162638750E-1,-3.868950129E0,3.250950098E0,7.234950542E0,8.825075693E0
3.187632600E-1,-4.017000198E0,3.226950169E0,7.293000221E0,8.929577269E0
3.212626590E-1,-4.156050205E0,3.220050097E0,7.366950512E0,9.050604166E0
3.237622740E-1,-4.281000137E0,3.223050117E0,7.432050228E0,9.162444261E0
3.262616600E-1,-4.381050110E0,3.202950239E0,7.501050472E0,9.258415009E0
3.287610450E-1,-4.455000401E0,3.214950085E0,7.561050415E0,9.346251441E0
3.312604250E-1,-4.479000092E0,3.213000059E0,7.636950493E0,9.418483107E0
3.337598090E-1,-4.431000233E0,3.237000227E0,7.723950386E0,9.474774039E0
3.362591940E-1,-4.378950119E0,3.286950111E0,7.876950264E0,9.592996958E0
3.387585790E-1,-4.246950150E0,3.357000113E0,8.076000214E0,9.722541580E0
3.412579780E-1,-4.161000252E0,3.381000042E0,8.353050232E0,9.925650233E0
3.437573620E-1,-4.017000198E0,3.414000273E0,8.650050163E0,1.012990900E1
3.462568220E-1,-3.919050217E0,3.421050072E0,8.855999947E0,1.027089447E1
3.487562090E-1,-3.820950270E0,3.382950068E0,9.088050842E0,1.042289212E1
3.512555940E-1,-3.720000267E0,3.406950235E0,9.282000542E0,1.056414909E1
3.537549680E-1,-3.601050138E0,3.400050163E0,9.471000671E0,1.068773863E1
3.562543530E-1,-3.495000124E0,3.400050163E0,9.685050011E0,1.084322649E1
3.587537370E-1,-3.400050163E0,3.388050079E0,9.865950584E0,1.097160906E1
3.612531220E-1,-3.331950188E0,3.390000105E0,1.004595089E1,1.111373574E1
3.637524920E-1,-3.256050110E0,3.370950222E0,1.020900059E1,1.123338154E1
3.662518760E-1,-3.201000214E0,3.373050213E0,1.027800083E1,1.128100932E1
3.687514900E-1,-3.142950058E0,3.393000126E0,1.024500084E1,1.124057948E1
3.712506460E-1,-3.088050127E0,3.438000202E0,1.021605015E1,1.121265266E1
3.737502590E-1,-3.045000076E0,3.484050274E0,1.006800079E1,1.108040034E1
3.762496320E-1,-2.893950224E0,3.438000202E0,9.760950089E0,1.074574055E1
3.787490160E-1,-2.635950089E0,3.478950262E0,9.388050079E0,1.035310640E1
3.812484010E-1,-2.212050200E0,3.543000221E0,8.839050293E0,9.776237862E0
3.837477850E-1,-1.314000010E0,3.607950211E0,7.908000469E0,8.790925558E0
3.862471700E-1,-3.949500322E-1,3.601050138E0,6.864000320E0,7.761317416E0
3.887465550E-1,6.000000052E-3,3.574950218E0,6.277950287E0,7.224469868E0
3.912459390E-1,1.549500078E-1,3.526950121E0,5.947050095E0,6.915980877E0
3.937453990E-1,7.605000585E-2,3.502950191E0,5.872950077E0,6.838712324E0
3.962447090E-1,-1.909500062E-1,3.385050058E0,6.067050457E0,6.950117053E0
3.987441820E-1,-5.310000181E-1,3.238950253E0,6.316050529E0,7.117952939E0
4.012434920E-1,-8.880000710E-1,3.079050064E0,6.472050190E0,7.221947596E0
4.037429510E-1,-1.198950052E0,2.890050173E0,6.570000172E0,7.277003057E0
4.062423380E-1,-1.405050039E0,2.713050127E0,6.565050125E0,7.241180135E0
4.087417230E-1,-1.543950081E0,2.557050228E0,6.577050209E0,7.223564022E0
4.112411170E-1,-1.639950037E0,2.410950184E0,6.522000313E0,7.144130807E0
4.137405020E-1,-1.627950072E0,2.277000189E0,6.454950333E0,7.035718520E0
4.162398860E-1,-1.578000069E0,2.172000170E0,6.421050072E0,6.959709260E0
4.187392700E-1,-1.498950124E0,2.088000059E0,6.366000175E0,6.865315284E0
4.212386540E-1,-1.453050017E0,2.023050070E0,6.309000492E0,6.782888260E0
4.237380380E-1,-1.362000108E0,1.939050078E0,6.274950504E0,6.707455802E0
4.262376540E-1,-1.270950079E0,1.936950088E0,6.342000484E0,6.751893060E0
4.287370400E-1,-1.185000062E0,1.936950088E0,6.439950466E0,6.828540312E0
4.312364250E-1,-1.077000022E0,1.936950088E0,6.619950294E0,6.981077753E0
4.337358240E-1,-9.289500713E-1,2.004000187E0,6.847050190E0,7.194516057E0
4.362352080E-1,-7.950000167E-1,2.076000214E0,7.111050129E0,7.450425213E0
4.387345930E-1,-6.630000472E-1,2.188050032E0,7.491000175E0,7.832127146E0
4.412339770E-1,-4.909500182E-1,2.305950165E0,7.942050457E0,8.284600385E0
4.437333620E-1,-3.679500222E-1,2.455950022E0,8.368050575E0,8.728765558E0
4.462327280E-1,-2.389500141E-1,2.622000217E0,8.571000099E0,8.966271519E0
4.487321120E-1,-1.050000042E-1,2.796000242E0,8.698050499E0,9.136997583E0
4.512315720E-1,8.805000782E-2,3.043050051E0,9.232050896E0,9.721042648E0
4.537308820E-1,2.430000156E-1,3.310950041E0,9.787050247E0,1.033478552E1
4.562302590E-1,4.210500121E-1,3.493050098E0,1.008195019E1,1.067822090E1
4.587296440E-1,5.860500336E-1,3.721050262E0,1.039995003E1,1.106113151E1
4.612291050E-1,6.190500259E-1,3.850050211E0,1.081005096E1,1.149188024E1
4.637284920E-1,6.070500016E-1,3.996000290E0,1.106400013E1,1.177916070E1
4.662278770E-1,5.479500294E-1,4.144050121E0,1.115895081E1,1.191618998E1
4.687272320E-1,5.089499950E-1,4.381050110E0,1.111395073E1,1.195711215E1
4.712266170E-1,5.500500202E-1,5.065950394E0,1.107105064E1,1.218747598E1
4.737260010E-1,6.840000153E-1,6.009000301E0,1.179405022E1,1.325426577E1
4.762256150E-1,5.329500437E-1,6.328050137E0,1.149195099E1,1.312985879E1
4.787247710E-1,4.879500270E-1,6.499950409E0,1.112295055E1,1.289214798E1
4.812241440E-1,6.100500226E-1,6.526950359E0,1.069200039E1,1.254161530E1
4.837235290E-1,8.710500598E-1,6.301950455E0,1.017495060E1,1.200012198E1
4.862231440E-1,1.207950115E0,5.952000141E0,9.643950462E0,1.139698336E1
4.887225310E-1,1.588950038E0,5.590050220E0,9.069000244E0,1.077126683E1
4.912219060E-1,1.941000104E0,5.056950092E0,8.971050262E0,1.047950230E1
4.937212900E-1,2.475000143E0,4.377000332E0,8.760000229E0,1.010056244E1
4.962206750E-1,3.202950239E0,3.436050177E0,9.258000374E0,1.038151733E1
4.987200590E-1,3.964050293E0,2.404050112E0,1.058505058E1,1.155579714E1
5.012194440E-1,4.909950256E0,1.396050096E0,1.175805092E1,1.281828104E1
5.037188200E-1,5.938950062E0,9.700500369E-1,1.160700035E1,1.307419527E1
5.062182040E-1,6.342000484E0,6.229500175E-1,1.113495064E1,1.282950360E1
5.087175880E-1,6.277050495E0,2.059500068E-1,1.104000092E1,1.270139357E1
5.112169720E-1,6.066000462E0,-1.930500120E-1,1.108005047E1,1.263333480E1
5.137164330E-1,5.956050396E0,-1.810500026E-1,1.084305096E1,1.237251266E1
5.162157420E-1,5.719050407E0,1.440000087E-1,1.010100079E1,1.160855247E1
5.187152010E-1,5.194950104E0,4.480500221E-1,9.160050392E0,1.054015079E1
5.212145880E-1,4.630050182E0,8.640000224E-1,8.274000168E0,9.520658565E0
5.237139730E-1,3.322050095E0,8.160000443E-1,7.527000427E0,8.267866009E0
5.262133570E-1,1.764000058E0,1.060950041E0,7.635000229E0,7.907625414E0
5.287127330E-1,6.070500016E-1,1.200000048E0,7.506000519E0,7.625519891E0
5.312121170E-1,-5.620500445E-1,1.309950113E0,7.623000145E0,7.755127385E0
5.337117310E-1,-1.462950110E0,1.549050093E0,7.867050171E0,8.150475913E0
5.362108870E-1,-1.996950150E0,1.912950039E0,8.446949959E0,8.888090422E0
5.387105000E-1,-2.226000071E0,2.397000074E0,8.739000320E0,9.331174217E0
5.412096650E-1,-2.442000151E0,2.811000109E0,8.428050041E0,9.213962983E0
5.437092780E-1,-2.866050243E0,2.776950121E0,7.438950539E0,8.441781867E0
5.462086650E-1,-3.198000193E0,2.940000057E0,6.550950527E0,7.860391745E0
5.487080500E-1,-3.328050137E0,3.187050104E0,5.995050430E0,7.561338224E0
5.512074340E-1,-3.190950155E0,3.498000145E0,5.487000465E0,7.247436927E0
5.537068290E-1,-2.845950127E0,3.715950251E0,5.374950409E0,7.127258259E0
5.562062130E-1,-2.395950079E0,3.898050070E0,5.659950256E0,7.278077221E0
5.587055980E-1,-1.800000072E0,4.056000233E0,6.285000324E0,7.693657597E0
5.612049830E-1,-1.135050058E0,4.258950233E0,7.482000351E0,8.683739113E0
5.637043810E-1,-4.470000267E-1,4.414950371E0,9.069000244E0,1.009645290E1
5.662037650E-1,1.860000044E-1,4.663950443E0,1.004805088E1,1.107927598E1
5.687032250E-1,7.009500265E-1,4.978050232E0,1.051995087E1,1.165940313E1
5.712026120E-1,1.219950080E0,5.266950130E0,1.072095013E1,1.200699019E1
5.737020060E-1,1.773000121E0,5.446950436E0,1.103505039E1,1.243322708E1
5.762013900E-1,2.359950066E0,5.581050396E0,1.123095036E1,1.276133746E1
5.787007750E-1,2.868000031E0,5.631000042E0,1.107300091E1,1.274931115E1
5.812001600E-1,3.253050089E0,5.590050220E0,1.078800011E1,1.257823289E1
5.836995440E-1,3.460950136E0,5.527950287E0,1.025895023E1,1.215658135E1
5.861989240E-1,3.535050154E0,5.392050266E0,9.826050758E0,1.175253416E1
5.886983080E-1,3.643050194E0,5.253000259E0,9.771000862E0,1.167639860E1
5.911979230E-1,3.658050060E0,5.008950233E0,9.828000069E0,1.162155317E1
5.936973090E-1,3.355950117E0,4.558950424E0,9.682050705E0,1.121554885E1
5.961966750E-1,2.938950062E0,3.976950169E0,9.751950264E0,1.093407948E1
5.986960600E-1,2.530050039E0,3.405000210E0,9.712950706E0,1.059889575E1
6.011954440E-1,2.347950220E0,2.989950180E0,9.661050797E0,1.038212766E1
6.036948290E-1,2.572950125E0,2.818050146E0,9.667950630E0,1.039378412E1
6.061942140E-1,3.064050198E0,2.655000210E0,9.772950172E0,1.058054747E1
6.086935740E-1,2.748000145E0,2.689050198E0,1.049100018E1,1.117334240E1
6.111929580E-1,2.542050123E0,2.563950062E0,1.110195065E1,1.167429513E1
6.136923420E-1,2.446050167E0,2.385000229E0,1.144395065E1,1.194300607E1
6.161917260E-1,2.599050045E0,2.185950041E0,1.102995014E1,1.154093752E1
6.186911010E-1,3.088050127E0,1.990050077E0,1.031400013E1,1.094874201E1
6.211904860E-1,3.636000156E0,1.762050033E0,9.699000359E0,1.050694653E1
6.236898710E-1,3.877950191E0,1.563000083E0,9.225000381E0,1.012828213E1
6.261893310E-1,3.777000189E0,1.381050110E0,8.950050354E0,9.812055400E0
6.286887180E-1,3.643050194E0,1.341000080E0,8.787000656E0,9.606324815E0
6.311881180E-1,3.418050051E0,1.384050012E0,8.583000183E0,9.341656851E0
6.336875020E-1,3.412950277E0,1.494000077E0,8.346000671E0,9.139802680E0
6.361868870E-1,3.499950171E0,1.686000109E0,8.072999954E0,8.959105749E0
6.386862720E-1,3.576000214E0,1.891050100E0,7.795050144E0,8.782178247E0
6.411856560E-1,3.607050180E0,2.083050013E0,7.555950165E0,8.627994625E0
6.436850490E-1,3.640950203E0,2.248050213E0,7.399950504E0,8.548070870E0
6.461844330E-1,3.769950151E0,2.368050098E0,7.306950569E0,8.556384285E0
6.486838170E-1,4.026000023E0,2.538000107E0,7.240050316E0,8.664205059E0
6.511834320E-1,4.105050087E0,2.695950031E0,7.207050323E0,8.721304785E0
6.536828190E-1,4.326000214E0,2.803950071E0,7.300050259E0,8.936842151E0
6.561819880E-1,4.917000294E0,2.986050129E0,7.396050453E0,9.369895921E0
6.586816010E-1,5.038950443E0,2.974050045E0,7.381050587E0,9.418911986E0
6.611807570E-1,4.917000294E0,2.926050186E0,7.506000519E0,9.438151586E0
6.636803710E-1,4.876049995E0,2.856000185E0,7.666050434E0,9.523703580E0
6.661797570E-1,4.867050171E0,2.574000120E0,8.076000214E0,9.774222907E0
6.686791270E-1,5.022000313E0,2.161950111E0,8.610000610E0,1.019934439E1
6.711785110E-1,5.404950142E0,1.699950099E0,9.358950615E0,1.094044208E1
6.736779710E-1,5.839050293E0,1.300050020E0,9.430950165E0,1.116814485E1
6.761772810E-1,6.009000301E0,9.960000515E-1,8.689050674E0,1.061130069E1
6.786767400E-1,5.844000340E0,7.420500517E-1,7.891050339E0,9.847418631E0
6.811760500E-1,5.665950298E0,5.269500017E-1,7.575000286E0,9.474243950E0
6.836755090E-1,5.653950214E0,2.950500250E-1,7.590000153E0,9.469018421E0
6.861748960E-1,5.824050426E0,4.095000029E-2,7.743000507E0,9.688926521E0
6.886742810E-1,6.121050358E0,-2.239500135E-1,7.860000610E0,9.964789044E0
6.911736650E-1,6.432000160E0,-5.209500194E-1,7.920000553E0,1.021608652E1
6.936730590E-1,6.720000267E0,-6.840000153E-1,7.921950340E0,1.041074238E1
6.961724440E-1,7.042950153E0,-6.859500408E-1,8.052000046E0,1.071953260E1
6.986718280E-1,7.314000130E0,-5.980500579E-1,8.470950127E0,1.120755361E1
7.011712120E-1,7.486050129E0,-5.070000291E-1,8.929950714E0,1.166370504E1
7.036705960E-1,7.582050323E0,-4.870500267E-1,9.178950310E0,1.191544517E1
7.061699850E-1,7.567050457E0,-5.500500202E-1,9.178950310E0,1.190864965E1
7.086693700E-1,7.459950447E0,-6.739500165E-1,9.013950348E0,1.171991340E1
7.111689850E-1,7.219950199E0,-8.899500370E-1,8.751000404E0,1.137979350E1
7.136683720E-1,6.922950268E0,-1.177050114E0,8.419950485E0,1.096395246E1
7.161677520E-1,6.624000549E0,-1.447050095E0,8.169000626E0,1.061620970E1
7.186671370E-1,6.337050438E0,-1.740000129E0,7.912950516E0,1.028594160E1
7.211665210E-1,6.066000462E0,-1.977000117E0,7.606050491E0,9.927582543E0
7.236659060E-1,5.896050453E0,-2.185050011E0,7.341000557E0,9.665823487E0
7.261652910E-1,5.860050201E0,-2.299950123E0,7.087050438E0,9.479253285E0
7.286646750E-1,5.941950321E0,-2.371950150E0,6.820950508E0,9.351913546E0
7.311640590E-1,6.085050106E0,-2.434050083E0,6.373050213E0,9.141564615E0
7.336635200E-1,6.172050476E0,-2.479050159E0,5.830050468E0,8.844737714E0
7.361629060E-1,6.106950283E0,-2.568000078E0,5.227050304E0,8.438691904E0
7.386622910E-1,5.827050209E0,-2.764050245E0,4.585050106E0,7.913101312E0
7.411616750E-1,5.398050308E0,-3.019950151E0,3.943050146E0,7.335304391E0
7.436610600E-1,4.948050022E0,-3.348000050E0,3.373050213E0,6.860741293E0
7.461604450E-1,4.471950054E0,-3.679050207E0,2.847000122E0,6.452841034E0
7.486598290E-1,4.132050037E0,-3.982950211E0,2.431950092E0,6.233146167E0
7.511592130E-1,4.089000225E0,-4.275000095E0,2.100000143E0,6.277383950E0
7.536585970E-1,4.242000103E0,-4.489950180E0,1.900950074E0,6.462803469E0
7.561579810E-1,3.889950275E0,-4.894950390E0,1.827000141E0,6.513845407E0
7.586573660E-1,3.157050133E0,-5.455050468E0,1.590000033E0,6.500203171E0
7.611567510E-1,2.500950098E0,-5.934000492E0,1.221000075E0,6.554231795E0
7.636561210E-1,1.974000096E0,-6.358050346E0,7.369500399E-1,6.698102414E0
7.661555060E-1,1.836000085E0,-6.741000175E0,2.149500102E-1,6.989862887E0
7.686551200E-1,2.032050133E0,-7.038000107E0,-1.930500120E-1,7.328024396E0
7.711545070E-1,2.371950150E0,-7.239000320E0,-5.160000324E-1,7.635150895E0
7.736538910E-1,2.370000124E0,-7.402050495E0,-6.840000153E-1,7.802250197E0
7.761532900E-1,2.085000038E0,-7.569000244E0,-8.419500589E-1,7.895940081E0
7.786526740E-1,1.618050098E0,-7.768050194E0,-1.060050011E0,8.005273010E0
7.811520590E-1,1.453050017E0,-7.912050247E0,-1.311000109E0,8.150497822E0
7.836514440E-1,1.231950045E0,-8.067000389E0,-1.483050108E0,8.294192776E0
7.861508280E-1,9.499500394E-1,-8.245050430E0,-1.534050107E0,8.440176029E0
7.886502360E-1,6.270000339E-1,-8.403000832E0,-1.624950051E0,8.581609097E0
7.911496200E-1,2.820000052E-1,-8.548950195E0,-1.776000142E0,8.736031705E0
7.936490810E-1,9.000000544E-3,-8.671050072E0,-1.993050098E0,8.897159043E0
7.961484680E-1,-2.299500108E-1,-8.809950829E0,-2.191950083E0,9.081451193E0
7.986478660E-1,-3.520500064E-1,-8.965050697E0,-2.412000179E0,9.290523025E0
8.011472510E-1,-4.950000346E-1,-9.186000824E0,-2.602050066E0,9.560245850E0
8.036466360E-1,-4.810500145E-1,-9.423000336E0,-2.773950100E0,9.834589142E0
8.061460200E-1,-4.740000367E-1,-9.718950272E0,-2.857950211E0,1.014152601E1
8.086454100E-1,-3.799500167E-1,-1.003095055E1,-2.920050144E0,1.045423473E1
8.111447940E-1,-1.429500133E-1,-1.038495064E1,-2.950950146E0,1.079702465E1
8.136441780E-1,1.999500096E-1,-1.072500038E1,-2.932050228E0,1.112036563E1
8.161435620E-1,6.049500108E-1,-1.109400082E1,-2.889000177E0,1.147994515E1
8.186431770E-1,1.050000072E0,-1.142400074E1,-2.830950022E0,1.181628415E1
8.211423330E-1,1.491000056E0,-1.177395058E1,-2.776050091E0,1.218833243E1
8.236419460E-1,1.869000077E0,-1.211595058E1,-2.719050169E0,1.255717539E1
8.261411020E-1,2.212050200E0,-1.244595051E1,-2.737950087E0,1.293411075E1
8.286407160E-1,2.484000206E0,-1.276995087E1,-2.757000208E0,1.329823117E1
8.311400920E-1,2.665950060E0,-1.306905079E1,-2.755050182E0,1.361975329E1
8.336394770E-1,2.824050188E0,-1.338705063E1,-2.737950087E0,1.395294788E1
8.361388610E-1,2.893950224E0,-1.376295090E1,-2.688000202E0,1.431848841E1
8.386382460E-1,2.863050222E0,-1.414395046E1,-2.688000202E0,1.467902368E1
8.411376310E-1,2.820000172E0,-1.457205105E1,-2.788050175E0,1.510199644E1
8.436370290E-1,2.815050125E0,-1.499595070E1,-2.970000029E0,1.554425761E1
8.461364140E-1,2.833950043E0,-1.540995026E1,-3.210000038E0,1.599380943E1
8.486357990E-1,2.896050215E0,-1.581705093E1,-3.447000265E0,1.644530383E1
8.511352580E-1,2.998950243E0,-1.624800110E1,-3.643050194E0,1.691931018E1
8.536346700E-1,3.211950064E0,-1.671300125E1,-3.724050283E0,1.742152647E1
8.561340540E-1,3.385050058E0,-1.722300148E1,-3.756000280E0,1.794987136E1
8.586334390E-1,3.552000284E0,-1.774695015E1,-3.811050177E0,1.849581166E1
8.611328240E-1,3.763050079E0,-1.830000114E1,-3.892050266E0,1.908398918E1
8.636322080E-1,4.041000366E0,-1.887195015E1,-3.957000256E0,1.970121919E1
8.661315780E-1,4.366050243E0,-1.948800087E1,-4.000050068E0,2.036774345E1
8.686309620E-1,4.789950371E0,-2.017695045E1,-3.994950294E0,2.111900997E1
8.711303460E-1,5.365050316E0,-2.083995056E1,-3.934950113E0,2.187626880E1
8.736297300E-1,6.127950191E0,-2.151600075E1,-3.717000246E0,2.267831900E1
8.761293400E-1,7.012050152E0,-2.218605042E1,-3.310050249E0,2.350204487E1
8.786287270E-1,7.881000519E0,-2.292300034E1,-2.749950171E0,2.439541636E1
8.811281110E-1,8.719050407E0,-2.368995094E1,-2.034000158E0,2.532533854E1
8.836274960E-1,9.559050560E0,-2.443200111E1,-1.243950009E0,2.626491077E1
8.861268910E-1,1.037805080E1,-2.512095070E1,-2.719500065E-1,2.718161252E1
8.886262750E-1,1.113495064E1,-2.577300072E1,8.380500674E-1,2.808802271E1
8.911256600E-1,1.179105091E1,-2.635200119E1,2.065950155E0,2.894347938E1
8.936250440E-1,1.243695068E1,-2.686005211E1,3.567000151E0,2.981381612E1
8.961244280E-1,1.308105087E1,-2.723100090E1,5.458950043E0,3.069920907E1
8.986238260E-1,1.378695107E1,-2.748195076E1,7.714050293E0,3.169927774E1
9.011232100E-1,1.459005070E1,-2.764005089E1,1.015905094E1,3.286408843E1
9.036225950E-1,1.547295094E1,-2.767095184E1,1.257900047E1,3.410755106E1
9.061219800E-1,1.639005089E1,-2.761800194E1,1.475100040E1,3.534090848E1
9.086213650E-1,1.787205124E1,-2.740095139E1,1.772700119E1,3.720845231E1
9.111207360E-1,1.931805038E1,-2.722605133E1,2.025300026E1,3.904649743E1
9.136201960E-1,2.015100098E1,-2.727900124E1,2.110500145E1,3.994531055E1
9.161195830E-1,2.082600021E1,-2.748195076E1,2.079405022E1,4.026626910E1
9.186189680E-1,2.151600075E1,-2.766900063E1,2.029095078E1,4.049980947E1
9.211183660E-1,2.225595093E1,-2.773605156E1,2.000100136E1,4.080019563E1
9.236177510E-1,2.305995178E1,-2.761800194E1,1.971900177E1,4.102870261E1
9.261171350E-1,2.392905045E1,-2.731905174E1,1.907205009E1,4.102039905E1
9.286165200E-1,2.479395103E1,-2.677305222E1,1.797795105E1,4.067853312E1
9.311159050E-1,2.560500145E1,-2.602200127E1,1.657695007E1,4.009433779E1
9.336152800E-1,2.636895180E1,-2.525100136E1,1.520295048E1,3.954825397E1
9.361148940E-1,2.702505112E1,-2.446305084E1,1.396305084E1,3.903538181E1
9.386142800E-1,2.760000038E1,-2.369700050E1,1.294500065E1,3.861192686E1
9.411136650E-1,2.803095055E1,-2.302395058E1,1.214100075E1,3.825232526E1
9.436130640E-1,2.844705200E1,-2.240595055E1,1.154505062E1,3.800723065E1
9.461124480E-1,2.880900192E1,-2.183595085E1,1.114695072E1,3.782884946E1
9.486118330E-1,2.926095200E1,-2.133405113E1,1.102800083E1,3.785448258E1
9.511112170E-1,2.980200195E1,-2.086005020E1,1.123095036E1,3.807144942E1
9.536106020E-1,3.052305222E1,-2.030205154E1,1.182000065E1,3.851678113E1
9.561099820E-1,3.143505096E1,-1.966305161E1,1.271805096E1,3.919881181E1
9.586093660E-1,3.249600220E1,-1.900395012E1,1.387905025E1,4.012191814E1
9.611087500E-1,3.370695114E1,-1.831905174E1,1.518405056E1,4.125895786E1
9.636081340E-1,3.498300171E1,-1.761105156E1,1.662795067E1,4.254936297E1
9.661075180E-1,3.618495178E1,-1.689705086E1,1.825800133E1,4.391145267E1
9.686069030E-1,3.701805115E1,-1.618395042E1,1.989600182E1,4.503451177E1
9.711063640E-1,3.747795105E1,-1.548900032E1,2.147100067E1,4.588583459E1
9.736057510E-1,3.756000137E1,-1.480905056E1,2.286900139E1,4.640100113E1
9.761051360E-1,3.727905273E1,-1.411800098E1,2.409795189E1,4.658065059E1
9.786045060E-1,3.669300079E1,-1.346595097E1,2.504295158E1,4.642044341E1
9.811038910E-1,3.587400055E1,-1.282695103E1,2.566305161E1,4.593546349E1
9.836032750E-1,3.494295120E1,-1.218300056E1,2.594805145E1,4.519664496E1
9.861026600E-1,3.392505264E1,-1.162005043E1,2.583300209E1,4.419591345E1
9.886020450E-1,3.291195297E1,-1.111005020E1,2.542395210E1,4.304657018E1
9.911014190E-1,3.192405128E1,-1.066800022E1,2.479200172E1,4.180424175E1
9.936008030E-1,3.092295074E1,-1.036095047E1,2.396400070E1,4.047037814E1
9.961004170E-1,2.994105148E1,-1.014795017E1,2.304195023E1,3.912005786E1
9.985998040E-1,2.899995232E1,-1.002600002E1,2.199105072E1,3.775081751E1
1.001099189E0,2.812605095E1,-9.994950294E0,2.094195175E1,3.646284570E1
1.003598563E0,2.734095192E1,-1.000395012E1,1.994805145E1,3.529208731E1
1.006097948E0,2.663700104E1,-1.001205063E1,1.906500053E1,3.425266745E1
1.008597332E0,2.598600197E1,-9.973050117E0,1.832999992E1,3.332751002E1
1.011096717E0,2.541105080E1,-9.906000137E0,1.777695084E1,3.255564962E1
1.013596102E0,2.494905090E1,-9.733950615E0,1.738695145E1,3.192978259E1
1.016095486E0,2.457105064E1,-9.499050140E0,1.711095047E1,3.141262659E1
1.018594946E0,2.423595047E1,-9.235950470E0,1.688100052E1,3.094595700E1
1.021094256E0,2.398200035E1,-8.902950287E0,1.664400101E1,3.051920107E1
1.023593638E0,2.375700188E1,-8.500950813E0,1.638405037E1,3.008485349E1
1.026093023E0,2.355600166E1,-8.046000481E0,1.606694984E1,2.962718710E1
1.028592470E0,2.339505196E1,-7.585950375E0,1.568400097E1,2.916955580E1
1.031091857E0,2.318205070E1,-7.066950321E0,1.530900097E1,2.866556771E1
1.033591242E0,2.294100189E1,-6.502050400E0,1.501905060E1,2.818045614E1
1.036090626E0,2.278200150E1,-5.965050220E0,1.464495087E1,2.773221957E1
1.038589987E0,2.271795082E1,-5.512950420E0,1.414695072E1,2.732460661E1
1.041089371E0,2.271105194E1,-5.077050209E0,1.364205074E1,2.697543081E1
1.043588985E0,2.271105194E1,-4.549950123E0,1.321095085E1,2.666501732E1
1.046088141E0,2.274405098E1,-3.957000256E0,1.277100086E1,2.638272482E1
1.048587523E0,2.272695160E1,-3.364950180E0,1.228500080E1,2.605299337E1
1.051086933E0,2.260995102E1,-2.821950197E0,1.174800014E1,2.563569378E1
1.053586318E0,2.240205193E1,-2.282999992E0,1.125795078E1,2.517549355E1
1.056085933E0,2.209095192E1,-1.774950027E0,1.092000008E1,2.470641629E1
1.058585320E0,2.171205139E1,-1.288950086E0,1.066095066E1,2.422251921E1
1.061084704E0,2.124795151E1,-9.229500294E-1,1.033095074E1,2.364436134E1
1.063584098E0,2.065605164E1,-6.790500283E-1,9.880950928E0,2.290778840E1
1.066083482E0,1.998600006E1,-4.969500303E-1,9.241950035E0,2.202500393E1
1.068582867E0,1.920600128E1,-3.750000298E-1,8.418000221E0,2.097316948E1
1.071082252E0,1.843905067E1,-2.380500138E-1,7.539000511E0,1.992214311E1
1.073581627E0,1.772400093E1,-1.090500057E-1,6.640950203E0,1.892760736E1
1.076081011E0,1.714905167E1,6.705000252E-2,5.860950470E0,1.812305739E1
1.078580471E0,1.669200134E1,1.750500053E-1,5.179050446E0,1.747787501E1
1.081079858E0,1.632105064E1,2.419500053E-1,4.611000061E0,1.696162007E1
1.083579243E0,1.600695038E1,2.389500141E-1,3.862050295E0,1.646799897E1
1.086078617E0,1.555905056E1,1.050000042E-1,3.103050232E0,1.586581230E1
1.088578002E0,1.494105053E1,-1.590000093E-1,2.380050182E0,1.513026473E1
1.091077387E0,1.422105026E1,-3.919500113E-1,1.434000015E0,1.429854019E1
1.093576771E0,1.343595028E1,-6.310500503E-1,4.210500121E-1,1.345734993E1
1.096076155E0,1.260705090E1,-7.579500079E-1,-7.080000043E-1,1.264964365E1
1.098575549E0,1.166100025E1,-8.629500270E-1,-1.771050096E0,1.182625165E1
1.101075164E0,1.070895004E1,-9.210000634E-1,-2.712000132E0,1.108534153E1
1.103574320E0,9.811050415E0,-9.690000415E-1,-3.495000124E0,1.045995684E1
1.106073702E0,8.997000694E0,-1.014000058E0,-4.135950089E0,9.953908817E0
1.108573087E0,8.251950264E0,-1.093050003E0,-4.564949989E0,9.493587829E0
1.111072456E0,7.630050182E0,-1.146000028E0,-4.834950447E0,9.105368069E0
1.113571841E0,7.134000301E0,-1.191000104E0,-4.984050274E0,8.783689355E0
1.116071457E0,6.792000294E0,-1.213050008E0,-4.833000183E0,8.423814402E0
1.118570843E0,6.616950512E0,-1.215000033E0,-4.531050205E0,8.111145118E0
1.121070228E0,6.619050503E0,-1.147950053E0,-4.123950005E0,7.882676102E0
1.123569622E0,6.828000546E0,-1.009050012E0,-3.661950111E0,7.813427673E0
1.126069007E0,7.189050198E0,-7.789500356E-1,-3.198000193E0,7.906732014E0
1.128568392E0,7.720950603E0,-4.609500170E-1,-2.755050182E0,8.210715843E0
1.131067776E0,8.380949974E0,-5.595000088E-2,-2.319000006E0,8.696045877E0
1.133567161E0,9.118950844E0,3.160500228E-1,-1.993050098E0,9.339561061E0
1.136066530E0,9.928050041E0,7.039500475E-1,-1.807050109E0,1.011568848E1
1.138565990E0,1.075200081E1,9.979500771E-1,-1.776000142E0,1.094329028E1
1.141065377E0,1.162995052E1,1.255050063E0,-2.025000095E0,1.187145843E1
1.143564761E0,1.244205093E1,1.450950027E0,-2.362050056E0,1.274712391E1
1.146064142E0,1.319805050E1,1.587000132E0,-3.127950191E0,1.365617731E1
1.148563527E0,1.401705074E1,1.654050112E0,-4.085999966E0,1.469384187E1
1.151062911E0,1.501305103E1,1.537050128E0,-6.325050354E0,1.636338860E1
1.153562296E0,1.582695103E1,3.420000076E-1,-1.278195095E1,2.034668555E1
1.156061680E0,1.579605103E1,-1.062000036E0,-1.965795135E1,2.524040656E1
1.158561063E0,1.333005047E1,-3.412950277E0,-1.924605179E1,2.365901487E1
1.161060447E0,9.459000587E0,-4.881000042E0,-1.883400154E1,2.163368826E1
1.163560062E0,6.160050392E0,-5.167950153E0,-1.991895103E1,2.148065502E1
1.166059218E0,3.667050123E0,-5.002950191E0,-1.903500175E1,2.002019128E1
1.168558615E0,2.200050116E0,-4.483050346E0,-1.747005081E1,1.816977260E1
1.171058000E0,1.227000117E0,-4.087950230E0,-1.497195053E1,1.556843502E1
1.173557615E0,5.879999995E-1,-4.050000191E0,-1.254000092E1,1.319090097E1
1.176057002E0,3.850500286E-1,-4.573950291E0,-1.054095078E1,1.149699648E1
1.178556387E0,6.430500150E-1,-4.984050274E0,-9.399000168E0,1.065811778E1
1.181055785E0,9.310500622E-1,-5.785950184E0,-7.366050243E0,9.412904437E0
1.183555170E0,1.198950052E0,-6.765000343E0,-5.830950260E0,9.011253620E0
1.186054555E0,1.465050101E0,-7.476000309E0,-4.479000092E0,8.837329588E0
1.188554014E0,1.443000078E0,-8.338050842E0,-3.178950071E0,9.039417273E0
1.191053324E0,1.030950069E0,-9.621000290E0,-1.122000098E0,9.740913142E0
1.193552711E0,6.049500108E-1,-1.083495045E1,7.420500517E-1,1.087716663E1
1.196052096E0,-4.950000439E-3,-1.214700031E1,2.109000206E0,1.232872755E1
1.198551558E0,-7.870500088E-1,-1.317900085E1,2.638050079E0,1.346346239E1
1.201050944E0,-1.543950081E0,-1.389705086E1,2.337000132E0,1.417650782E1
1.203550329E0,-1.807050109E0,-1.377795029E1,1.104000092E0,1.393973315E1
1.206049713E0,-2.650050163E0,-1.376295090E1,9.150000215E-1,1.404559747E1
1.208549098E0,-3.226950169E0,-1.413000107E1,1.453050017E0,1.456645090E1
1.211048483E0,-3.268050194E0,-1.417305088E1,2.464050055E0,1.475218852E1
1.213547867E0,-3.732000113E0,-1.520205116E1,4.458000183E0,1.627587018E1
1.216047256E0,-3.700950146E0,-1.597800064E1,5.784000397E0,1.739103784E1
1.218546640E0,-3.973950148E0,-1.690395164E1,7.756950378E0,1.901857356E1
1.221046024E0,-4.366950035E0,-1.789605141E1,9.934050560E0,2.092902934E1
1.223545409E0,-4.699950218E0,-1.855395126E1,1.162395096E1,2.239318815E1
1.226045038E0,-4.684950352E0,-1.897800064E1,1.242795086E1,2.316392088E1
1.228544425E0,-4.182000160E0,-1.901595116E1,1.189200020E1,2.281480205E1
1.231043809E0,-3.883050203E0,-1.900200081E1,1.047195053E1,2.204123094E1
1.233543194E0,-3.979050159E0,-1.867605019E1,8.358000755E0,2.084427661E1
1.236042579E0,-3.988050222E0,-1.819005013E1,6.591000080E0,1.975408186E1
1.238541938E0,-3.715950251E0,-1.768305016E1,5.464050293E0,1.887735137E1
1.241041323E0,-3.270000219E0,-1.705800056E1,4.597050190E0,1.796666789E1
1.243540708E0,-2.839050055E0,-1.660004997E1,3.703950167E0,1.724358174E1
1.246040167E0,-2.382000208E0,-1.615995026E1,3.139050245E0,1.663344684E1
1.248539463E0,-1.642050028E0,-1.569495106E1,3.093000174E0,1.608087271E1
1.251038922E0,-7.230000496E-1,-1.527195072E1,3.634050131E0,1.571500965E1
1.253538232E0,1.840500087E-1,-1.466805077E1,2.800950050E0,1.493421939E1
1.256037615E0,1.090950012E0,-1.385205078E1,2.167050123E0,1.406291538E1
1.258537076E0,1.309050083E0,-1.371795082E1,2.763000250E0,1.405453511E1
1.261036472E0,1.411950111E0,-1.367505074E1,3.040950060E0,1.408005657E1
1.263535856E0,1.350000024E0,-1.379895020E1,3.153000116E0,1.421882331E1
1.266035241E0,1.386000037E0,-1.386900043E1,3.268050194E0,1.431608610E1
1.268534626E0,1.129050016E0,-1.370295048E1,2.866050243E0,1.404492256E1
1.271034020E0,6.480000019E-1,-1.339500046E1,2.233950138E0,1.359545786E1
1.273533405E0,3.990000188E-1,-1.329405022E1,2.302950144E0,1.349794620E1
1.276032790E0,2.359500080E-1,-1.368705082E1,2.538000107E0,1.392237326E1
1.278532174E0,3.270000219E-1,-1.357395077E1,2.338950157E0,1.377787198E1
1.281031788E0,4.660500288E-1,-1.347795105E1,2.265000105E0,1.367488913E1
1.283531179E0,6.649500132E-1,-1.310700035E1,2.224050045E0,1.331097349E1
1.286030564E0,7.270500064E-1,-1.287000084E1,2.848950148E0,1.320159234E1
1.288529948E0,8.989500403E-1,-1.246605015E1,2.859000206E0,1.282124798E1
1.291029333E0,1.048050046E0,-1.217805099E1,3.511950254E0,1.271759134E1
1.293528718E0,1.162950039E0,-1.184805012E1,3.613050222E0,1.244117664E1
1.296028102E0,1.345050097E0,-1.132095051E1,3.510000229E0,1.192867058E1
1.298527487E0,1.720950127E0,-1.093305016E1,3.673050165E0,1.166124147E1
1.301026872E0,2.359950066E0,-1.040895081E1,3.523950100E0,1.123983298E1
1.303526256E0,2.644950151E0,-1.015305042E1,3.795000076E0,1.115716002E1
1.306025630E0,2.664000034E0,-9.882000923E0,3.511950254E0,1.082056528E1
1.308525090E0,2.805000067E0,-9.697950363E0,3.385050058E0,1.064785568E1
1.311024400E0,2.961000204E0,-9.607050896E0,3.322950125E0,1.058796235E1
1.313523860E0,3.196050167E0,-9.411000252E0,2.847000122E0,1.033862042E1
1.316023169E0,3.310050249E0,-9.516000748E0,3.220050097E0,1.057730710E1
1.318522648E0,3.028050184E0,-9.661950111E0,3.184050083E0,1.061416708E1
1.321022034E0,2.692950010E0,-9.742950439E0,2.806050062E0,1.049051858E1
1.323521419E0,2.496000051E0,-9.757950783E0,2.607000113E0,1.040404101E1
1.326020804E0,2.419950008E0,-9.739050865E0,2.464050055E0,1.033328662E1
1.328520417E0,2.452950001E0,-9.736050606E0,2.334000111E0,1.030801638E1
1.331019573E0,2.479950190E0,-9.688050270E0,2.200050116E0,1.023956500E1
1.333519186E0,2.536950111E0,-9.633000374E0,2.119050026E0,1.018435983E1
1.336018342E0,2.599050045E0,-9.601950645E0,1.992000103E0,1.014497815E1
1.338517956E0,2.635050058E0,-9.549000740E0,1.933950067E0,1.009292162E1
1.341017111E0,2.602050066E0,-9.432000160E0,1.972950101E0,9.981273650E0
1.343516696E0,2.623050213E0,-9.241050720E0,2.145000219E0,9.842684429E0
1.346016082E0,2.520000219E0,-9.190050125E0,2.422950029E0,9.832502695E0
1.348515467E0,2.476950169E0,-9.049050331E0,2.476050138E0,9.703165376E0
1.351014852E0,2.511000156E0,-8.950950623E0,2.674050093E0,9.673426628E0
1.353514236E0,2.422049999E0,-8.953050613E0,2.929950237E0,9.726666946E0
1.356013617E0,2.383949995E0,-8.962950706E0,3.061950207E0,9.766946402E0
1.358513002E0,2.358000040E0,-8.934000015E0,3.294000149E0,9.809534007E0
1.361012386E0,2.262000084E0,-8.884050369E0,3.457050085E0,9.797662509E0
1.363511770E0,2.179949999E0,-8.947950363E0,3.601050138E0,9.888658139E0
1.366011230E0,1.936050057E0,-9.094950676E0,3.661050081E0,9.993483143E0
1.368510530E0,1.917000055E0,-8.968050003E0,3.538950205E0,9.829800538E0
1.371009990E0,1.666050076E0,-8.989050865E0,3.534000158E0,9.801424153E0
1.373509299E0,1.447950125E0,-9.058950424E0,3.418950081E0,9.790319811E0
1.376008759E0,1.326000094E0,-9.138000488E0,3.346950054E0,9.821578480E0
1.378508145E0,1.335000038E0,-9.336000443E0,3.345000267E0,1.000660563E1
1.381007530E0,1.330050111E0,-9.469950676E0,3.402000189E0,1.015000514E1
1.383506915E0,1.333050013E0,-9.529950142E0,3.436050177E0,1.021779883E1
1.386006299E0,1.366050124E0,-9.556950569E0,3.385050058E0,1.023034511E1
1.388506844E0,1.318050027E0,-9.529950142E0,3.270000219E0,1.016120598E1
1.391005299E0,1.258950114E0,-9.444000244E0,3.297000170E0,1.008188009E1
1.393504453E0,1.165050030E0,-9.340950012E0,3.109950066E0,9.913751970E0
1.396004067E0,9.160500169E-1,-9.339000702E0,3.016950130E0,9.856879315E0
1.398503222E0,6.960000396E-1,-9.400950432E0,2.988000154E0,9.888904388E0
1.401002836E0,5.359500051E-1,-9.535050392E0,2.895000219E0,9.979251207E0
1.403502222E0,4.330500066E-1,-9.729000092E0,2.749050140E0,1.011920213E1
1.406001617E0,2.700000107E-1,-9.997050285E0,2.569050074E0,1.032540230E1
1.408501002E0,1.669500023E-1,-1.021995068E1,2.350950003E0,1.048819479E1
1.411000386E0,1.000500023E-1,-1.039500046E1,1.936950088E0,1.057439455E1
1.413499771E0,1.999500096E-1,-1.047600079E1,1.546950102E0,1.059148843E1
1.415999156E0,3.850500286E-1,-1.050495052E1,1.099050045E0,1.056930272E1
1.418498535E0,6.150000095E-1,-1.048605061E1,7.660500407E-1,1.053196634E1
1.420997919E0,1.014000058E0,-1.045905018E1,6.780000329E-1,1.052993878E1
1.423497303E0,1.342050076E0,-1.049505043E1,7.230000496E-1,1.060518321E1
1.425996764E0,1.663050056E0,-1.063395023E1,1.183050036E0,1.082803031E1
1.428496176E0,1.728000045E0,-1.079700089E1,1.353000045E0,1.101779567E1
1.430995560E0,1.504950047E0,-1.102200031E1,1.618050098E0,1.124132784E1
1.433494945E0,1.579050064E0,-1.130895042E1,1.908000112E0,1.157696952E1
1.435994329E0,1.708950043E0,-1.156995010E1,2.173950195E0,1.189581082E1
1.438493714E0,2.391000032E0,-1.192695045E1,2.374950171E0,1.239392660E1
1.440993099E0,3.057000160E0,-1.222395039E1,2.764950037E0,1.290020007E1
1.443492483E0,3.691050291E0,-1.244400024E1,2.719950199E0,1.326179186E1
1.445991867E0,3.993000269E0,-1.256895065E1,2.635950089E0,1.344882168E1
1.448491251E0,4.089000225E0,-1.278195095E1,2.691000223E0,1.368720845E1
1.450990866E0,4.024050236E0,-1.294905090E1,2.770050049E0,1.383994497E1
1.453490229E0,3.913950205E0,-1.300695038E1,2.952000141E0,1.390014637E1
1.455989382E0,3.789000273E0,-1.295400047E1,3.109950066E0,1.385043107E1
1.458488996E0,3.636000156E0,-1.279605103E1,3.366000175E0,1.372185761E1
1.460988152E0,3.427950144E0,-1.254705048E1,3.559950113E0,1.348527206E1
1.463487765E0,3.319950104E0,-1.226205063E1,3.804000139E0,1.326085862E1
1.465987152E0,3.090000153E0,-1.199400043E1,4.033950329E0,1.302600870E1
1.468486536E0,2.949000120E0,-1.163505077E1,4.209000111E0,1.271953970E1
1.470985921E0,2.958000183E0,-1.132800007E1,4.390950203E0,1.250415108E1
1.473485306E0,3.016050100E0,-1.095195007E1,4.642050266E0,1.227152799E1
1.475984680E0,2.997000217E0,-1.053795052E1,4.891050339E0,1.199803254E1
1.478484140E0,3.085050106E0,-1.022505093E1,5.061000347E0,1.181875311E1
1.480983449E0,2.941950083E0,-9.982950211E0,4.933950424E0,1.151773554E1
1.483482909E0,2.992050171E0,-9.745950699E0,4.780950069E0,1.126025767E1
1.485982238E0,2.956050158E0,-9.504000664E0,4.389000416E0,1.087784840E1
1.488481697E0,2.820000172E0,-9.220950127E0,3.903000116E0,1.040248682E1
1.490981084E0,2.407950163E0,-8.854949951E0,3.393000126E0,9.783701369E0
1.493480468E0,2.359950066E0,-8.494050026E0,2.734050035E0,9.230020572E0
1.495979863E0,2.202000141E0,-8.292000771E0,2.085000038E0,8.829116975E0
1.498479248E0,2.194950104E0,-8.203949928E0,1.077000022E0,8.560521563E0
1.500978632E0,2.262000084E0,-8.227950096E0,4.240500331E-1,8.543747749E0
1.503478017E0,2.689950228E0,-8.320950508E0,3.105000220E-2,8.744999353E0
1.505977402E0,3.127950191E0,-8.470050812E0,-4.950000346E-1,9.042724047E0
1.508476771E0,3.391950130E0,-8.673000336E0,-9.640500546E-1,9.362459774E0
1.510976155E0,3.538050175E0,-8.860050201E0,-1.390050054E0,9.641085404E0
1.513475539E0,3.598050117E0,-8.925000191E0,-1.483050108E0,9.736582084E0
1.515975154E0,3.694050074E0,-8.901000023E0,-9.610500336E-1,9.684907048E0
1.518474320E0,3.895050287E0,-8.728050232E0,-9.400500655E-1,9.603851921E0
1.520973933E0,4.243950367E0,-8.412000656E0,-1.242000103E0,9.503443271E0
1.523473089E0,4.546050072E0,-7.978950500E0,-1.857000113E0,9.369027258E0
1.525972702E0,4.696950436E0,-7.443000317E0,-2.062950134E0,9.039654881E0
1.528472118E0,4.788000107E0,-6.889050484E0,-2.059950113E0,8.638712639E0
1.530971502E0,4.906949997E0,-6.315000534E0,-2.623050213E0,8.416518427E0
1.533470887E0,5.041050434E0,-5.800050259E0,-3.577950239E0,8.476703392E0
1.535970272E0,5.005950451E0,-5.344950199E0,-4.327950001E0,8.506420149E0
1.538469656E0,4.915050030E0,-4.998000145E0,-3.292950153E0,7.744755836E0
1.540969116E0,4.591050148E0,-4.738950253E0,-1.263000011E0,6.717928251E0
1.543468426E0,3.531000137E0,-4.897950172E0,1.278000116E0,6.171803801E0
1.545967885E0,2.029950142E0,-5.391000271E0,4.116000175E0,7.079903880E0
1.548467195E0,6.430500150E-1,-5.980050087E0,5.583000183E0,8.206363592E0
1.550966654E0,-2.010000050E-1,-6.442050457E0,5.578050137E0,8.523793664E0
1.553466041E0,-6.510000229E-1,-6.861000538E0,5.167050362E0,8.613683234E0
1.555965426E0,-7.920000553E-1,-7.207950115E0,4.996950150E0,8.806322714E0
1.558464810E0,-7.230000496E-1,-7.480950356E0,4.651950359E0,8.839003871E0
1.560964195E0,2.910000086E-1,-7.522050381E0,3.979050159E0,8.514620550E0
1.563463579E0,1.282950044E0,-7.347000122E0,3.469050169E0,8.225489693E0
1.565962967E0,2.202000141E0,-6.916050434E0,3.085950136E0,7.886928836E0
1.568462351E0,2.893950224E0,-6.315000534E0,2.635950089E0,7.429832603E0
1.570961735E0,3.094950199E0,-5.713950157E0,2.020950079E0,6.805305456E0
1.573461351E0,3.112050056E0,-5.115000248E0,1.429050088E0,6.155507066E0
1.575960737E0,2.704950094E0,-4.744050026E0,9.100500345E-1,5.536330619E0
1.578460132E0,2.206950188E0,-4.596000195E0,4.789500237E-1,5.120863213E0
1.580959517E0,1.741950035E0,-4.735050201E0,3.139500022E-1,5.055062308E0
1.583458901E0,1.729950070E0,-5.041050434E0,4.069500268E-1,5.345140321E0
1.585958286E0,1.843050122E0,-5.488950253E0,7.950000167E-1,5.844436128E0
1.588457670E0,1.894950032E0,-6.040050507E0,1.183050036E0,6.439926485E0
1.590957050E0,1.885950089E0,-6.514050484E0,1.482000113E0,6.941612621E0
1.593456435E0,1.660950065E0,-6.892050266E0,1.743000031E0,7.300490470E0
1.595955819E0,1.536000013E0,-7.114950180E0,1.933950067E0,7.531399270E0
1.598455279E0,1.231950045E0,-7.270050526E0,2.037000179E0,7.649882698E0
1.600954666E0,5.209500194E-1,-7.471050262E0,1.816950083E0,7.706444611E0
1.603454050E0,-2.269500047E-1,-7.699050426E0,1.594950080E0,7.865796179E0
1.605953358E0,-1.075049996E0,-8.055000305E0,1.246950030E0,8.221535549E0
1.608452817E0,-2.224050045E0,-8.500950813E0,7.369500399E-1,8.817916914E0
1.610952204E0,-2.832000017E0,-8.926950455E0,5.410500169E-1,9.381012932E0
1.613451564E0,-3.567000151E0,-9.439050674E0,3.810000122E-1,1.009773879E1
1.615950948E0,-4.491000175E0,-9.946950912E0,2.230500132E-1,1.091607376E1
1.618450333E0,-4.426949978E0,-1.027695084E1,5.719500184E-1,1.120449604E1
1.620949717E0,-4.951050282E0,-1.063605022E1,7.369500399E-1,1.175506523E1
1.623449101E0,-5.683950424E0,-1.095195007E1,8.590500355E-1,1.236893164E1
1.625948480E0,-6.258000374E0,-1.116795063E1,1.137000084E0,1.285217721E1
1.628447864E0,-6.912000179E0,-1.135500050E1,1.573050022E0,1.338604755E1
1.630947249E0,-7.354950428E0,-1.140300083E1,2.119050026E0,1.373368475E1
1.633446864E0,-6.253050327E0,-1.110300064E1,3.345000267E0,1.317445591E1
1.635946251E0,-3.523950100E0,-1.049295044E1,5.149950027E0,1.220828483E1
1.638445651E0,-1.579950094E0,-1.001205063E1,6.172050476E0,1.186724935E1
1.640945035E0,-7.470000386E-1,-9.672000885E0,6.373050213E0,1.160695392E1
1.643444420E0,-5.670000315E-1,-9.355950356E0,6.045000076E0,1.115335474E1
1.645943804E0,-4.189500213E-1,-9.055950165E0,5.518950462E0,1.061341447E1
1.648443189E0,-1.189500093E-1,-8.773950577E0,5.032950401E0,1.011567831E1
1.650942559E0,3.750000298E-1,-8.452950478E0,4.807950020E0,9.731874444E0
1.653441943E0,8.880000710E-1,-8.173049927E0,4.618050098E0,9.429404856E0
1.655941327E0,1.540950060E0,-7.953000546E0,4.386000156E0,9.212043320E0
1.658440787E0,2.496000051E0,-7.741950512E0,4.056000233E0,9.089496789E0
1.660940174E0,3.028050184E0,-7.510050297E0,4.137000084E0,9.093113497E0
1.663439477E0,3.271950245E0,-7.255950451E0,3.898050070E0,8.862802587E0
1.665938936E0,3.676950216E0,-6.889050484E0,3.618000269E0,8.606329381E0
1.668438246E0,4.311000347E0,-6.427050114E0,3.277950048E0,8.404561480E0
1.670937706E0,4.675050259E0,-6.025050163E0,2.956950188E0,8.179295740E0
1.673437092E0,4.450050354E0,-5.830950260E0,2.641050100E0,7.796029420E0
1.675936463E0,4.297049999E0,-5.757000446E0,2.521050215E0,7.613368967E0
1.678435847E0,3.370050192E0,-6.150000095E0,2.535000086E0,7.456940720E0
1.680935232E0,2.941950083E0,-6.459000111E0,2.722050190E0,7.601533395E0
1.683434845E0,2.707050085E0,-6.729000092E0,3.100050211E0,7.887830735E0
1.685933982E0,1.692000031E0,-7.384950161E0,3.201000214E0,8.224764760E0
1.688433365E0,6.580500603E-1,-8.082000732E0,3.244050264E0,8.733591921E0
1.690932750E0,6.150000095E-1,-8.332950592E0,3.517050266E0,9.065645766E0
1.693432365E0,-1.890000105E-1,-8.746950150E0,3.591000080E0,9.457279709E0
1.695931752E0,-4.020000100E-1,-8.950950623E0,3.706050158E0,9.696181147E0
1.698431145E0,-5.530500412E-1,-9.082950592E0,3.876000166E0,9.890866145E0
1.700930530E0,-6.919500232E-1,-9.118050575E0,4.237950325E0,1.007858443E1
1.703429914E0,-9.910500646E-1,-9.018000603E0,4.462950230E0,1.011061026E1
1.705929299E0,-1.033950090E0,-9.051000595E0,4.747950077E0,1.027291071E1
1.708428684E0,-1.197000027E0,-9.135000229E0,5.281950474E0,1.061979468E1
1.710928044E0,-9.930000305E-1,-8.950950623E0,5.140050411E0,1.036945921E1
1.713427428E0,-4.690500200E-1,-8.776050568E0,4.563000202E0,9.902527068E0
1.715926812E0,-3.709500134E-1,-8.850000381E0,3.811950207E0,9.643188012E0
1.718426273E0,-4.950000439E-3,-8.829000473E0,2.998050213E0,9.324139581E0
1.720925660E0,4.180500209E-1,-8.779050827E0,2.262000084E0,9.075414240E0
1.723425044E0,9.190500379E-1,-8.794950485E0,1.864950061E0,9.037358339E0
1.725924429E0,1.222950101E0,-8.925000191E0,1.429050088E0,9.121042677E0
1.728423814E0,1.552950025E0,-9.268950462E0,1.234950066E0,9.478934440E0
1.730923198E0,2.539950132E0,-9.352950096E0,1.270950079E0,9.774678321E0
1.733422583E0,3.106950045E0,-9.573000908E0,9.480000734E-1,1.010911416E1
1.735921981E0,3.355950117E0,-1.023405075E1,5.119500160E-1,1.078240645E1
1.738421365E0,3.456000090E0,-1.095000076E1,4.639500082E-1,1.149181026E1
1.740920749E0,3.471000195E0,-1.158495045E1,5.295000225E-2,1.209387130E1
1.743420133E0,3.424950123E0,-1.182900047E1,-5.500500202E-1,1.232712824E1
1.745919759E0,3.889950275E0,-1.183800030E1,-1.167000055E0,1.251526481E1
1.748418915E0,3.958950281E0,-1.166400051E1,-1.636950135E0,1.242585212E1
1.750918528E0,3.801000118E0,-1.130205059E1,-1.870950103E0,1.206997944E1
1.753417684E0,3.853950262E0,-1.072695065E1,-1.833000064E0,1.154470840E1
1.755917282E0,3.904050112E0,-1.013100052E1,-1.411950111E0,1.094862466E1
1.758416669E0,4.278000355E0,-9.577950478E0,-7.510500550E-1,1.051677225E1
1.760916053E0,4.680000305E0,-9.154050827E0,-1.260000020E-1,1.028177637E1
1.763415438E0,5.242950439E0,-8.842950821E0,4.789500237E-1,1.029153544E1
1.765914823E0,5.559000492E0,-8.740050316E0,8.929500580E-1,1.039655355E1
1.768414207E0,5.635050297E0,-8.773950577E0,1.195050001E0,1.049591087E1
1.770913592E0,5.683050156E0,-8.920050621E0,1.435950041E0,1.067362706E1
1.773412977E0,5.464950085E0,-9.102000237E0,1.480050087E0,1.071926471E1
1.775912361E0,5.194950104E0,-9.226050377E0,1.353000045E0,1.067418012E1
1.778411750E0,5.298000336E0,-9.516000748E0,1.080000043E0,1.094483796E1
1.780911210E0,5.013000011E0,-9.271950722E0,1.057950020E0,1.059332325E1
1.783410597E0,5.005950451E0,-9.649950027E0,6.010500193E-1,1.088771494E1
1.785909982E0,5.131950378E0,-9.949050903E0,6.390000582E-1,1.121288766E1
1.788409376E0,5.218950272E0,-1.026300049E1,8.640000224E-1,1.154612996E1
1.790908761E0,5.155950069E0,-1.056495094E1,1.104000092E0,1.180765962E1
1.793408145E0,5.085000038E0,-1.091205025E1,1.281000018E0,1.210665218E1
1.795907530E0,5.077050209E0,-1.135695076E1,1.470000029E0,1.252667831E1
1.798406915E0,4.572000027E0,-1.180695057E1,1.566000104E0,1.275772794E1
1.800906313E0,2.164050102E0,-1.204695034E1,5.460000038E-1,1.225194847E1
1.803405927E0,2.949000120E0,-1.229100037E1,9.499500394E-1,1.267547620E1
1.805905313E0,5.817000389E0,-1.246995068E1,2.248050213E0,1.394241346E1
1.808404467E0,4.717950344E0,-1.243200016E1,1.783950090E0,1.341626481E1
1.810904081E0,3.622050285E0,-1.255905056E1,1.245000005E0,1.313008089E1
1.813403250E0,2.941950083E0,-1.280100060E1,1.055999994E0,1.317709462E1
1.815902864E0,2.638050079E0,-1.306200027E1,1.156050086E0,1.337578451E1
1.818402250E0,2.346000195E0,-1.353795052E1,1.221000075E0,1.379386321E1
1.820901635E0,2.213999987E0,-1.388505077E1,1.504050016E0,1.414067174E1
1.823401006E0,2.022000074E0,-1.417005062E1,1.696950078E0,1.441382872E1
1.825900390E0,1.797000051E0,-1.440705109E1,1.984950066E0,1.465374890E1
1.828399775E0,1.611000061E0,-1.450500107E1,2.482950211E0,1.480389877E1
1.830899160E0,1.299000025E0,-1.453905106E1,2.683950186E0,1.484166417E1
1.833398544E0,1.102950096E0,-1.431405067E1,2.314950228E0,1.454192354E1
1.835897942E0,8.610000610E-1,-1.394805050E1,2.326950073E0,1.416700852E1
1.838397326E0,9.499500394E-1,-1.359600067E1,2.382000208E0,1.383573505E1
1.840896787E0,1.297050118E0,-1.324395084E1,2.394000053E0,1.352093966E1
1.843396174E0,1.435950041E0,-1.290795040E1,2.370000124E0,1.320204668E1
1.845895563E0,1.290000081E0,-1.269300079E1,2.230950117E0,1.295196926E1
1.848394948E0,1.258950114E0,-1.249695015E1,2.137950182E0,1.274086141E1
1.850894332E0,1.219950080E0,-1.235805035E1,1.882050037E0,1.255992830E1
1.853393717E0,1.177050114E0,-1.221900082E1,1.486950040E0,1.236529208E1
1.855893102E0,1.201050043E0,-1.202295017E1,1.008000016E0,1.212476458E1
1.858392472E0,1.326000094E0,-1.180500031E1,5.989500284E-1,1.189432846E1
1.860891856E0,1.534050107E0,-1.159200096E1,3.109500110E-1,1.169719992E1
1.863391240E0,1.468950033E0,-1.145505047E1,1.200000048E-1,1.154947598E1
1.865890855E0,-8.830500245E-1,-1.173300076E1,-1.009050012E0,1.180937196E1
1.868390266E0,-9.032999992E0,-1.301100063E1,-3.952050209E0,1.632482549E1
1.870889650E0,-7.632000446E0,-1.346895027E1,-4.036050320E0,1.599842975E1
1.873389035E0,-5.680950165E0,-1.389705086E1,-3.135000229E0,1.533719152E1
1.875888419E0,-4.948950291E0,-1.396905041E1,-2.392950058E0,1.501175167E1
1.878387804E0,-4.623000145E0,-1.366305065E1,-1.837950110E0,1.454060329E1
1.880887189E0,-4.561050415E0,-1.321695042E1,-1.507050037E0,1.406279343E1
1.883386573E0,-4.099050045E0,-1.270695019E1,-1.174950004E0,1.340333174E1
1.885885957E0,-3.820950270E0,-1.230795097E1,-9.139500260E-1,1.291977642E1
1.888385341E0,-3.280050039E0,-1.191705036E1,-4.900500178E-1,1.236992185E1
1.890884802E0,-2.593050241E0,-1.158495045E1,-2.100000158E-2,1.187162278E1
1.893384121E0,-2.515950203E0,-1.144800091E1,3.880500197E-1,1.172763032E1
1.895883580E0,-2.310000181E0,-1.134495068E1,8.040000200E-1,1.160562031E1
1.898382890E0,-2.229000092E0,-1.134000015E1,1.087050080E0,1.160800253E1
1.900882350E0,-2.173950195E0,-1.132605076E1,1.377000093E0,1.161471543E1
1.903381736E0,-1.531950116E0,-1.099800014E1,1.780950069E0,1.124609539E1
1.905881121E0,6.057000160E0,-9.091950417E0,5.373000145E0,1.217456134E1
1.908380505E0,2.621295166E1,-4.419000149E0,1.317495060E1,2.966859822E1
1.910879890E0,2.777205086E1,-1.134000063E0,1.075695038E1,2.980410620E1
1.913379275E0,2.287605095E1,9.960000515E-1,6.487950325E0,2.379914332E1
1.915878650E0,1.386900043E1,4.090500176E-1,3.478950262E0,1.430453040E1
1.918378034E0,5.956050396E0,-1.503000021E0,1.792950034E0,6.399079247E0
1.920877418E0,1.776000142E0,-3.837000132E0,1.507950068E0,4.488948643E0
1.923376802E0,-2.269500047E-1,-6.514050484E0,1.918050051E0,6.794356188E0
1.925876418E0,-1.350000024E0,-8.998950005E0,2.167050123E0,9.354127831E0
1.928375794E0,-1.666050076E0,-1.084005070E1,2.121000051E0,1.117054444E1
1.930875179E0,-1.636950135E0,-1.187205029E1,2.049000025E0,1.215827228E1
1.933374563E0,-1.150950074E0,-1.212600040E1,2.065950155E0,1.235446162E1
1.935873948E0,-7.350000143E-1,-1.177095032E1,2.148000002E0,1.198788557E1
1.938373338E0,-3.349500299E-1,-1.101705074E1,2.296050072E0,1.125874969E1
1.940872722E0,2.910000086E-1,-1.006200027E1,2.332050085E0,1.033281124E1
1.943372107E0,1.680000067E0,-8.956050873E0,3.096000195E0,9.623848745E0
1.945871491E0,2.833950043E0,-8.197050095E0,3.955050230E0,9.532330535E0
1.948370875E0,3.574050188E0,-7.801950455E0,4.563000202E0,9.719322841E0
1.950870341E0,3.559050083E0,-7.713000298E0,4.924950123E0,9.818978806E0
1.953369727E0,3.319950104E0,-7.711050510E0,5.290950298E0,9.923533832E0
1.955869035E0,3.207000256E0,-7.689000130E0,5.598000050E0,1.003709013E1
1.958368418E0,3.021000147E0,-7.605000496E0,5.728950500E0,9.989161540E0
1.960867879E0,2.824050188E0,-7.428000450E0,5.725050449E0,9.794215272E0
1.963367266E0,2.868000031E0,-7.179000378E0,5.667000294E0,9.585320179E0
1.965866650E0,3.150000095E0,-6.829950333E0,5.430000305E0,9.276617135E0
1.968366035E0,3.306000233E0,-6.448950291E0,5.065950394E0,8.842084075E0
1.970865420E0,3.472950220E0,-6.091950417E0,4.717050076E0,8.451260529E0
1.973364804E0,3.688950062E0,-5.749950409E0,4.168050289E0,8.002682393E0
1.975864179E0,3.981000185E0,-5.497950077E0,3.763950109E0,7.761645312E0
1.978363563E0,4.141050339E0,-5.379000187E0,3.496050119E0,7.635725726E0
1.980862947E0,4.159950256E0,-5.376000404E0,3.400050163E0,7.600454433E0
1.983362331E0,3.994950294E0,-5.613000393E0,3.322950125E0,7.649012930E0
1.985861946E0,3.490050077E0,-6.091950417E0,3.045000076E0,7.652733818E0
1.988361328E0,2.992050171E0,-6.568950176E0,2.667000055E0,7.695216692E0
1.990860712E0,2.491950035E0,-6.834000111E0,2.212050200E0,7.603061132E0
1.993360097E0,2.188050032E0,-6.862950325E0,1.663950086E0,7.392995333E0
1.995859482E0,2.343000174E0,-6.661950111E0,1.398000121E0,7.199002253E0
1.998358866E0,2.760000229E0,-6.289050102E0,1.276050091E0,6.985560556E0
2.000858242E0,3.172050238E0,-5.838000298E0,1.048950076E0,6.726399218E0
2.003357626E0,3.708000183E0,-5.383950233E0,1.120050073E0,6.632548352E0
2.005857010E0,3.976050138E0,-4.974000454E0,1.192050099E0,6.478475026E0
2.008356394E0,4.363950253E0,-4.620000362E0,1.434000015E0,6.514969010E0
2.010855874E0,4.207950115E0,-4.464000225E0,1.696950078E0,6.365043735E0
2.013355184E0,2.487000227E0,-4.728000164E0,1.342950106E0,5.508418164E0
2.015854643E0,1.333050013E0,-5.163000107E0,1.137000084E0,5.452188701E0
2.018353953E0,7.770000100E-1,-5.733000278E0,1.113000035E0,5.891501531E0
2.020853413E0,5.449500084E-1,-6.346050262E0,1.377000093E0,6.516552286E0
2.023352794E0,3.820500076E-1,-6.877950191E0,1.827000141E0,7.126716675E0
2.025852179E0,1.999500096E-1,-7.306050301E0,2.212050200E0,7.636197816E0
2.028351564E0,-1.510500014E-1,-7.585950375E0,2.467950106E0,7.978736549E0
2.030850948E0,-5.929500461E-1,-7.663050175E0,2.677050114E0,8.138828236E0
2.033350333E0,-6.049500108E-1,-7.720050335E0,2.956950188E0,8.289070883E0
2.035849951E0,-7.200000286E-1,-7.780050278E0,3.172050238E0,8.432644014E0
2.038349107E0,-8.280000687E-1,-7.777950287E0,3.370950222E0,8.517358756E0
2.040848720E0,-7.750500441E-1,-7.857000351E0,3.577050209E0,8.667666657E0
2.043347876E0,-7.159500122E-1,-7.902000427E0,3.723000288E0,8.764412491E0
2.045847490E0,-4.690500200E-1,-7.978950500E0,3.844950199E0,8.869458892E0
2.048346900E0,-2.220000178E-1,-8.022000313E0,3.928950071E0,8.935234842E0
2.050846285E0,-4.950000439E-3,-7.978950500E0,3.799950123E0,8.837606946E0
2.053345670E0,2.220000178E-1,-8.002950668E0,3.751950264E0,8.841585502E0
2.055845054E0,2.629500031E-1,-7.987950325E0,3.582000256E0,8.758265749E0
2.058344439E0,2.959500253E-1,-7.894950390E0,3.298950195E0,8.561594505E0
2.060843808E0,4.060500264E-1,-7.909050465E0,3.040950060E0,8.483238364E0
2.063343193E0,4.450500309E-1,-8.038949966E0,2.830050230E0,8.534164892E0
2.065842578E0,4.350000322E-1,-8.257050514E0,2.751000166E0,8.714132782E0
2.068341962E0,2.890500128E-1,-8.599050522E0,2.820000172E0,9.054259813E0
2.070841346E0,8.805000782E-2,-8.896050453E0,2.770050049E0,9.317759588E0
2.073340777E0,1.120500043E-1,-9.279000282E0,3.127050161E0,9.792387051E0
2.075840164E0,-6.405000389E-2,-9.514050484E0,3.117000103E0,1.001184042E1
2.078339549E0,-1.605000161E-2,-9.822000504E0,3.249000072E0,1.034543150E1
2.080838933E0,-2.200500071E-1,-1.007595062E1,3.148050070E0,1.055857103E1
2.083338313E0,-2.629500031E-1,-1.031805038E1,2.980950117E0,1.074324765E1
2.085837698E0,-1.410000026E-1,-1.057695007E1,2.839950085E0,1.095249151E1
2.088337082E0,5.700000376E-2,-1.073700047E1,2.593050241E0,1.104582897E1
2.090836466E0,1.170000061E-1,-1.086405087E1,2.466000080E0,1.114102538E1
2.093335850E0,-1.309500039E-1,-1.088505077E1,1.887000084E0,1.104817847E1
2.095835225E0,1.800000109E-2,-1.096695042E1,1.567950130E0,1.107848334E1
2.098334840E0,-2.059500068E-1,-1.120605087E1,1.435950041E0,1.129955504E1
2.100834227E0,-5.530500412E-1,-1.128000069E1,1.207050085E0,1.135787171E1
2.103333612E0,-5.839500427E-1,-1.157700062E1,1.297950029E0,1.166415943E1
2.105832766E0,-9.649500251E-1,-1.201095104E1,1.522950053E0,1.214551153E1
2.108332393E0,-1.410000086E0,-1.231995106E1,1.594950080E0,1.250252615E1
2.110831780E0,-1.285050035E0,-1.287495041E1,1.963050127E0,1.308698848E1
2.113331164E0,-1.771050096E0,-1.330095100E1,2.346000195E0,1.362188067E1
2.115830549E0,-2.166000128E0,-1.354800034E1,2.722050190E0,1.398747393E1
2.118329928E0,-2.265000105E0,-1.375605106E1,2.911050081E0,1.424195839E1
2.120829313E0,-2.250000000E0,-1.411800098E1,2.938050032E0,1.459495083E1
2.123328698E0,-2.245050192E0,-1.447695065E1,2.686050177E0,1.489420075E1
2.125828082E0,-1.999050140E0,-1.475700092E1,2.550000191E0,1.510853331E1
2.128327466E0,-2.044049978E0,-1.483605099E1,2.025000095E0,1.511248406E1
2.130826869E0,-1.290000081E0,-1.514205074E1,2.124000072E0,1.534461395E1
2.133326330E0,-1.960950136E0,-1.489095116E1,1.930050135E0,1.514301309E1
2.135825717E0,-2.497050047E0,-1.446195030E1,1.657050133E0,1.476919363E1
2.138325101E0,-2.380050182E0,-1.409595108E1,1.459950089E0,1.436982707E1
2.140824486E0,-2.173950195E0,-1.383300018E1,1.267050028E0,1.405999180E1
2.143323847E0,-1.570050120E0,-1.361205101E1,1.189950109E0,1.375387114E1
2.145823231E0,-8.899500370E-1,-1.349505043E1,1.153950095E0,1.357350353E1
2.148322616E0,-7.395000011E-2,-1.337805080E1,1.180050015E0,1.343019843E1
2.150822000E0,5.239500403E-1,-1.329195023E1,9.889500737E-1,1.333898372E1
2.153321384E0,8.350500464E-1,-1.333200073E1,7.590000629E-1,1.337967239E1
2.155820754E0,7.410000563E-1,-1.326795101E1,5.719500184E-1,1.330092974E1
2.158320138E0,1.177050114E0,-1.305495071E1,3.330000043E-1,1.311213461E1
2.160819754E0,1.210950017E0,-1.293000031E1,2.080500126E-1,1.298824825E1
2.163318910E0,1.120050073E0,-1.308600044E1,3.520500064E-1,1.313856381E1
2.165818513E0,1.512000084E0,-1.331805038E1,2.970000207E-1,1.340689447E1
2.168317669E0,1.651050091E0,-1.339200020E1,1.870500147E-1,1.349468871E1
2.170817282E0,1.927050114E0,-1.338300037E1,2.629500031E-1,1.352358547E1
2.173316669E0,2.086950064E0,-1.317405033E1,4.360500276E-1,1.334545250E1
2.175816053E0,2.307000160E0,-1.288200092E1,6.319500208E-1,1.310219670E1
2.178315444E0,2.628000021E0,-1.253505039E1,8.950500488E-1,1.283880785E1
2.180814829E0,2.923050165E0,-1.219695091E1,1.111050010E0,1.259143621E1
2.183314213E0,2.698050022E0,-1.193400097E1,1.374000072E0,1.231209687E1
2.185813673E0,3.258000135E0,-1.171395016E1,1.633050084E0,1.226776450E1
2.188312983E0,3.250950098E0,-1.153695011E1,1.896000147E0,1.213526724E1
2.190812447E0,3.367950201E0,-1.141200066E1,2.071050167E0,1.207750373E1
2.193311757E0,2.769000053E0,-1.142400074E1,2.455950022E0,1.200861544E1
2.195811216E0,3.289050102E0,-1.148205090E1,2.076000214E0,1.212291715E1
2.198310603E0,3.100050211E0,-1.168005085E1,2.179050207E0,1.227933870E1
2.200809988E0,2.329050064E0,-1.190505028E1,2.394000053E0,1.236470511E1
2.203309348E0,9.810000658E-1,-1.211595058E1,2.734050035E0,1.245927965E1
2.205808733E0,1.599000096E0,-1.217595100E1,2.974050045E0,1.263548803E1
2.208308117E0,8.040000200E-1,-1.224300098E1,2.935050249E0,1.261554633E1
2.210807501E0,7.060500383E-1,-1.217805099E1,3.184050083E0,1.260720459E1
2.213306885E0,5.359500051E-1,-1.204905033E1,3.100050211E0,1.245299834E1
2.215806250E0,-2.650500238E-1,-1.203195095E1,3.081000090E0,1.242298904E1
2.218305635E0,-6.760950089E0,-1.318095016E1,1.063050032E0,1.485186752E1
2.220805020E0,-5.695950508E0,-1.359795094E1,1.819950104E0,1.485464036E1
2.223304635E0,-4.197000027E0,-1.383705044E1,2.703000069E0,1.471003003E1
2.225804022E0,-3.937950134E0,-1.371495056E1,2.784000158E0,1.453815590E1
2.228303401E0,-3.607950211E0,-1.322700024E1,3.160050154E0,1.406971062E1
2.230802786E0,-3.157950163E0,-1.252995014E1,3.021000147E0,1.327022011E1
2.233302170E0,-2.478000164E0,-1.168995094E1,3.270000219E0,1.238904110E1
2.235801555E0,-1.537050128E0,-1.084905052E1,3.610050201E0,1.153676223E1
2.238300935E0,-1.588950038E0,-1.032795048E1,3.627000093E0,1.106103309E1
2.240800319E0,-2.178000212E0,-1.008600044E1,2.868000031E0,1.070964584E1
2.243299703E0,-6.510000229E-1,-9.376950264E0,3.055050135E0,9.883538264E0
2.245799163E0,1.981950045E0,-8.484000206E0,4.024950027E0,9.597218774E0
2.248298550E0,2.122950077E0,-8.079000473E0,3.402000189E0,9.019466224E0
2.250797868E0,2.628000021E0,-7.330050468E0,1.269000053E0,7.889637832E0
2.253297327E0,3.160050154E0,-6.520950317E0,1.650000066E-1,7.248167701E0
2.255796637E0,4.081050396E0,-5.806950092E0,-2.820000052E-1,7.103179972E0
2.258296097E0,4.966950417E0,-5.137050152E0,-6.960000396E-1,7.179435685E0
2.260795483E0,6.040050507E0,-4.540950298E0,-1.930500120E-1,7.559081164E0
2.263294882E0,6.574050426E0,-4.203000069E0,3.090000153E-1,7.808894262E0
2.265794266E0,5.652000427E0,-4.375950336E0,7.350000143E-1,7.185699353E0
2.268293651E0,4.603050232E0,-4.567049980E0,1.068000078E0,6.571654368E0
2.270793036E0,4.498050213E0,-4.426050186E0,1.719000101E0,6.540438618E0
2.273292420E0,4.005000114E0,-4.537950039E0,2.182950020E0,6.434150081E0
2.275791809E0,3.081000090E0,-4.822950363E0,2.634000063E0,6.300108578E0
2.278291193E0,2.761950016E0,-4.948050022E0,3.025950193E0,6.424012880E0
2.280790577E0,2.461050034E0,-5.091000080E0,3.450000048E0,6.624013090E0
2.283290193E0,2.109000206E0,-5.223000050E0,3.642000198E0,6.707590986E0
2.285789579E0,2.257050037E0,-5.113050461E0,3.961950302E0,6.850883891E0
2.288288959E0,1.888050079E0,-4.945050240E0,4.192049980E0,6.752150621E0
2.290788343E0,1.519950032E0,-4.573950291E0,4.240050316E0,6.419446708E0
2.293287728E0,6.979500055E-1,-4.003950119E0,4.341000080E0,5.946682475E0
2.295787113E0,-1.129950047E0,-3.118950129E0,5.502000332E0,6.424690239E0
2.298286497E0,-3.310950041E0,-1.605000019E0,5.871000290E0,6.928712697E0
2.300785863E0,-5.836950302E0,2.665050030E0,4.756950378E0,7.987556409E0
2.303285247E0,-4.779000282E0,5.004000187E0,-7.650000453E-1,6.961615232E0
2.305784707E0,1.699050069E0,1.312050104E0,-4.837950230E0,5.292826186E0
2.308284017E0,8.070000648E0,-1.894950032E0,-3.175950050E0,8.877071860E0
2.310783480E0,1.184100056E1,-4.279950142E0,8.430000544E-1,1.261895069E1
2.313282790E0,1.396200085E1,-4.845000267E0,2.904000044E0,1.506136486E1
2.315782250E0,1.497495079E1,-3.825000286E0,2.971050024E0,1.573870759E1
2.318281636E0,1.349505043E1,-2.332950115E0,2.368050098E0,1.389844249E1
2.320781021E0,1.044000053E1,-1.002000093E0,1.911000133E0,1.066065368E1
2.323280396E0,7.708950520E0,1.369500011E-1,2.251049995E0,8.032054500E0
2.325779781E0,5.323950291E0,7.759500146E-1,3.129000187E0,6.223920572E0
2.328279166E0,3.579000235E0,7.900500298E-1,4.256999969E0,5.617425609E0
2.330778550E0,2.590050220E0,2.160000056E-1,5.373000145E0,5.968596712E0
2.333277934E0,2.391000032E0,-5.640000105E-1,6.342000484E0,6.801172495E0
2.335777332E0,2.355000019E0,-1.464000106E0,6.925950527E0,7.460436455E0
2.338276716E0,2.298000097E0,-2.436000109E0,6.867000103E0,7.640064881E0
2.340776101E0,2.073000193E0,-3.355950117E0,6.543000221E0,7.640064325E0
2.343275486E0,1.225050092E0,-4.183950424E0,5.896950245E0,7.333499238E0
2.345775101E0,2.100000158E-2,-5.089050293E0,4.735949993E0,6.951841211E0
2.348274492E0,-1.314000010E0,-5.971950054E0,3.486000061E0,7.038677426E0
2.350773877E0,-2.121000051E0,-6.769950390E0,2.128050089E0,7.406717673E0
2.353273262E0,-2.751000166E0,-7.447050571E0,1.041000009E0,8.006887357E0
2.355772646E0,-3.634050131E0,-8.014950752E0,2.029500157E-1,8.802666904E0
2.358272031E0,-4.696950436E0,-8.383049965E0,-4.279500246E-1,9.618732314E0
2.360771439E0,-5.752950191E0,-8.617950439E0,-7.270500064E-1,1.038720884E1
2.363270824E0,-6.850050449E0,-8.854949951E0,-9.450000525E-1,1.123505028E1
2.365770209E0,-7.684950352E0,-9.142050743E0,-9.610500336E-1,1.198161804E1
2.368269593E0,-8.176050186E0,-9.379050255E0,-6.690000296E-1,1.246041498E1
2.370769058E0,-8.418000221E0,-9.667050362E0,-1.810500026E-1,1.281980380E1
2.373268445E0,-8.305050850E0,-9.718950272E0,3.400500119E-1,1.278856904E1
2.375767752E0,-7.783050537E0,-9.583050728E0,7.900500298E-1,1.237072819E1
2.378267212E0,-6.847050190E0,-9.250050545E0,1.338000059E0,1.158601638E1
2.380766598E0,-5.889000416E0,-8.793000221E0,1.762050033E0,1.072855997E1
2.383265973E0,-4.744950294E0,-8.287950516E0,2.104050159E0,9.779146390E0
2.385765358E0,-3.546000242E0,-7.708050251E0,2.188050032E0,8.762175491E0
2.388264742E0,-2.338950157E0,-7.111950397E0,2.262000084E0,7.820944359E0
2.390764127E0,-1.194000006E0,-6.621000290E0,2.041949987E0,7.030849209E0
2.393263530E0,1.380000114E-1,-6.229050159E0,1.618050098E0,6.437250656E0
2.395763144E0,1.432950020E0,-6.159000397E0,1.195050001E0,6.435431310E0
2.398262300E0,2.680950165E0,-6.424950123E0,7.159500122E-1,6.998575733E0
2.400761682E0,3.648000240E0,-7.165050507E0,5.430000424E-1,8.058579500E0
2.403261067E0,4.168050289E0,-8.587050438E0,9.910500646E-1,9.596471157E0
2.405760692E0,4.311000347E0,-1.058100033E1,1.864950061E0,1.157671502E1
2.408260079E0,4.081050396E0,-1.268295097E1,2.701050043E0,1.359440654E1
2.410759464E0,3.526050091E0,-1.449795055E1,3.309000254E0,1.528309792E1
2.413258848E0,2.674050093E0,-1.564995098E1,3.574950218E0,1.627426738E1
2.415758233E0,1.735050082E0,-1.608795166E1,3.739950180E0,1.660782390E1
2.418257602E0,8.850000501E-1,-1.583895111E1,4.021950245E0,1.636556388E1
2.420756987E0,3.420000076E-1,-1.501500034E1,4.328999996E0,1.563033718E1
2.423256372E0,1.639500111E-1,-1.393305111E1,4.726050377E0,1.471367884E1
2.425755756E0,2.989500165E-1,-1.293000031E1,5.227050304E0,1.394977899E1
2.428255145E0,6.340500116E-1,-1.235100079E1,5.775000095E0,1.364917089E1
2.430754605E0,1.129050016E0,-1.232205105E1,6.121950150E0,1.380528774E1
2.433253992E0,1.716000080E0,-1.253505039E1,5.890050411E0,1.395581737E1
2.435753377E0,3.196050167E0,-1.199595070E1,4.489050388E0,1.320110386E1
2.438252761E0,5.323950291E0,-1.131900024E1,4.534950256E0,1.330526163E1
2.440752137E0,5.566050053E0,-1.177395058E1,3.555000067E0,1.349980929E1
2.443251522E0,6.190950394E0,-1.158495045E1,2.799000025E0,1.343031440E1
2.445750906E0,6.631050110E0,-1.153695011E1,1.951050043E0,1.344911297E1
2.448250290E0,6.982950211E0,-1.140300083E1,1.246950030E0,1.342925560E1
2.450749688E0,7.363950253E0,-1.120605087E1,6.510000229E-1,1.342487022E1
2.453249072E0,7.342050552E0,-1.108395100E1,1.579500139E-1,1.329603791E1
2.455748687E0,7.132050514E0,-1.106505013E1,-2.580000162E-1,1.316692989E1
2.458247843E0,6.745950222E0,-1.120395088E1,-5.110500455E-1,1.308806830E1
2.460747457E0,6.897000313E0,-1.108905029E1,-5.760000348E-1,1.307162674E1
2.463246613E0,6.820050240E0,-1.096905041E1,-3.510000110E-1,1.292115912E1
2.465745995E0,6.478050232E0,-1.099800014E1,-4.590000212E-1,1.277230688E1
2.468245611E0,6.279000282E0,-1.099995041E1,-2.910000086E-1,1.266923181E1
2.470744997E0,5.973000050E0,-1.102200031E1,-2.070000172E-1,1.253810470E1
2.473244382E0,5.901000500E0,-1.101900005E1,4.500000179E-2,1.249968776E1
2.475743780E0,5.520000458E0,-1.114200020E1,6.730500460E-1,1.245261297E1
2.478243165E0,5.191950321E0,-1.134495068E1,1.438950062E0,1.255925281E1
2.480742550E0,4.768950462E0,-1.182900047E1,1.858050108E0,1.288877383E1
2.483241934E0,3.910950184E0,-1.256100082E1,1.968000054E0,1.330215386E1
2.485741319E0,3.114000082E0,-1.333005047E1,2.095050097E0,1.384833842E1
2.488240704E0,2.499000072E0,-1.392405033E1,2.265000105E0,1.432670250E1
2.490740088E0,1.821000099E0,-1.458000088E1,2.382000208E0,1.488510638E1
2.493239548E0,1.171950102E0,-1.519695091E1,2.416050196E0,1.543237126E1
2.495738934E0,4.129500091E-1,-1.571895027E1,2.341950178E0,1.589781922E1
2.498238319E0,-2.580000162E-1,-1.615500069E1,2.149950027E0,1.629947534E1
2.500737704E0,-1.290000081E0,-1.648995018E1,1.960950136E0,1.665616650E1
2.503237088E0,-2.506050110E0,-1.683300018E1,1.779000044E0,1.711125429E1
2.505736473E0,-3.406950235E0,-1.704600143E1,1.513050079E0,1.744886229E1
2.508235857E0,-3.754050255E0,-1.718505096E1,1.269000053E0,1.763602084E1
2.510735256E0,-3.853950262E0,-1.715295029E1,1.116000056E0,1.761596129E1
2.513234640E0,-4.029000282E0,-1.707900047E1,1.188000083E0,1.758796306E1
2.515734024E0,-3.889950275E0,-1.690695000E1,1.398000121E0,1.740491527E1
2.518233640E0,-3.250950098E0,-1.664295006E1,1.972950101E0,1.707187732E1
2.520732796E0,-2.820000172E0,-1.639395142E1,2.800950050E0,1.686888749E1
2.523232409E0,-2.547000170E0,-1.576695061E1,3.019050121E0,1.625418731E1
2.525731565E0,-1.645050049E0,-1.498695087E1,3.025950193E0,1.537762208E1
2.528230947E0,-2.939999998E-1,-1.431405067E1,3.085950136E0,1.464587215E1
2.530730563E0,8.179500103E-1,-1.383705044E1,3.226950169E0,1.423187319E1
2.533229930E0,1.474050045E0,-1.339005089E1,3.258000135E0,1.385932362E1
2.535729315E0,2.599050045E0,-1.210200024E1,2.760000229E0,1.268191910E1
2.538228700E0,4.692000389E0,-1.024095058E1,1.963050127E0,1.143439995E1
2.540728084E0,7.078950405E0,-8.315999985E0,1.732950091E0,1.105759968E1
2.543227469E0,7.950000286E0,-6.190050125E0,1.510950089E0,1.018833624E1
2.545726844E0,1.447950125E0,-4.710000157E-1,-1.318050027E0,2.013866046E0
2.548226228E0,-1.068000078E0,2.209950209E0,-1.002000093E0,2.651133395E0
2.550725612E0,-1.261050105E0,2.227050066E0,1.707000136E0,3.076336917E0
2.553224996E0,-2.335950136E0,1.992000103E0,3.345000267E0,4.540237244E0
2.555724380E0,-3.457050085E0,1.072950006E0,2.667000055E0,4.496143492E0
2.558223837E0,-4.836000443E0,8.100000024E-2,2.461050034E0,5.426806478E0
2.560723223E0,-5.578050137E0,-1.452000022E0,1.729050040E0,6.017687382E0
2.563222608E0,-5.944950104E0,-2.475000143E0,2.128050089E0,6.782083354E0
2.565721992E0,-5.226000309E0,-2.736000061E0,-7.995000482E-2,5.899420952E0
2.568221377E0,-4.446000099E0,-2.838000059E0,-2.568000078E0,5.866496878E0
2.570720767E0,-3.972000122E0,-3.370050192E0,-4.906949997E0,7.156268688E0
2.573220151E0,-4.225950241E0,-4.138950348E0,-6.643050194E0,8.894924468E0
2.575719535E0,-3.840000153E0,-4.813950062E0,-7.213050365E0,9.484082030E0
2.578218919E0,-2.791050196E0,-5.527050495E0,-7.201050282E0,9.497019192E0
2.580718303E0,-2.860950232E0,-6.375000477E0,-6.909000397E0,9.826492446E0
2.583217928E0,-2.284050226E0,-6.693000317E0,-6.382050514E0,9.525949162E0
2.585717314E0,-1.756950140E0,-6.898950100E0,-6.097050190E0,9.373174878E0
2.588216699E0,-1.123050094E0,-7.114950180E0,-6.205050468E0,9.507176705E0
2.590716083E0,-7.870500088E-1,-7.447050571E0,-6.195000172E0,9.718849575E0
2.593215468E0,-6.079500318E-1,-7.801950455E0,-5.724000454E0,9.695577102E0
2.595714853E0,-3.799500167E-1,-8.269050598E0,-4.918950081E0,9.628999414E0
2.598214237E0,-1.720500141E-1,-8.701950073E0,-3.826950073E0,9.507843244E0
2.600713622E0,-2.100000158E-2,-9.256950378E0,-2.874000072E0,9.692855499E0
2.603213007E0,7.304999977E-2,-1.000695038E1,-1.596000075E0,1.013368681E1
2.605712391E0,-9.105000645E-2,-1.072695065E1,-7.995000482E-2,1.072763498E1
2.608211775E0,-3.370500207E-1,-1.134300041E1,1.434000015E0,1.143825236E1
2.610711159E0,-6.940500140E-1,-1.201095104E1,2.458950043E0,1.227970218E1
2.613210543E0,-8.830500245E-1,-1.252500057E1,3.072000027E0,1.292643032E1
2.615709928E0,-1.051050067E0,-1.319595051E1,3.280050039E0,1.363805500E1
2.618209289E0,-1.153950095E0,-1.364595032E1,3.055050135E0,1.403128263E1
2.620708750E0,-9.450000525E-1,-1.384695053E1,2.866050243E0,1.417199027E1
2.623208136E0,-9.070500135E-1,-1.393995094E1,2.554950237E0,1.420115287E1
2.625707521E0,-6.390000582E-1,-1.389300060E1,2.140050173E0,1.407137525E1
2.628206906E0,-3.469500244E-1,-1.379205036E1,2.004000187E0,1.394119953E1
2.630706305E0,-1.000500023E-1,-1.357395077E1,1.936950088E0,1.371181699E1
2.633205690E0,6.889500618E-1,-1.323195076E1,2.124000072E0,1.341903683E1
2.635705075E0,9.900000691E-1,-1.332000065E1,2.325000048E0,1.355758617E1
2.638204459E0,1.057050109E0,-1.346400070E1,2.446950197E0,1.372531366E1
2.640703843E0,1.077000022E0,-1.390005112E1,2.488050222E0,1.416198235E1
2.643203212E0,1.414050102E0,-1.429695034E1,2.394000053E0,1.456480563E1
2.645702827E0,1.756950140E0,-1.473300076E1,2.542950153E0,1.505372979E1
2.648202213E0,2.413050175E0,-1.537905025E1,2.614050150E0,1.578515936E1
2.650701598E0,3.025950193E0,-1.613100052E1,2.545050144E0,1.660851687E1
2.653200983E0,3.552000284E0,-1.676295090E1,2.820000172E0,1.736564510E1
2.655700372E0,3.919050217E0,-1.746195030E1,3.067050219E0,1.815724263E1
2.658199757E0,4.333050251E0,-1.822605133E1,3.217950106E0,1.900840536E1
2.660699141E0,4.720950127E0,-1.885995102E1,2.872950077E0,1.965296325E1
2.663198526E0,4.519950390E0,-1.865205002E1,2.896950245E0,1.940930813E1
2.665697911E0,4.183950424E0,-1.825500107E1,2.566950083E0,1.890343191E1
2.668197281E0,3.895050287E0,-1.771605110E1,2.128050089E0,1.826358345E1
2.670696665E0,3.696000099E0,-1.714395142E1,1.792950034E0,1.762924152E1
2.673196049E0,3.673950195E0,-1.650195122E1,1.432050109E0,1.696652798E1
2.675695433E0,3.720000267E0,-1.574295044E1,1.288050056E0,1.622769126E1
2.678194818E0,3.877950191E0,-1.483095074E1,1.084950089E0,1.536791183E1
2.680694293E0,4.129050255E0,-1.383300018E1,9.270000458E-1,1.446583144E1
2.683193680E0,4.522050381E0,-1.276005077E1,8.020500541E-1,1.356138340E1
2.685693065E0,4.906949997E0,-1.178100014E1,6.730500460E-1,1.277979338E1
2.688192449E0,5.092050076E0,-1.091400051E1,6.030000448E-1,1.205852355E1
2.690691834E0,5.377050400E0,-1.016505051E1,5.050500035E-1,1.151069061E1
2.693191199E0,5.488950253E0,-9.499050140E0,3.850500286E-1,1.097764966E1
2.695690584E0,5.176050186E0,-8.821949959E0,3.229500055E-1,1.023340575E1
2.698189969E0,4.441050053E0,-8.307000160E0,2.419500053E-1,9.422723441E0
2.700689353E0,3.672000170E0,-7.857000351E0,2.179500163E-1,8.675456298E0
2.703188737E0,2.896050215E0,-7.528950214E0,2.539499998E-1,8.070730375E0
2.705688346E0,2.142000198E0,-7.267950535E0,4.260000288E-1,7.588988460E0
2.708187733E0,1.471950054E0,-7.050000191E0,6.220500469E-1,7.228837106E0
2.710687118E0,8.880000710E-1,-6.921000481E0,8.190000653E-1,7.025635408E0
2.713186502E0,3.940500319E-1,-6.832050323E0,1.000950098E0,6.916219209E0
2.715685892E0,6.000000052E-3,-6.817950249E0,1.125000000E0,6.910145193E0
2.718185276E0,-2.680500150E-1,-6.874950409E0,1.219050050E0,6.987336900E0
2.720684661E0,-4.240500331E-1,-7.014000416E0,1.249950051E0,7.137113940E0
2.723184046E0,-4.759500325E-1,-7.255950451E0,1.245000005E0,7.377355244E0
2.725683430E0,-4.189500213E-1,-7.536000252E0,1.188000083E0,7.640560393E0
2.728182828E0,-2.890500128E-1,-7.837950230E0,1.152000070E0,7.927428200E0
2.730682212E0,-1.240500063E-1,-8.127000809E0,1.084950089E0,8.200039466E0
2.733181673E0,6.195000187E-2,-8.410050392E0,9.960000515E-1,8.469049622E0
2.735681060E0,2.149500102E-1,-8.659049988E0,8.590500355E-1,8.704212610E0
2.738180444E0,3.060000241E-1,-8.917050362E0,7.609500289E-1,8.954689727E0
2.740679839E0,3.510000110E-1,-9.154050827E0,5.959500074E-1,9.180141827E0
2.743179224E0,3.390000165E-1,-9.331950188E0,4.549500346E-1,9.349181507E0
2.745678608E0,3.490500152E-1,-9.514050484E0,3.060000241E-1,9.525367633E0
2.748177993E0,3.780000210E-1,-9.636000633E0,2.269500047E-1,9.646082030E0
2.750677377E0,4.399500191E-1,-9.700050354E0,2.179500163E-1,9.712468023E0
2.753176745E0,5.140500069E-1,-9.753000259E0,2.110500038E-1,9.768817921E0
2.755676129E0,6.150000095E-1,-9.798000336E0,2.800500095E-1,9.821276068E0
2.758175513E0,6.820500493E-1,-9.844050407E0,3.709500134E-1,9.874620226E0
2.760674898E0,1.419000030E0,-8.758950233E0,5.220000148E-1,8.888489989E0
2.763174283E0,5.401050091E0,-2.008050203E0,4.740000367E-1,5.781719791E0
2.765673668E0,9.199950218E0,4.755000114E0,-3.688050270E0,1.099321722E1
2.768173053E0,7.858950138E0,3.876000166E0,-5.287950039E0,1.023469053E1
2.770672667E0,5.784000397E0,1.876950145E0,-4.063950062E0,7.313910892E0
2.773172054E0,4.620000362E0,1.257000089E0,-3.021000147E0,5.661350939E0
2.775671414E0,3.499950171E0,6.150000095E-1,-1.543050051E0,3.874129537E0
2.778170799E0,2.094000101E0,-5.590500236E-1,1.319999993E-1,2.171358412E0
2.780670184E0,1.720500141E-1,-2.536950111E0,2.161950111E0,3.337625707E0
2.783169568E0,-1.558050036E0,-4.488000393E0,3.996000290E0,6.207872885E0
2.785668953E0,-2.647950172E0,-5.836050510E0,5.104050159E0,8.192829408E0
2.788168338E0,-3.109950066E0,-6.547050476E0,5.638050079E0,9.182770173E0
2.790667722E0,-3.190950155E0,-6.607050419E0,5.668950081E0,9.272123443E0
2.793167106E0,-2.758050203E0,-6.238050461E0,5.365050316E0,8.677780786E0
2.795666566E0,-2.016000032E0,-5.731050491E0,4.626000404E0,7.636037952E0
2.798165972E0,-1.336050034E0,-5.278050423E0,3.619950056E0,6.538110152E0
2.800665357E0,-8.310000300E-1,-4.912050247E0,2.806050062E0,5.717754422E0
2.803164741E0,-7.729500532E-1,-4.705950260E0,2.113950014E0,5.216531827E0
2.805664126E0,-1.032000065E0,-4.687050343E0,1.599000096E0,5.058682275E0
2.808163510E0,-1.597050071E0,-4.576950073E0,1.104000092E0,4.971705653E0
2.810662910E0,-2.008050203E0,-4.444950104E0,5.989500284E-1,4.914121303E0
2.813162295E0,-2.431950092E0,-4.062000275E0,1.950000064E-3,4.734367042E0
2.815661679E0,-2.748000145E0,-3.535050154E0,-3.169500232E-1,4.488712700E0
2.818161063E0,-3.001950026E0,-2.890950203E0,-6.330000162E-1,4.215446127E0
2.820660447E0,-3.246000051E0,-2.260950089E0,-8.779500127E-1,4.052062174E0
2.823159807E0,-3.385050058E0,-1.699050069E0,-1.147950053E0,3.957666530E0
2.825659192E0,-3.828000069E0,-1.288950086E0,-1.419000030E0,4.281184174E0
2.828158577E0,-4.297049999E0,-6.790500283E-1,-1.816050053E0,4.714211008E0
2.830657962E0,-3.945000172E0,-4.060500264E-1,-9.880500436E-1,4.087070573E0
2.833157595E0,-2.767050028E0,-5.350500345E-1,7.369500399E-1,2.913063638E0
2.835656982E0,-2.332050085E0,-1.110000014E0,8.929500580E-1,2.732749062E0
2.838156367E0,-2.482950211E0,-1.834950089E0,2.939999998E-1,3.101373821E0
2.840655751E0,-2.185950041E0,-2.158950090E0,3.949500322E-1,3.097648883E0
2.843155136E0,-1.474950075E0,-2.215950012E0,6.199500561E-1,2.733175855E0
2.845654526E0,-5.770500302E-1,-2.752050161E0,4.260000288E-1,2.843983624E0
2.848153910E0,5.310000181E-1,-3.760050297E0,1.459500045E-1,3.800163241E0
2.850653295E0,1.692000031E0,-5.793000221E0,-7.699500322E-1,6.083957489E0
2.853152679E0,2.317050219E0,-8.233050346E0,-2.400000095E0,8.883233656E0
2.855652063E0,2.619000196E0,-1.088505077E1,-3.994950294E0,1.188709890E1
2.858151509E0,2.659050226E0,-1.399500084E1,-4.857000351E0,1.505061623E1
2.860650895E0,2.487000227E0,-1.711800003E1,-5.733000278E0,1.822301806E1
2.863150280E0,2.587050200E0,-2.001900101E1,-6.811050415E0,2.130360622E1
2.865649588E0,2.475000143E0,-2.239695168E1,-7.693950176E0,2.381062661E1
2.868149047E0,2.416950226E0,-2.410095024E1,-8.359950066E0,2.562393834E1
2.870648405E0,2.599050045E0,-2.516400146E1,-8.560950279E0,2.670715074E1
2.873147789E0,3.070950031E0,-2.557905197E1,-8.436000824E0,2.710875769E1
2.875647174E0,3.648000240E0,-2.486805153E1,-8.118000031E0,2.641268288E1
2.878146559E0,4.575000286E0,-2.387595177E1,-7.483050346E0,2.543595374E1
2.880645943E0,5.290050030E0,-2.256195068E1,-6.078000069E0,2.395763621E1
2.883145572E0,6.040050507E0,-2.165205193E1,-4.066950321E0,2.284367850E1
2.885644958E0,6.289050102E0,-2.077605057E1,-1.894950032E0,2.178961367E1
2.888144343E0,5.281050205E0,-2.079300117E1,1.057950020E0,2.147923759E1
2.890643497E0,5.616000175E0,-2.134095192E1,7.017000198E0,2.315629458E1
2.893143110E0,2.580000162E0,-2.419995117E1,6.349050522E0,2.515162977E1
2.895642501E0,1.789950132E0,-2.458005142E1,6.730050087E0,2.554753263E1
2.898141885E0,3.286950111E0,-2.225100136E1,6.673050404E0,2.346147276E1
2.900641270E0,5.209050179E0,-1.861905098E1,6.012000084E0,2.024715803E1
2.903140655E0,6.940050125E0,-1.492395115E1,5.013000011E0,1.720519639E1
2.905640039E0,8.155950546E0,-1.188405037E1,4.029000282E0,1.496606247E1
2.908139405E0,8.307000160E0,-1.035405064E1,3.406950235E0,1.370474101E1
2.910638789E0,7.926000595E0,-1.023195076E1,3.031050205E0,1.329291417E1
2.913138173E0,7.135950565E0,-1.070295048E1,2.799000025E0,1.316470055E1
2.915637557E0,6.250950336E0,-1.132095051E1,2.728950024E0,1.321686304E1
2.918136936E0,5.362050056E0,-1.186905098E1,2.557050228E0,1.327269595E1
2.920636398E0,4.524000168E0,-1.230795097E1,2.176050186E0,1.329238237E1
2.923135784E0,3.820050240E0,-1.237200069E1,1.602000117E0,1.304705290E1
2.925635169E0,3.150000095E0,-1.243695068E1,1.156050086E0,1.288164177E1
2.928134554E0,2.446050167E0,-1.246800041E1,7.879500389E-1,1.273008488E1
2.930633929E0,1.732950091E0,-1.252305031E1,7.330500484E-1,1.266361984E1
2.933133314E0,1.050000072E0,-1.254705048E1,7.830000520E-1,1.261523146E1
2.935632699E0,3.460500240E-1,-1.266000080E1,1.000950098E0,1.270422261E1
2.938132083E0,-1.050000042E-1,-1.251600075E1,1.309950113E0,1.258480310E1
2.940631467E0,-1.099500060E-1,-1.203705025E1,1.635000110E0,1.214808187E1
2.943130855E0,1.290000081E-1,-1.140705013E1,1.924950123E0,1.156904779E1
2.945630470E0,7.009500265E-1,-1.036095047E1,2.503950119E0,1.068224657E1
2.948129856E0,1.623000026E0,-8.568000793E0,2.863050222E0,9.178334449E0
2.950629241E0,2.401050091E0,-6.664050102E0,1.894050121E0,7.332259622E0
2.953128636E0,2.953950167E0,-5.175000191E0,5.200500488E-1,5.981379491E0
2.955628020E0,3.100050211E0,-4.351950169E0,-9.259500504E-1,5.422837364E0
2.958127174E0,2.773950100E0,-4.195950031E0,-2.599050045E0,5.661789201E0
2.960626788E0,2.491950035E0,-4.297049999E0,-4.009050369E0,6.383332871E0
2.963126188E0,2.146950006E0,-4.456950188E0,-5.125050068E0,7.123197141E0
2.965625573E0,1.519950032E0,-4.648950100E0,-6.055950165E0,7.784440733E0
2.968124957E0,1.594050050E0,-5.271000385E0,-6.456000328E0,8.485539515E0
2.970624342E0,1.575000048E0,-5.830950260E0,-6.585000515E0,8.935481961E0
2.973123727E0,1.558050036E0,-6.529950142E0,-6.517950535E0,9.356893071E0
2.975623111E0,1.570050120E0,-7.210050106E0,-6.207000256E0,9.642444300E0
2.978122495E0,1.651050091E0,-7.929000378E0,-5.806950092E0,9.965725401E0
2.980621879E0,1.576950073E0,-8.652000427E0,-5.062950134E0,1.014777547E1
2.983121263E0,1.465050101E0,-9.229050636E0,-4.005000114E0,1.016669924E1
2.985620725E0,1.366050124E0,-9.798000336E0,-3.229050159E0,1.040642438E1
2.988120111E0,1.251000047E0,-1.036095047E1,-2.296950102E0,1.068598501E1
2.990619496E0,1.165050030E0,-1.084905052E1,-1.242000103E0,1.098188522E1
2.993118881E0,9.949500561E-1,-1.122795010E1,-4.440000355E-1,1.128068814E1
2.995618275E0,7.530000210E-1,-1.165905094E1,4.879500270E-1,1.169352698E1
2.998117660E0,5.089499950E-1,-1.198395061E1,1.398000121E0,1.207594745E1
3.000617044E0,2.550000250E-1,-1.234305096E1,2.217000008E0,1.254316631E1
3.003116428E0,-5.740500093E-1,-1.241295052E1,2.679000139E0,1.271172355E1
3.005615812E0,-1.101000071E0,-1.267395020E1,4.041000366E0,1.334806723E1
3.008115201E0,-1.222950101E0,-1.285305023E1,5.088000298E0,1.387747291E1
3.010614817E0,-1.137000084E0,-1.275300026E1,5.677050114E0,1.400573750E1
3.013114203E0,-9.840000272E-1,-1.260900021E1,6.313050270E0,1.413540753E1
3.015613357E0,-9.930000305E-1,-1.265205097E1,6.826050282E0,1.441025348E1
3.018112942E0,-9.670500755E-1,-1.279605103E1,7.377000332E0,1.480183237E1
3.020612097E0,-7.230000496E-1,-1.296600056E1,7.779000282E0,1.513779194E1
3.023111711E0,-2.869500220E-1,-1.307595062E1,8.004000664E0,1.533384660E1
3.025611097E0,1.260000020E-1,-1.316895103E1,8.133000374E0,1.547846383E1
3.028110482E0,6.000000238E-1,-1.317705059E1,8.041950226E0,1.544887134E1
3.030609867E0,1.096050024E0,-1.321995068E1,7.894050598E0,1.543646515E1
3.033109251E0,1.816050053E0,-1.307595062E1,7.659000397E0,1.526233303E1
3.035608711E0,2.647050142E0,-1.291800022E1,7.270950317E0,1.505816465E1
3.038108097E0,3.279000044E0,-1.290795040E1,6.907050133E0,1.500247867E1
3.040607405E0,3.945000172E0,-1.281000042E1,6.559950352E0,1.492287123E1
3.043106802E0,4.552950382E0,-1.273395061E1,6.297000408E0,1.491760938E1
3.045606186E0,5.131950378E0,-1.270005035E1,5.911050320E0,1.491873686E1
3.048105648E0,5.626050472E0,-1.258995056E1,5.422950268E0,1.481781660E1
3.050605035E0,5.998950481E0,-1.246305084E1,4.788000107E0,1.463693917E1
3.053104419E0,6.157050133E0,-1.237905025E1,4.240050316E0,1.446126475E1
3.055603804E0,6.172050476E0,-1.226400089E1,3.627000093E0,1.420053008E1
3.058103188E0,6.013050079E0,-1.223100090E1,3.141000032E0,1.398642326E1
3.060602573E0,5.832000256E0,-1.222605038E1,2.643000126E0,1.380123127E1
3.063101958E0,5.653950214E0,-1.215900040E1,2.172000170E0,1.358403579E1
3.065601342E0,5.455950260E0,-1.218495083E1,1.804950118E0,1.347212919E1
3.068100726E0,5.298000336E0,-1.220205021E1,1.483950019E0,1.338510159E1
3.070600110E0,5.137050152E0,-1.216905022E1,1.393050075E0,1.328215555E1
3.073099725E0,5.086950302E0,-1.183395100E1,1.504050016E0,1.296848588E1
3.075599111E0,5.685000420E0,-1.067895031E1,2.140050173E0,1.228572441E1
3.078098462E0,5.626050472E0,-1.026105022E1,2.977950096E0,1.207517215E1
3.080597847E0,4.519950390E0,-1.193400097E1,3.208050251E0,1.315834021E1
3.083097231E0,4.249050140E0,-1.268100071E1,2.806050062E0,1.366514263E1
3.085596616E0,4.441050053E0,-1.247295094E1,2.523000002E0,1.347824023E1
3.088096001E0,4.396950245E0,-1.305000019E1,1.561050057E0,1.385902427E1
3.090595381E0,4.290000439E0,-1.415295029E1,4.930500090E-1,1.479706741E1
3.093094765E0,4.021950245E0,-1.513005066E1,-4.750500321E-1,1.566270057E1
3.095594149E0,3.709950209E0,-1.582905102E1,-1.261050105E0,1.630683397E1
3.098093610E0,3.447000265E0,-1.581705093E1,-1.918950081E0,1.630163429E1
3.100592997E0,3.330000162E0,-1.536705112E1,-2.398050070E0,1.590552751E1
3.103092385E0,3.082950115E0,-1.509900093E1,-2.946000099E0,1.568959296E1
3.105591693E0,2.832000017E0,-1.502700043E1,-3.577950239E0,1.570454373E1
3.108091076E0,2.419950008E0,-1.497900105E1,-4.098000050E0,1.571687739E1
3.110590460E0,2.245050192E0,-1.478595066E1,-4.143000126E0,1.551866738E1
3.113089917E0,2.164050102E0,-1.456500053E1,-4.476000309E0,1.539015699E1
3.115589303E0,1.843050122E0,-1.429200077E1,-4.500000000E0,1.509662611E1
3.118088688E0,1.678050041E0,-1.392105103E1,-4.471050262E0,1.471739801E1
3.120588073E0,1.396950126E0,-1.351200104E1,-4.380000114E0,1.427270271E1
3.123087457E0,1.153050065E0,-1.301895046E1,-3.940050125E0,1.365088241E1
3.125586848E0,1.105050087E0,-1.277895069E1,-3.076050043E0,1.319032980E1
3.128086232E0,1.218000054E0,-1.262400055E1,-2.581950188E0,1.294277330E1
3.130585616E0,1.192050099E0,-1.265505028E1,-2.197050095E0,1.289954689E1
3.133085000E0,1.182000041E0,-1.256895065E1,-2.166000128E0,1.280887197E1
3.135584360E0,1.021950006E0,-1.271205044E1,-2.082000017E0,1.292189352E1
3.138083976E0,8.779500127E-1,-1.280595016E1,-2.179949999E0,1.301980560E1
3.140583362E0,6.030000448E-1,-1.292505074E1,-2.170950174E0,1.311996838E1
3.143082747E0,4.110000134E-1,-1.288500023E1,-2.247000217E0,1.308591464E1
3.145582127E0,3.610500097E-1,-1.268295097E1,-2.359950066E0,1.290569513E1
3.148081511E0,2.670000196E-1,-1.231005096E1,-2.338050127E0,1.253296143E1
3.150580896E0,5.860500336E-1,-1.175400066E1,-2.269050121E0,1.198534833E1
3.153080280E0,1.459950089E0,-1.096395016E1,-2.050950050E0,1.124926902E1
3.155579665E0,2.532000065E0,-9.942000389E0,-1.600950122E0,1.038351758E1
3.158079055E0,2.584950209E0,-9.211950302E0,-1.582050085E0,9.697673867E0
3.160578439E0,2.322000027E0,-8.692049980E0,-1.576950073E0,9.134012728E0
3.163077899E0,2.238000154E0,-8.236949921E0,-1.621950030E0,8.688308845E0
3.165577209E0,2.203950167E0,-7.741950512E0,-1.773000121E0,8.242494980E0
3.168076668E0,2.082000017E0,-7.299000263E0,-1.821000099E0,7.805521781E0
3.170575968E0,1.912050128E0,-6.760050297E0,-1.807050109E0,7.253940019E0
3.173075427E0,1.881000042E0,-6.166050434E0,-1.876050115E0,6.714007979E0
3.175574814E0,1.720950127E0,-5.676000118E0,-1.960050106E0,6.246634542E0
3.178074199E0,1.531950116E0,-5.203950405E0,-1.957050085E0,5.766976332E0
3.180573583E0,1.414050102E0,-4.741950035E0,-1.990950108E0,5.333808223E0
3.183072964E0,1.285050035E0,-4.303950310E0,-2.053050041E0,4.938659366E0
3.185572348E0,9.979500771E-1,-3.981000185E0,-1.888050079E0,4.517632116E0
3.188071732E0,9.190500379E-1,-3.580950260E0,-1.837950110E0,4.128670288E0
3.190571116E0,8.610000610E-1,-3.234000206E0,-1.866000056E0,3.831714322E0
3.193070509E0,7.579500079E-1,-2.956050158E0,-1.969050050E0,3.631787280E0
3.195569894E0,8.110500574E-1,-2.701950073E0,-2.202000141E0,3.578706612E0
3.198069279E0,9.570000172E-1,-2.467050076E0,-2.625000238E0,3.727306180E0
3.200568894E0,1.219950080E0,-2.295000076E0,-3.127950191E0,4.066863158E0
3.203068281E0,1.474050045E0,-2.211000204E0,-3.790950298E0,4.629540971E0
3.205567675E0,1.732950091E0,-2.302050114E0,-4.765950203E0,5.569275723E0
3.208067060E0,2.062950134E0,-2.596950054E0,-6.222000122E0,7.050758708E0
3.210566444E0,2.317050219E0,-3.042000055E0,-8.041049957E0,8.903986212E0
3.213065829E0,2.532000065E0,-3.298050165E0,-9.484950066E0,1.035627525E1
3.215565190E0,2.785950184E0,-3.396000147E0,-8.865000725E0,9.893562214E0
3.218064574E0,3.282000065E0,-3.516000271E0,-8.125050545E0,9.441939879E0
3.220563958E0,3.849000216E0,-3.949050188E0,-7.600950241E0,9.390646656E0
3.223063342E0,4.624950409E0,-4.621950150E0,-7.107000351E0,9.657227524E0
3.225562803E0,5.452950478E0,-5.352000237E0,-6.463050365E0,1.000747698E1
3.228062190E0,6.387000084E0,-5.950950146E0,-5.440950394E0,1.028647262E1
3.230561574E0,7.339950562E0,-6.307950497E0,-3.853950262E0,1.041719954E1
3.233060959E0,8.142000198E0,-6.703050137E0,-2.119950056E0,1.075719464E1
3.235560344E0,8.458050728E0,-7.408950329E0,-4.905000329E-2,1.124426845E1
3.238059728E0,9.732000351E0,-7.785000324E0,1.923000097E0,1.261015425E1
3.240559141E0,1.064595032E1,-8.235000610E0,4.063050270E0,1.405915612E1
3.243058525E0,1.119000053E1,-8.697000504E0,6.133950233E0,1.544277421E1
3.245557909E0,1.165695095E1,-9.102000237E0,5.884950161E0,1.591739778E1
3.248057293E0,1.196295071E1,-9.411000252E0,5.725050449E0,1.626208222E1
3.250556677E0,1.203705025E1,-9.600000381E0,5.878050327E0,1.648035381E1
3.253056298E0,1.209495068E1,-9.825000763E0,6.036000252E0,1.671082795E1
3.255555454E0,1.193205070E1,-1.004700089E1,6.166950226E0,1.677341158E1
3.258054836E0,1.149405098E1,-1.027695084E1,6.187050343E0,1.661350410E1
3.260554221E0,1.092195034E1,-1.065105057E1,6.121950150E0,1.643813101E1
3.263053610E0,1.018695068E1,-1.096905041E1,6.052950382E0,1.614720531E1
3.265553226E0,9.400950432E0,-1.132395077E1,5.950050354E0,1.587491194E1
3.268052612E0,8.414999962E0,-1.166805077E1,5.820000172E0,1.551863509E1
3.270551997E0,7.345050335E0,-1.199400043E1,5.662050247E0,1.516128701E1
3.273051377E0,6.223950386E0,-1.230000019E1,5.407950401E0,1.480788610E1
3.275550761E0,5.089050293E0,-1.253700066E1,5.044950008E0,1.444044109E1
3.278050146E0,4.081050396E0,-1.271895027E1,4.669050217E0,1.415014835E1
3.280549531E0,3.145050049E0,-1.291800022E1,4.192049980E0,1.394056500E1
3.283048915E0,2.298000097E0,-1.307400036E1,3.631950140E0,1.376231636E1
3.285548299E0,1.587000132E0,-1.324395084E1,3.060000181E0,1.368518924E1
3.288047683E0,9.090000391E-1,-1.338000107E1,2.473050117E0,1.363696031E1
3.290547144E0,3.580500185E-1,-1.339500046E1,1.975050092E0,1.354455831E1
3.293046531E0,-1.510500014E-1,-1.337295055E1,1.602000117E0,1.346941079E1
3.295545915E0,-6.169500351E-1,-1.330800056E1,1.350000024E0,1.339051927E1
3.298045300E0,-1.093950033E0,-1.320300102E1,1.222950101E0,1.330456950E1
3.300544684E0,-1.575000048E0,-1.306200027E1,1.285950065E0,1.321930951E1
3.303044069E0,-2.020050049E0,-1.286295033E1,1.492050052E0,1.310581194E1
3.305543454E0,-2.461050034E0,-1.263300037E1,1.788000107E0,1.299409135E1
3.308042853E0,-2.839050055E0,-1.241100025E1,2.109000206E0,1.290507708E1
3.310542237E0,-3.129000187E0,-1.219695091E1,2.478000164E0,1.283342271E1
3.313041621E0,-3.330000162E0,-1.198695087E1,2.896950245E0,1.277373137E1
3.315541005E0,-3.450000048E0,-1.177800083E1,3.274950266E0,1.270232668E1
3.318040418E0,-3.481050253E0,-1.154895020E1,3.607950211E0,1.259020517E1
3.320539803E0,-3.445050240E0,-1.127805042E1,3.855000257E0,1.240660387E1
3.323039188E0,-3.463950157E0,-1.099800014E1,4.060950279E0,1.222482209E1
3.325538573E0,-3.471000195E0,-1.070100021E1,4.162950039E0,1.199539082E1
3.328038187E0,-3.409050226E0,-1.036605072E1,4.153950214E0,1.167612664E1
3.330537565E0,-3.322950125E0,-9.967950821E0,4.033950329E0,1.125498984E1
3.333036949E0,-3.214950085E0,-9.616050720E0,3.835050106E0,1.084029265E1
3.335536334E0,-3.055050135E0,-9.279000282E0,3.579000235E0,1.040396176E1
3.338035718E0,-2.965950251E0,-8.989050865E0,3.261000156E0,1.001169408E1
3.340535112E0,-2.833950043E0,-8.769000053E0,2.868000031E0,9.651531431E0
3.343034497E0,-2.641050100E0,-8.640000343E0,2.454000235E0,9.361990639E0
3.345533881E0,-2.419950008E0,-8.577000618E0,2.035050154E0,9.141254114E0
3.348033265E0,-2.157000065E0,-8.577000618E0,1.614000082E0,8.990138216E0
3.350532649E0,-1.840950131E0,-8.575050354E0,1.204050064E0,8.852701425E0
3.353032106E0,-1.467000127E0,-8.563050270E0,7.729500532E-1,8.722119644E0
3.355531493E0,-1.048050046E0,-8.551050186E0,3.949500322E-1,8.624085674E0
3.358030877E0,-6.730500460E-1,-8.545949936E0,1.009500027E-1,8.573006916E0
3.360530262E0,-3.559500277E-1,-8.548950195E0,-1.330500096E-1,8.557391669E0
3.363029637E0,-4.800000042E-2,-8.500950813E0,-2.650500238E-1,8.505217237E0
3.365529021E0,2.269500047E-1,-8.473950386E0,-2.820000052E-1,8.481678221E0
3.368028406E0,4.849500358E-1,-8.427000046E0,-2.839500010E-1,8.445716897E0
3.370527790E0,7.219500542E-1,-8.410050392E0,-3.079500198E-1,8.446596515E0
3.373027174E0,9.430500269E-1,-8.470050812E0,-2.839500010E-1,8.527117433E0
3.375526563E0,1.122000098E0,-8.515049934E0,-3.030000031E-1,8.593996079E0
3.378026178E0,1.297050118E0,-8.604000092E0,-2.890500128E-1,8.706015535E0
3.380525334E0,1.450050116E0,-8.680050850E0,-2.890500128E-1,8.805082510E0
3.383024947E0,1.576950073E0,-8.737950325E0,-2.719500065E-1,8.883271032E0
3.385524098E0,1.636950135E0,-8.817000389E0,-2.100000083E-1,8.970128294E0
3.388023712E0,1.716000080E0,-8.862000465E0,-7.095000148E-2,9.026889964E0
3.390523098E0,1.807050109E0,-8.937000275E0,1.219500080E-1,9.118677306E0
3.393022483E0,1.845000029E0,-8.995950699E0,3.349500299E-1,9.189306046E0
3.395521867E0,1.843050122E0,-9.030000687E0,6.679500341E-1,9.240341087E0
3.398021257E0,1.924050093E0,-9.109050751E0,8.980500698E-1,9.353249075E0
3.400520642E0,1.998000145E0,-9.202050209E0,1.101000071E0,9.480608302E0
3.403020101E0,2.062950134E0,-9.312000275E0,1.234950066E0,9.617391228E0
3.405519411E0,2.122950077E0,-9.423000336E0,1.314000010E0,9.748151024E0
3.408018808E0,2.149049997E0,-9.505950928E0,1.305000067E0,9.832829913E0
3.410518192E0,2.164050102E0,-9.607050896E0,1.267050028E0,9.928945338E0
3.413017577E0,2.118000031E0,-9.712050438E0,1.171050072E0,1.000905620E1
3.415516961E0,2.082000017E0,-9.834000587E0,9.480000734E-1,1.009658337E1
3.418016423E0,2.034000158E0,-9.988050461E0,7.399500608E-1,1.021987450E1
3.420515796E0,1.900050044E0,-1.013400078E1,7.330500484E-1,1.033661087E1
3.423015180E0,1.825950146E0,-1.025595093E1,6.199500561E-1,1.043565817E1
3.425514565E0,1.773000121E0,-1.046595097E1,2.920500040E-1,1.061908434E1
3.428013949E0,1.558050036E0,-1.054500008E1,5.359500051E-1,1.067294659E1
3.430513334E0,1.455000043E0,-1.061505032E1,4.690500200E-1,1.072456648E1
3.433012714E0,1.303950071E0,-1.051200008E1,7.060500383E-1,1.061606981E1
3.435512098E0,1.150950074E0,-1.026795006E1,1.192050099E0,1.040079170E1
3.438011482E0,1.144050002E0,-9.909000397E0,2.148000002E0,1.020348192E1
3.440510866E0,1.419000030E0,-9.637950897E0,3.960000277E0,1.051595268E1
3.443010481E0,1.330050111E0,-9.573000908E0,3.655950069E0,1.033331266E1
3.445509877E0,1.207950115E0,-9.793950081E0,2.595000029E0,1.020365752E1
3.448009261E0,1.066950083E0,-9.873000145E0,1.978050113E0,1.012557142E1
3.450508646E0,8.539500237E-1,-9.970950127E0,1.273950100E0,1.008821223E1
3.453008030E0,6.790500283E-1,-1.005495071E1,7.129500508E-1,1.010304115E1
3.455507415E0,4.470000267E-1,-1.024095058E1,3.180000186E-1,1.025563269E1
3.458006834E0,3.199500144E-1,-1.044000053E1,9.795000404E-2,1.044536133E1
3.460506218E0,1.960500032E-1,-1.057395077E1,1.240500063E-1,1.057649558E1
3.463005602E0,1.500000060E-1,-1.055700016E1,6.900000572E-2,1.055829122E1
3.465504986E0,1.360500008E-1,-1.037295055E1,4.095000029E-2,1.037392354E1
3.468004370E0,1.879500151E-1,-1.012605095E1,4.995000362E-2,1.012791825E1
3.470503769E0,1.930500120E-1,-9.994950294E0,1.360500008E-1,9.997740210E0
3.473003154E0,2.050500065E-1,-9.921000481E0,3.570000231E-1,9.929539015E0
3.475502539E0,1.759500057E-1,-9.826950073E0,6.100500226E-1,9.847439625E0
3.478001924E0,1.789500117E-1,-9.772050858E0,9.100500345E-1,9.815966184E0
3.480501370E0,1.879500151E-1,-9.748050690E0,1.231050014E0,9.827273355E0
3.483000757E0,1.639500111E-1,-9.640050888E0,1.534950018E0,9.762864963E0
3.485500141E0,1.549500078E-1,-9.493950844E0,1.848000050E0,9.673376676E0
3.487999526E0,1.480500102E-1,-9.382050514E0,2.101950169E0,9.615767529E0
3.490498911E0,1.999500096E-1,-9.211950302E0,2.281949997E0,9.492486722E0
3.492998265E0,2.410500050E-1,-9.085050583E0,2.308050156E0,9.376744889E0
3.495497650E0,2.629500031E-1,-8.932050705E0,2.358000040E0,9.241798347E0
3.497997035E0,1.410000026E-1,-8.689949989E0,2.535000086E0,9.053250093E0
3.500496419E0,-5.205000192E-2,-8.512949944E0,2.739000082E0,8.942882499E0
3.502995803E0,-3.300000131E-1,-8.374050140E0,2.941950083E0,8.881930311E0
3.505495403E0,-5.530500412E-1,-8.227950096E0,3.160050154E0,8.831248162E0
3.507994790E0,-7.440000176E-1,-7.990950584E0,3.409050226E0,8.719544180E0
3.510493944E0,-8.740500212E-1,-7.810950279E0,3.651000261E0,8.666297399E0
3.512993557E0,-9.979500771E-1,-7.723050594E0,3.814050198E0,8.671124134E0
3.515492727E0,-1.020000100E0,-7.519050121E0,4.105950356E0,8.627591973E0
3.517992340E0,-1.012050033E0,-7.311000347E0,4.377000332E0,8.580973328E0
3.520491727E0,-9.739500284E-1,-7.171950340E0,4.507950306E0,8.526843865E0
3.522991112E0,-9.960000515E-1,-6.837000370E0,4.992000103E0,8.523887329E0
3.525490496E0,-1.114950061E0,-6.496950150E0,5.719950199E0,8.727617382E0
3.527989867E0,-1.414950013E0,-6.174000263E0,8.302950859E0,1.044314875E1
3.530489251E0,-8.980500698E-1,-8.307000160E0,1.355805111E1,1.592587503E1
3.532988636E0,2.134950161E0,-8.488950729E0,-9.808050156E0,1.314603151E1
3.535488021E0,2.464950085E0,-7.882950306E0,-5.239950180E0,9.781306781E0
3.537987480E0,1.227000117E0,-8.190000534E0,2.800500095E-1,8.286136980E0
3.540486795E0,-2.680500150E-1,-8.665950775E0,2.839950085E0,9.123369451E0
3.542986254E0,-6.439500451E-1,-8.287950516E0,4.444050312E0,9.426260053E0
3.545485641E0,-1.242000103E0,-8.728050232E0,1.254300022E1,1.533128434E1
3.547985026E0,-5.599500537E-1,-9.103950500E0,1.831605148E1,2.046150534E1
3.550484405E0,-4.069500268E-1,-7.974000454E0,1.423395061E1,1.632040568E1
3.552983790E0,3.630000055E-1,-7.665000439E0,1.138395023E1,1.372874079E1
3.555483175E0,1.000050068E0,-8.392950058E0,8.896950722E0,1.227181498E1
3.557982559E0,2.020050049E0,-8.974950790E0,6.964950562E0,1.153866891E1
3.560481914E0,2.623050213E0,-9.150000572E0,5.772000313E0,1.113188621E1
3.562981298E0,2.926950216E0,-9.360000610E0,4.858050346E0,1.094428171E1
3.565480682E0,3.066000223E0,-9.597000122E0,3.991050243E0,1.083657006E1
3.567980067E0,3.210000038E0,-1.003500080E1,3.325950146E0,1.104840648E1
3.570479701E0,3.267000198E0,-1.041900063E1,2.581050158E0,1.122010179E1
3.572979088E0,3.286950111E0,-1.086105061E1,1.990050077E0,1.152071007E1
3.575478472E0,3.199950218E0,-1.124505043E1,1.504050016E0,1.178783301E1
3.577977857E0,3.148050070E0,-1.161105061E1,1.165950060E0,1.208661057E1
3.580477242E0,3.076050043E0,-1.206300068E1,1.012950063E0,1.249016161E1
3.582976636E0,2.950950146E0,-1.238205051E1,8.310000300E-1,1.275593363E1
3.585476021E0,2.791050196E0,-1.269105053E1,7.210500240E-1,1.301432433E1
3.587975405E0,2.571000099E0,-1.297800064E1,6.540000439E-1,1.324636774E1
3.590474789E0,2.317050219E0,-1.326300049E1,6.319500208E-1,1.347869669E1
3.592974158E0,2.068050146E0,-1.354500103E1,5.869500041E-1,1.371453224E1
3.595473619E0,1.777950048E0,-1.379700089E1,6.199500561E-1,1.392489418E1
3.597973006E0,1.429050088E0,-1.393305111E1,6.919500232E-1,1.402322688E1
3.600472390E0,1.018950105E0,-1.404795074E1,8.830500245E-1,1.411251065E1
3.602971698E0,6.820500493E-1,-1.415805054E1,1.165950060E0,1.422234252E1
3.605471173E0,3.460500240E-1,-1.402695084E1,1.447950125E0,1.410573146E1
3.607970559E0,-4.005000368E-2,-1.377300072E1,1.771950126E0,1.388657481E1
3.610469944E0,-4.980000257E-1,-1.339200020E1,2.071050167E0,1.356034373E1
3.612969329E0,-9.000000358E-1,-1.303305054E1,2.298000097E0,1.326466022E1
3.615468713E0,-1.261050105E0,-1.269300079E1,2.500050068E0,1.299818321E1
3.617968098E0,-1.575000048E0,-1.235805035E1,2.617050171E0,1.272992479E1
3.620467482E0,-1.885950089E0,-1.199595070E1,2.658000231E0,1.243079266E1
3.622966866E0,-2.107050180E0,-1.165395069E1,2.626050234E0,1.213055510E1
3.625466250E0,-2.335950136E0,-1.131405067E1,2.557050228E0,1.183228260E1
3.627965624E0,-2.511000156E0,-1.093995094E1,2.452050209E0,1.148913394E1
3.630465009E0,-2.674050093E0,-1.054305077E1,2.296050072E0,1.111657813E1
3.632964624E0,-2.764950037E0,-1.019595051E1,2.133000135E0,1.077738582E1
3.635464011E0,-2.755050182E0,-9.916050911E0,1.990050077E0,1.048230254E1
3.637963382E0,-2.716950178E0,-9.673950195E0,1.855050087E0,1.021804000E1
3.640462766E0,-2.620950222E0,-9.535050392E0,1.768950105E0,1.004568318E1
3.642962151E0,-2.535000086E0,-9.490050316E0,1.678050041E0,9.965095703E0
3.645461535E0,-2.425050020E0,-9.547050476E0,1.615950108E0,9.981900377E0
3.647960920E0,-2.302950144E0,-9.684000015E0,1.591950059E0,1.008056252E1
3.650460290E0,-2.178000212E0,-9.849000931E0,1.507950068E0,1.019904004E1
3.652959674E0,-2.025000095E0,-1.003800011E1,1.405050039E0,1.033616163E1
3.655459058E0,-1.858050108E0,-1.018905067E1,1.245000005E0,1.043164076E1
3.657958442E0,-1.627950072E0,-1.035105038E1,1.053000093E0,1.053106237E1
3.660457826E0,-1.411950111E0,-1.043100071E1,7.570500374E-1,1.055331719E1
3.662957312E0,-1.182000041E0,-1.047405052E1,4.380000234E-1,1.054963044E1
3.665456621E0,-9.240000248E-1,-1.047105026E1,1.080000028E-1,1.051229440E1
3.667956081E0,-6.630000472E-1,-1.038300037E1,-2.290500104E-1,1.040666756E1
3.670455468E0,-3.880500197E-1,-1.026105022E1,-5.380499959E-1,1.028247209E1
3.672954872E0,-1.530000120E-1,-1.011195087E1,-8.130000234E-1,1.014573450E1
3.675454257E0,1.000500023E-1,-9.940050125E0,-1.069050074E0,9.997873502E0
3.677953641E0,3.580500185E-1,-9.757950783E0,-1.306050062E0,9.851475527E0
3.680453026E0,5.980500579E-1,-9.556950569E0,-1.480950117E0,9.689488186E0
3.682952411E0,8.370000124E-1,-9.388950348E0,-1.665000081E0,9.572104415E0
3.685451805E0,1.057050109E0,-9.214050293E0,-1.789950132E0,9.445633870E0
3.687951419E0,1.294950008E0,-9.051000595E0,-1.902000070E0,9.338903124E0
3.690450574E0,1.534050107E0,-8.865000725E0,-1.912050128E0,9.197689018E0
3.692949957E0,1.768950105E0,-8.721000671E0,-1.921950102E0,9.103786541E0
3.695449347E0,2.029950142E0,-8.568000793E0,-1.918950081E0,9.011864657E0
3.697948962E0,2.206950188E0,-8.503050804E0,-1.894950032E0,8.986842478E0
3.700448349E0,2.379000187E0,-8.452950478E0,-1.761000037E0,8.956178582E0
3.702947733E0,2.503950119E0,-8.414999962E0,-1.591050029E0,8.922635863E0
3.705447118E0,2.595000029E0,-8.379000664E0,-1.312950015E0,8.869358208E0
3.707946503E0,2.719050169E0,-8.344950676E0,-1.042950034E0,8.838505551E0
3.710445887E0,2.803050041E0,-8.359950066E0,-7.510500550E-1,8.849289848E0
3.712945272E0,2.863050222E0,-8.407050133E0,-4.470000267E-1,8.892432599E0
3.715444656E0,2.926950216E0,-8.476950645E0,-1.210500076E-1,8.968856277E0
3.717944040E0,2.982000113E0,-8.539050102E0,2.149500102E-1,9.047314785E0
3.720443424E0,3.057000160E0,-8.632050514E0,5.580000281E-1,9.174361563E0
3.722942885E0,3.118950129E0,-8.722949982E0,9.120000601E-1,9.308568655E0
3.725442272E0,3.172050238E0,-8.812050819E0,1.258950114E0,9.449819985E0
3.727941580E0,3.270000219E0,-8.890950203E0,1.597050071E0,9.606896787E0
3.730441053E0,3.366000175E0,-8.950950623E0,1.980000138E0,9.765750088E0
3.732940363E0,3.436950207E0,-9.010950089E0,2.356050014E0,9.927780210E0
3.735439822E0,3.552000284E0,-9.037050247E0,2.725050211E0,1.008518130E1
3.737939209E0,3.682050228E0,-9.073050499E0,3.091050148E0,1.026802465E1
3.740438594E0,3.793950081E0,-9.090000153E0,3.400050163E0,1.042029276E1
3.742937997E0,3.897000074E0,-9.082950592E0,3.670050144E0,1.054304838E1
3.745437382E0,3.993000269E0,-9.073050499E0,3.937950134E0,1.066638401E1
3.747936995E0,4.110000134E0,-9.025050163E0,4.128000259E0,1.074169529E1
3.750436382E0,4.203000069E0,-8.982000351E0,4.297950268E0,1.080804869E1
3.752935526E0,4.315950394E0,-8.932050705E0,4.446000099E0,1.087087276E1
3.755434908E0,4.372950077E0,-8.845950127E0,4.555950165E0,1.086877214E1
3.757934293E0,4.438050270E0,-8.761950493E0,4.621050358E0,1.085459226E1
3.760433908E0,4.467000008E0,-8.668050766E0,4.660950184E0,1.080803635E1
3.762933295E0,4.462050438E0,-8.568000793E0,4.633050442E0,1.071380829E1
3.765432690E0,4.417050362E0,-8.479050636E0,4.579950333E0,1.060097065E1
3.767932074E0,4.366050243E0,-8.376000404E0,4.495950222E0,1.046103943E1
3.770431459E0,4.302000046E0,-8.239950180E0,4.357050419E0,1.026585952E1
3.772930843E0,4.231950283E0,-8.103000641E0,4.245000362E0,1.007908977E1
3.775430228E0,4.129050255E0,-7.963950157E0,4.111050129E0,9.867841267E0
3.777929631E0,4.036050320E0,-7.809000492E0,3.937950134E0,9.632115143E0
3.780429015E0,3.976050138E0,-7.648050308E0,3.787950277E0,9.415424341E0
3.782928399E0,3.873000145E0,-7.456950188E0,3.642000198E0,9.158078492E0
3.785427783E0,3.799050093E0,-7.285050392E0,3.436050177E0,8.905682548E0
3.787927244E0,3.748950243E0,-7.083000183E0,3.249000072E0,8.647515307E0
3.790426631E0,3.721950293E0,-6.885000229E0,3.064950228E0,8.405359126E0
3.792926015E0,3.715050220E0,-6.660000324E0,2.844000101E0,8.139136259E0
3.795425400E0,3.637950182E0,-6.487050533E0,2.629050016E0,7.888498598E0
3.797924795E0,3.519000053E0,-6.336000443E0,2.392050028E0,7.632179657E0
3.800424179E0,3.424950123E0,-6.186000347E0,2.205000162E0,7.406680049E0
3.802923564E0,3.301050186E0,-6.018000126E0,2.020950079E0,7.155242628E0
3.805422948E0,3.151950121E0,-5.884050369E0,1.863000035E0,6.930195340E0
3.807922351E0,3.025950193E0,-5.713950157E0,1.759950042E0,6.700971953E0
3.810421735E0,2.899050236E0,-5.332950115E0,1.690050125E0,6.300882369E0
3.812921350E0,2.827050209E0,-5.091000080E0,1.603950024E0,6.040128341E0
3.815420506E0,2.755050182E0,-4.974000454E0,1.513050079E0,5.883901985E0
3.817920119E0,2.688000202E0,-4.822950363E0,1.518000126E0,5.726300697E0
3.820419289E0,2.686050177E0,-4.546050072E0,1.542000055E0,5.500836389E0
3.822918903E0,2.568000078E0,-4.347000122E0,1.591950059E0,5.293896434E0
3.825418289E0,2.520000219E0,-4.186050415E0,1.597050071E0,5.140426841E0
3.827917674E0,2.410050154E0,-4.060050011E0,1.633050084E0,4.995918375E0
3.830417058E0,2.379000187E0,-3.886950254E0,1.657050133E0,4.849107063E0
3.832916443E0,2.391000032E0,-3.802950144E0,1.714050055E0,4.808043109E0
3.835415828E0,2.274000168E0,-3.724050283E0,1.684950113E0,4.677465570E0
3.837915212E0,2.008050203E0,-3.736050129E0,1.750050068E0,4.588356070E0
3.840414597E0,1.747050047E0,-3.753000259E0,1.795950055E0,4.512497248E0
3.842913982E0,1.534050107E0,-3.766950130E0,1.699950099E0,4.408293701E0
3.845413366E0,1.251000047E0,-3.736050129E0,1.630050063E0,4.263816939E0
3.847912750E0,9.570000172E-1,-3.721950293E0,1.614000082E0,4.168184170E0
3.850412210E0,6.790500283E-1,-3.705000162E0,1.602000117E0,4.093230939E0
3.852911597E0,2.890500128E-1,-3.679050207E0,1.522950053E0,3.992284709E0
3.855410982E0,-7.395000011E-2,-3.553950071E0,1.590000033E0,3.894114767E0
3.857910361E0,-3.370500207E-1,-3.657000065E0,1.645050049E0,4.024107585E0
3.860409746E0,-6.490500569E-1,-3.781950235E0,1.768950105E0,4.225351823E0
3.862909130E0,-8.830500245E-1,-3.856050253E0,1.879050136E0,4.379466898E0
3.865408515E0,-1.129950047E0,-3.870000124E0,1.702050090E0,4.376147001E0
3.867907900E0,-1.351950049E0,-3.846000195E0,1.744950056E0,4.434448909E0
3.870407270E0,-1.567950130E0,-3.997050285E0,1.879050136E0,4.686758795E0
3.872906654E0,-2.119050026E0,-4.083000183E0,1.812000036E0,4.944148829E0
3.875406038E0,-2.977950096E0,-4.162050247E0,1.705050111E0,5.394260368E0
3.877905422E0,-4.507950306E0,-4.207950115E0,1.401000023E0,6.323864420E0
3.880405048E0,-8.158950806E0,-3.856050253E0,9.649500251E-1,9.075722029E0
3.882904203E0,-1.449705029E1,-2.980050087E0,1.099500060E-1,1.480058291E1
3.885403817E0,-1.989795113E1,-2.287950039E0,-2.260500044E-1,2.003033382E1
3.887903203E0,-2.164605141E1,-2.515050173E0,1.560000032E-1,2.179223153E1
3.890402588E0,-2.089905167E1,-3.436950207E0,1.558950067E0,2.123707401E1
3.892901982E0,-1.860300064E1,-4.620000362E0,3.409050226E0,1.946888953E1
3.895401366E0,-1.510500050E1,-6.016050339E0,5.173950195E0,1.706234633E1
3.897900751E0,-1.098900032E1,-7.380000114E0,6.586050510E0,1.478508002E1
3.900400136E0,-6.450000286E0,-8.424000740E0,8.308050156E0,1.347553300E1
3.902899520E0,-2.233950138E0,-9.175950050E0,9.265950203E0,1.323051117E1
3.905398904E0,1.102950096E0,-9.691050529E0,9.316050529E0,1.348783736E1
3.907898288E0,3.351000071E0,-1.032795048E1,9.024000168E0,1.411836894E1
3.910397672E0,4.783050060E0,-1.109400082E1,8.452050209E0,1.474420478E1
3.912897057E0,5.689950466E0,-1.173795033E1,7.819050312E0,1.520830569E1
3.915396518E0,6.547050476E0,-1.227195072E1,7.056000233E0,1.559653114E1
3.917895905E0,7.261050224E0,-1.267395020E1,6.280050278E0,1.589939922E1
3.920395289E0,7.737000465E0,-1.287300014E1,5.569050312E0,1.601841535E1
3.922894674E0,8.013000488E0,-1.278900051E1,4.816950321E0,1.584202390E1
3.925394059E0,7.974000454E0,-1.252305031E1,4.027050018E0,1.538273721E1
3.927893438E0,7.764000416E0,-1.256595039E1,3.072000027E0,1.508708043E1
3.930392823E0,7.528950214E0,-1.284405041E1,1.840950131E0,1.500146058E1
3.932892208E0,7.306050301E0,-1.326300049E1,5.890500546E-1,1.515363101E1
3.935391592E0,7.117050171E0,-1.365105057E1,-5.539500117E-1,1.540488381E1
3.937890976E0,6.952050209E0,-1.406700039E1,-1.675050020E0,1.578028183E1
3.940390370E0,6.697950363E0,-1.450800037E1,-2.745000124E0,1.621356345E1
3.942889985E0,6.399000168E0,-1.504200077E1,-3.717000246E0,1.676380271E1
3.945389371E0,5.965950489E0,-1.558800030E1,-4.392000198E0,1.725885234E1
3.947888756E0,5.511000156E0,-1.612395096E1,-4.749000072E0,1.768914692E1
3.950388141E0,5.245050430E0,-1.673400116E1,-4.576950073E0,1.812417780E1
3.952887506E0,4.903050423E0,-1.721595001E1,-4.585950375E0,1.847863034E1
3.955386891E0,4.278000355E0,-1.746900177E1,-4.537950039E0,1.854886251E1
3.957886276E0,4.360949993E0,-1.775400162E1,-3.424950123E0,1.859980488E1
3.960385660E0,5.119950294E0,-1.808700180E1,-2.463000059E0,1.895837267E1
3.962885044E0,5.365050316E0,-1.837200165E1,-2.350050211E0,1.928307407E1
3.965384408E0,5.070000172E0,-1.803900146E1,-1.665000081E0,1.881177027E1
3.967883869E0,4.435950279E0,-1.721295166E1,-1.063950062E0,1.780717129E1
3.970383179E0,4.423950195E0,-1.646595001E1,-2.910000086E-1,1.705237597E1
3.972882561E0,4.279950142E0,-1.594695091E1,4.095000029E-2,1.651135650E1
3.975381946E0,3.943050146E0,-1.543395042E1,1.510500014E-1,1.593038877E1
3.977881316E0,3.496950150E0,-1.477800083E1,4.570500255E-1,1.519298732E1
3.980380778E0,3.255000114E0,-1.418505096E1,6.780000329E-1,1.456950173E1
3.982880165E0,3.243000269E0,-1.372500038E1,7.470000386E-1,1.412270142E1
3.985379549E0,3.139950037E0,-1.332495022E1,8.740500212E-1,1.371778218E1
3.987878934E0,2.707050085E0,-1.303995037E1,4.189500213E-1,1.332456172E1
3.990378309E0,2.367000103E0,-1.278900051E1,1.530000120E-1,1.300709931E1
3.992877693E0,2.125050068E0,-1.246995068E1,-1.570500135E-1,1.265069849E1
3.995377078E0,2.061000109E0,-1.219305038E1,-2.839500010E-1,1.236926945E1
3.997876462E0,1.929000139E0,-1.194600010E1,-7.995000482E-2,1.210100624E1
4.000375846E0,1.893000126E0,-1.176405048E1,1.800000072E-1,1.191674172E1
4.002875221E0,1.951050043E0,-1.170195103E1,6.100500226E-1,1.187915886E1
4.005374836E0,2.053050041E0,-1.154895020E1,1.032000065E0,1.177532544E1
4.007874223E0,2.050950050E0,-1.140300083E1,1.618050098E0,1.169841486E1
4.010373607E0,2.017950058E0,-1.121100044E1,2.278950214E0,1.161689577E1
4.012872992E0,1.945950150E0,-1.097400093E1,2.986050129E0,1.153828037E1
4.015372371E0,1.972050071E0,-1.078200054E1,3.646050215E0,1.155137218E1
4.017871756E0,1.872000098E0,-1.061205006E1,4.201950073E0,1.156617375E1
4.020371141E0,1.759050131E0,-1.044705009E1,4.786050320E0,1.162503293E1
4.022870525E0,1.587000132E0,-1.029195023E1,5.317950249E0,1.169287833E1
4.025369909E0,1.407000065E0,-1.011405087E1,5.880000114E0,1.178338132E1
4.027869307E0,1.216050029E0,-9.970950127E0,6.376050472E0,1.189758983E1
4.030368691E0,9.640500546E-1,-9.886950493E0,6.756000519E0,1.201352261E1
4.032868076E0,6.910500526E-1,-9.801000595E0,7.147050381E0,1.214979391E1
4.035367461E0,4.489500225E-1,-9.769950867E0,7.450950146E0,1.229512725E1
4.037866913E0,1.690500081E-1,-9.774000168E0,7.675950527E0,1.242899327E1
4.040366223E0,-3.795000166E-2,-9.858000755E0,7.731000423E0,1.252796818E1
4.042865682E0,-1.770000011E-1,-9.970950127E0,7.659000397E0,1.257423805E1
4.045365069E0,-2.200500071E-1,-1.011705017E1,7.602000237E0,1.265675842E1
4.047864453E0,-2.509500086E-1,-1.034700012E1,7.522950172E0,1.279524000E1
4.050363838E0,-2.560500205E-1,-1.062705040E1,7.408050537E0,1.295681190E1
4.052863223E0,-2.080500126E-1,-1.096200085E1,7.276050568E0,1.315863440E1
4.055362607E0,-7.395000011E-2,-1.131405067E1,7.207050323E0,1.341472272E1
4.057861992E0,8.505000174E-2,-1.166400051E1,7.150950432E0,1.368182128E1
4.060361377E0,2.989500165E-1,-1.204395103E1,7.068000317E0,1.396791882E1
4.062860761E0,5.689499974E-1,-1.244400024E1,7.057950497E0,1.431752463E1
4.065360145E0,7.939500213E-1,-1.282500076E1,7.087050438E0,1.467437512E1
4.067859529E0,1.026000023E0,-1.323900032E1,7.108050346E0,1.506148018E1
4.070359144E0,1.261050105E0,-1.365495110E1,7.153950214E0,1.546696287E1
4.072858496E0,1.467000127E0,-1.408905029E1,7.147050381E0,1.586611977E1
4.075357881E0,1.572000027E0,-1.446705055E1,7.087050438E0,1.618619843E1
4.077857266E0,1.809000134E0,-1.495995045E1,7.075050354E0,1.664719004E1
4.080356650E0,1.989000082E0,-1.543695068E1,6.952950478E0,1.704696712E1
4.082856035E0,2.149049997E0,-1.590600109E1,6.883050442E0,1.746412523E1
4.085355401E0,2.254950047E0,-1.644000053E1,6.768000126E0,1.792105586E1
4.087854785E0,2.319000006E0,-1.695900154E1,6.640950203E0,1.835994864E1
4.090354169E0,2.362050056E0,-1.748595047E1,6.514950275E0,1.880910209E1
4.092853553E0,2.619000196E0,-1.813305092E1,6.357000351E0,1.939273449E1
4.095352937E0,2.748000145E0,-1.873605156E1,6.214950085E0,1.993029697E1
4.097852336E0,2.757000208E0,-1.939695168E1,6.061950207E0,2.050829161E1
4.100351797E0,2.965950251E0,-2.009595108E1,5.895000458E0,2.115171721E1
4.102851107E0,3.157050133E0,-2.086005020E1,5.743950367E0,2.186553511E1
4.105350566E0,3.226950169E0,-2.155395126E1,5.566050053E0,2.249370880E1
4.107849953E0,3.468000174E0,-2.229600143E1,5.454000473E0,2.321389296E1
4.110349343E0,3.631050110E0,-2.306205177E1,5.317950249E0,2.394417156E1
4.112848727E0,3.610050201E0,-2.372595024E1,5.191050053E0,2.455402570E1
4.115348112E0,3.874950171E0,-2.450100136E1,5.100000381E0,2.532438174E1
4.117847497E0,4.054950237E0,-2.520000076E1,4.975050449E0,2.600449551E1
4.120346881E0,4.194000244E0,-2.584905052E1,4.867050171E0,2.663552568E1
4.122846274E0,4.321050167E0,-2.650995064E1,4.774050236E0,2.728077186E1
4.125345658E0,4.447950363E0,-2.706105042E1,4.669050217E0,2.781878398E1
4.127845042E0,4.407000065E0,-2.750100136E1,4.578000069E0,2.822560557E1
4.130344427E0,4.563000202E0,-2.787705040E1,4.426949978E0,2.859281021E1
4.132843812E0,4.837950230E0,-2.823105049E1,4.309950352E0,2.896504180E1
4.135343413E0,4.939050198E0,-2.836095047E1,4.144050121E0,2.908454710E1
4.137842799E0,5.101050377E0,-2.828400040E1,4.009950161E0,2.901870248E1
4.140342184E0,5.386050224E0,-2.794605064E1,3.832950115E0,2.871729079E1
4.142841569E0,5.784000397E0,-2.724300194E1,3.618000269E0,2.808426145E1
4.145340953E0,6.148050308E0,-2.626605034E1,3.349050045E0,2.718308406E1
4.147840357E0,6.412950516E0,-2.524605179E1,3.000000238E0,2.622001271E1
4.150339741E0,6.460950375E0,-2.421405029E1,2.622000217E0,2.519799588E1
4.152839126E0,6.351000309E0,-2.329200172E1,2.203050137E0,2.424264794E1
4.155338511E0,6.106950283E0,-2.241300201E1,1.762050033E0,2.329683072E1
4.157837910E0,5.772000313E0,-2.166195107E1,1.354950070E0,2.245867319E1
4.160337294E0,5.413050175E0,-2.100600052E1,9.190500379E-1,2.171169784E1
4.162836754E0,5.034000397E0,-2.038995171E1,5.239500403E-1,2.100870806E1
4.165336064E0,4.651050091E0,-1.987800026E1,1.630500108E-1,2.041552709E1
4.167835447E0,4.243950367E0,-1.942305183E1,-1.830000132E-1,1.988214139E1
