"Time (s)","Acceleration x (m/s^2)","Acceleration y (m/s^2)","Acceleration z (m/s^2)","Absolute acceleration (m/s^2)"
6.299329000E-3,-2.841000080E0,4.444950104E0,8.560950279E0,1.005578105E1
8.796949000E-3,-2.773950100E0,4.492950439E0,8.437050819E0,9.953151729E0
1.129571900E-2,-2.733000040E0,4.551000118E0,8.343000412E0,9.888708064E0
1.379441100E-2,-2.688000202E0,4.570050240E0,8.359950066E0,9.899468136E0
1.629319700E-2,-2.676000118E0,4.584000111E0,8.398050308E0,9.934851918E0
1.879196600E-2,-2.652000189E0,4.594050407E0,8.430000305E0,9.960085807E0
2.129050700E-2,-2.605950117E0,4.564949989E0,8.346000671E0,9.863339780E0
2.378927400E-2,-2.584950209E0,4.527000427E0,8.290950775E0,9.793649228E0
2.628804300E-2,-2.580000162E0,4.476000309E0,8.169000626E0,9.665585902E0
2.878672800E-2,-2.563050032E0,4.393050194E0,8.089950562E0,9.555909981E0
3.128549500E-2,-2.560950041E0,4.291950226E0,8.029950142E0,9.458298004E0
3.378403500E-2,-2.520000219E0,4.206000328E0,7.975050449E0,9.361745005E0
3.628280300E-2,-2.506050110E0,4.129050255E0,7.993950367E0,9.339838630E0
3.878158700E-2,-2.499000072E0,4.065000057E0,8.049000740E0,9.357117064E0
4.128028100E-2,-2.491050005E0,4.005000114E0,8.134950638E0,9.403338658E0
4.377904800E-2,-2.518050194E0,3.970950127E0,8.251950264E0,9.497563100E0
4.627781800E-2,-2.524950027E0,3.922950268E0,8.410050392E0,9.617372772E0
4.877635800E-2,-2.475000143E0,3.909000158E0,8.575950623E0,9.744374635E0
5.127505200E-2,-2.392950058E0,3.909000158E0,8.752950668E0,9.880315664E0
5.377389800E-2,-2.271000147E0,3.916050196E0,8.913000107E0,9.996722548E0
5.627259300E-2,-2.106000185E0,3.957000256E0,9.054000854E0,1.010287183E1
5.877136000E-2,-1.948050141E0,3.978000164E0,9.217050552E0,1.022611390E1
6.126990000E-2,-1.783050060E0,3.978000164E0,9.397050858E0,1.035897281E1
6.376866800E-2,-1.656000137E0,3.978000164E0,9.547950745E0,1.047521767E1
6.626743700E-2,-1.594050050E0,3.949950218E0,9.648000717E0,1.054642215E1
6.876613100E-2,-1.474050045E0,3.906000137E0,9.745950699E0,1.060250987E1
7.126467000E-2,-1.371000051E0,3.910950184E0,9.793950081E0,1.063468997E1
7.376366800E-2,-1.299000025E0,3.889950275E0,9.841950417E0,1.066222783E1
7.626221800E-2,-1.219950080E0,3.856050253E0,9.873000145E0,1.066927990E1
7.876098500E-2,-1.174950004E0,3.859050274E0,9.865950584E0,1.065878780E1
8.125968000E-2,-1.195950031E0,3.862950087E0,9.823050499E0,1.062285277E1
8.375844700E-2,-1.189050078E0,3.856050253E0,9.808950424E0,1.060652969E1
8.625721600E-2,-1.155000091E0,3.895050287E0,9.732000351E0,1.054596002E1
8.875577100E-2,-1.153050065E0,3.942000151E0,9.643050194E0,1.048128364E1
9.125453800E-2,-1.138950109E0,4.014000416E0,9.495000839E0,1.037132815E1
9.375330700E-2,-1.114950061E0,4.078950405E0,9.327000618E0,1.024079541E1
9.625200200E-2,-1.143000007E0,4.135950089E0,9.136050224E0,1.009355962E1
9.875076900E-2,-1.207950115E0,4.157999992E0,8.968050003E0,9.958615781E0
1.012495380E-1,-1.312950015E0,4.177050114E0,8.755050659E0,9.788896641E0
1.037480780E-1,-1.467000127E0,4.194000244E0,8.568000793E0,9.651547286E0
1.062468460E-1,-1.669950128E0,4.155000210E0,8.422050476E0,9.538537330E0
1.087455400E-1,-1.813950062E0,4.147950172E0,8.274000168E0,9.431595000E0
1.112443070E-1,-1.917000055E0,4.165050030E0,8.134950638E0,9.338091499E0
1.137430760E-1,-1.977000117E0,4.179000378E0,8.008049965E0,9.246698755E0
1.162416170E-1,-2.005050182E0,4.215000153E0,7.920000553E0,9.193087690E0
1.187403840E-1,-2.047950029E0,4.273050308E0,7.833000183E0,9.154722832E0
1.212391530E-1,-2.086950064E0,4.309050083E0,7.744950294E0,9.105357118E0
1.237378480E-1,-2.146950006E0,4.357050419E0,7.728000164E0,9.127719826E0
1.262363950E-1,-2.213999987E0,4.438050270E0,7.692000389E0,9.152319713E0
1.287351620E-1,-2.206050158E0,4.516950130E0,7.636950493E0,9.142893886E0
1.312339320E-1,-2.154000044E0,4.573950291E0,7.611000538E0,9.137180453E0
1.337327010E-1,-2.071950197E0,4.620000362E0,7.618050575E0,9.147244150E0
1.362313950E-1,-2.131950140E0,4.656000137E0,7.567950249E0,9.137692249E0
1.387301720E-1,-2.250000000E0,4.672950268E0,7.594050407E0,9.196116887E0
1.412289420E-1,-2.233050108E0,4.696950436E0,7.588950157E0,9.200001123E0
1.437274820E-1,-2.130000114E0,4.701000214E0,7.606050491E0,9.191752149E0
1.462262490E-1,-2.014950037E0,4.665000439E0,7.666050434E0,9.197313847E0
1.487250190E-1,-1.914000034E0,4.606050014E0,7.711050510E0,9.183648123E0
1.512237180E-1,-1.828050137E0,4.519050121E0,7.750050545E0,9.155701215E0
1.537224850E-1,-1.717950106E0,4.427999973E0,7.741950512E0,9.082749257E0
1.562210260E-1,-1.584000111E0,4.330049992E0,7.705950260E0,8.979980996E0
1.587197930E-1,-1.450050116E0,4.230000019E0,7.690050602E0,8.895640717E0
1.612185620E-1,-1.297050118E0,4.090950012E0,7.720950603E0,8.833532093E0
1.637172600E-1,-1.135950089E0,3.964050293E0,7.714050293E0,8.747036598E0
1.662160280E-1,-9.499500394E-1,3.817950249E0,7.644000530E0,8.597086325E0
1.687147970E-1,-7.939500213E-1,3.721950293E0,7.632000446E0,8.528229677E0
1.712133370E-1,-6.169500351E-1,3.649950266E0,7.624950409E0,8.476003364E0
1.737121050E-1,-5.020500422E-1,3.552000284E0,7.668000221E0,8.465635691E0
1.762108690E-1,-4.870500267E-1,3.459000111E0,7.750050545E0,8.500893067E0
1.787095630E-1,-5.040000081E-1,3.397050142E0,7.804950237E0,8.527087069E0
1.812083300E-1,-5.160000324E-1,3.355950117E0,7.873950481E0,8.574832558E0
1.837068710E-1,-5.230500102E-1,3.361050129E0,7.954950333E0,8.651674640E0
1.862056340E-1,-5.470499992E-1,3.376950264E0,8.058000565E0,8.754109314E0
1.887044030E-1,-5.929500461E-1,3.397050142E0,8.166000366E0,8.864259778E0
1.912030980E-1,-6.720000505E-1,3.436950207E0,8.302950859E0,9.011282026E0
1.937018650E-1,-7.099500299E-1,3.451950073E0,8.439000130E0,9.145310905E0
1.962006340E-1,-7.840500474E-1,3.483000278E0,8.667000771E0,9.373522698E0
1.986991750E-1,-8.680500388E-1,3.538050175E0,8.872050285E0,9.590859512E0
2.011978650E-1,-8.970000148E-1,3.622050285E0,9.025950432E0,9.766864312E0
2.036966340E-1,-8.490000367E-1,3.748050213E0,9.133049965E0,9.908646887E0
2.061954030E-1,-7.990500331E-1,3.865950108E0,9.226950645E0,1.003596878E1
2.086941730E-1,-7.699500322E-1,3.985950232E0,9.298950195E0,1.014648200E1
2.111926890E-1,-8.230500221E-1,4.048050404E0,9.358050346E0,1.022923407E1
2.136914560E-1,-9.180000424E-1,4.102950096E0,9.367950439E0,1.026817506E1
2.161902260E-1,-9.880500436E-1,4.108050346E0,9.366000175E0,1.027493454E1
2.186889200E-1,-1.036050081E0,4.138950348E0,9.373050690E0,1.029846537E1
2.211876870E-1,-1.072050095E0,4.144050121E0,9.334950447E0,1.026955416E1
2.236864510E-1,-1.072050095E0,4.144050121E0,9.313050270E0,1.024965112E1
2.261849920E-1,-1.087950110E0,4.159950256E0,9.258000374E0,1.020781037E1
2.286837590E-1,-1.135950089E0,4.153050423E0,9.184050560E0,1.014322410E1
2.311824530E-1,-1.150950074E0,4.162950039E0,9.136050224E0,1.010555554E1
2.336812350E-1,-1.167000055E0,4.206000328E0,9.078000069E0,1.007285526E1
2.361797750E-1,-1.191000104E0,4.263000011E0,8.995050430E0,1.002509763E1
2.386785420E-1,-1.198950052E0,4.342050076E0,8.920050621E0,9.992906643E0
2.411773120E-1,-1.198950052E0,4.399950027E0,8.869950294E0,9.973618185E0
2.436760810E-1,-1.219950080E0,4.444950104E0,8.758049965E0,9.896933809E0
2.461747700E-1,-1.246050000E0,4.498050213E0,8.619000435E0,9.801646026E0
2.486735370E-1,-1.285050035E0,4.546050072E0,8.563950539E0,9.780550786E0
2.511720780E-1,-1.315950036E0,4.606050014E0,8.473050117E0,9.733447464E0
2.536708450E-1,-1.321050048E0,4.632000446E0,8.295000076E0,9.592060656E0
2.561696140E-1,-1.291950107E0,4.620000362E0,8.130000114E0,9.439832641E0
2.586683090E-1,-1.234050035E0,4.645950317E0,7.981950283E0,9.317685558E0
2.611670760E-1,-1.246050000E0,4.630050182E0,7.809000492E0,9.163541563E0
2.636658450E-1,-1.300950050E0,4.608000278E0,7.648950577E0,9.024000362E0
2.661643860E-1,-1.348950028E0,4.564949989E0,7.591950417E0,8.960811666E0
2.686631530E-1,-1.380000114E0,4.552950382E0,7.522050381E0,8.900280862E0
2.711619220E-1,-1.414050102E0,4.536000252E0,7.504950523E0,8.882517567E0
2.736606160E-1,-1.452000022E0,4.504950047E0,7.467000484E0,8.840756485E0
2.761593840E-1,-1.443000078E0,4.459950447E0,7.447950363E0,8.800305212E0
2.786579240E-1,-1.440000057E0,4.438050270E0,7.513050556E0,8.843970772E0
2.811567010E-1,-1.419000030E0,4.357050419E0,7.501050472E0,8.789949239E0
2.836554700E-1,-1.387950063E0,4.297049999E0,7.510050297E0,8.763098740E0
2.861541650E-1,-1.324950099E0,4.237050056E0,7.467000484E0,8.687012270E0
2.886529320E-1,-1.201050043E0,4.186950207E0,7.311000347E0,8.510217348E0
2.911517010E-1,-1.102950096E0,4.108050346E0,7.326000214E0,8.471295987E0
2.936502420E-1,-9.469500184E-1,4.096050262E0,7.474050522E0,8.575300187E0
2.961490090E-1,-7.699500322E-1,4.048050404E0,7.684950352E0,8.719976894E0
2.986477030E-1,-4.800000191E-1,4.024050236E0,7.735050201E0,8.732375504E0
3.011464710E-1,-7.095000148E-2,4.072050095E0,7.774050236E0,8.776245378E0
3.036450110E-1,3.829500079E-1,4.218000412E0,8.005949974E0,9.057229884E0
3.061437730E-1,5.479500294E-1,4.242000103E0,9.331950188E0,1.026548140E1
3.086425420E-1,6.820500493E-1,4.237050056E0,1.000695038E1,1.088838102E1
3.111413120E-1,1.329000115E0,4.563000202E0,9.688950539E0,1.079180127E1
3.136400060E-1,1.681050062E0,4.597949982E0,9.496950150E0,1.068452786E1
3.161387730E-1,1.744950056E0,4.576950073E0,9.385050774E0,1.058643003E1
3.186373040E-1,1.590000033E0,4.467000008E0,9.306000710E0,1.044432087E1
3.211360710E-1,1.507950068E0,4.390050411E0,9.136050224E0,1.024762752E1
3.236347650E-1,1.438950062E0,4.287000179E0,8.923050880E0,1.000348863E1
3.261335330E-1,1.396050096E0,4.251000404E0,8.679000854E0,9.764477259E0
3.286323070E-1,1.285950065E0,4.183950424E0,8.381999969E0,9.456057964E0
3.311308470E-1,1.266000032E0,4.132050037E0,8.110950470E0,9.190435850E0
3.336296140E-1,1.422000051E0,4.060050011E0,7.765950203E0,8.877841674E0
3.361283840E-1,1.390950084E0,3.954000235E0,7.467000484E0,8.562999254E0
3.386271530E-1,1.570950031E0,3.918000221E0,7.261050224E0,8.398896362E0
3.411258330E-1,1.623000026E0,3.808050156E0,6.982950211E0,8.117694791E0
3.436246000E-1,1.776000142E0,3.760050297E0,6.811050415E0,7.980135494E0
3.461231410E-1,1.810050130E0,3.673950195E0,6.505050182E0,7.686993521E0
3.486219080E-1,1.792950034E0,3.538050175E0,6.210000515E0,7.368620988E0
3.511206030E-1,1.417050123E0,3.265050173E0,5.932050228E0,6.917933477E0
3.536193710E-1,1.294950008E0,3.078000069E0,5.640000343E0,6.554432380E0
3.561181400E-1,1.068000078E0,2.578050137E0,5.041950226E0,5.762658133E0
3.586169090E-1,1.175999999E0,2.590050220E0,4.833000183E0,5.607961030E0
3.611154500E-1,9.340500236E-1,2.130000114E0,4.707000256E0,5.250257264E0
3.636142120E-1,1.063050032E0,1.705950022E0,4.291950226E0,4.739322482E0
3.661129060E-1,1.041000009E0,1.072050095E0,3.861000299E0,4.140084025E0
3.686116730E-1,1.221000075E0,9.040500522E-1,3.454050064E0,3.773408211E0
3.711102140E-1,1.209000111E0,5.670000315E-1,3.181050062E0,3.449963739E0
3.736089810E-1,1.164000034E0,4.009500146E-1,2.983050108E0,3.227110928E0
3.761077640E-1,1.008000016E0,-4.305000231E-2,2.604000092E0,2.792621316E0
3.786064590E-1,1.006049991E0,-3.105000220E-2,2.365050077E0,2.570323434E0
3.811052260E-1,1.243050098E0,-3.795000166E-2,2.157000065E0,2.489831928E0
3.836039950E-1,1.558950067E0,-1.170000061E-1,2.275950193E0,2.761152584E0
3.861027640E-1,2.152050018E0,-1.549500078E-1,2.430000067E0,3.249650614E0
3.886013050E-1,2.734050035E0,-4.500000179E-1,2.341050148E0,3.627402019E0
3.911000720E-1,2.803950071E0,-5.220000148E-1,2.350950003E0,3.696158267E0
3.935987660E-1,2.964000225E0,-6.030000448E-1,2.218950033E0,3.751352508E0
3.960975340E-1,2.878050089E0,-5.100000501E-1,2.128050089E0,3.615504051E0
3.985960830E-1,2.854050159E0,-5.860500336E-1,1.843050122E0,3.447592016E0
4.010948500E-1,2.602050066E0,-7.110000253E-1,1.242000103E0,2.969637998E0
4.035936200E-1,2.137950182E0,-8.760000467E-1,8.590500355E-1,2.464989660E0
4.060923140E-1,1.537050128E0,-1.075049996E0,1.294950008E0,2.279287414E0
4.085910810E-1,1.003050089E0,-1.276050091E0,2.748000145E0,3.191538518E0
4.110898410E-1,4.999500215E-1,-1.663950086E0,6.469050407E0,6.698305240E0
4.135883820E-1,8.100000024E-2,-1.920000076E0,1.041405010E1,1.058987256E1
4.160871490E-1,8.895000070E-2,-1.858050108E0,1.140300083E1,1.155373058E1
4.185858430E-1,3.330000043E-1,-1.831050038E0,1.147005081E1,1.162005589E1
4.210846880E-1,9.120000601E-1,-1.470000029E0,1.179105091E1,1.191727846E1
4.235833720E-1,2.241000175E0,-1.258950114E0,1.197300053E1,1.224580658E1
4.260819100E-1,3.445050240E0,-1.024950027E0,1.207605076E1,1.259959903E1
4.285806780E-1,4.116000175E0,-9.430500269E-1,1.266000080E1,1.334565177E1
4.310794470E-1,5.710050106E0,-4.240500331E-1,1.273905087E1,1.396667131E1
4.335782120E-1,6.991050243E0,-1.080000028E-1,1.250400066E1,1.432607693E1
4.360769060E-1,7.699950218E0,1.840500087E-1,1.276305103E1,1.490699767E1
4.385754450E-1,7.575000286E0,1.159500033E-1,1.318395042E1,1.520561155E1
4.410744430E-1,7.300050259E0,1.909500062E-1,1.425900078E1,1.602018411E1
4.435729830E-1,7.317000389E0,3.250500262E-1,1.480005074E1,1.651319636E1
4.460716740E-1,7.210950375E0,3.630000055E-1,1.545195103E1,1.705556698E1
4.485704430E-1,6.907050133E0,3.439500034E-1,1.619595146E1,1.761063562E1
4.510692120E-1,6.498000145E0,3.649500310E-1,1.706805038E1,1.826678785E1
4.535677530E-1,6.012000084E0,4.999500215E-1,1.767794991E1,1.867897235E1
4.560665200E-1,5.563950062E0,6.379500031E-1,1.811205101E1,1.895813578E1
4.585652980E-1,5.262000084E0,7.720500231E-1,1.844895172E1,1.920022202E1
4.610640670E-1,5.041950226E0,8.539500237E-1,1.874895096E1,1.943382759E1
4.635627620E-1,4.968000412E0,9.019500613E-1,1.911000061E1,1.976579534E1
4.660613000E-1,5.563950062E0,6.720000505E-1,1.922294998E1,2.002325973E1
4.685602840E-1,5.200050354E0,3.649500310E-1,1.948095131E1,2.016633770E1
4.710588250E-1,5.097000122E0,2.295000106E-2,1.943295097E1,2.009028423E1
4.735575150E-1,5.037000179E0,-3.019500077E-1,1.929900169E1,1.994778211E1
4.760562840E-1,4.980000019E0,-6.079500318E-1,1.911000061E1,1.975758403E1
4.785550530E-1,5.041950226E0,-8.590500355E-1,1.879605103E1,1.947949597E1
4.810538230E-1,5.107050419E0,-1.024950027E0,1.842495155E1,1.914709707E1
4.835523630E-1,5.176050186E0,-1.116000056E0,1.800405121E1,1.876653435E1
4.860510530E-1,5.158950329E0,-1.128000021E0,1.761600113E1,1.839050430E1
4.885499000E-1,5.289000034E0,-1.000950098E0,1.721100044E1,1.803313502E1
4.910486130E-1,5.410950184E0,-8.640000224E-1,1.666800117E1,1.754557326E1
4.935471510E-1,5.542950153E0,-3.640500307E-1,1.596195030E1,1.690090785E1
4.960459190E-1,5.590050220E0,3.010500073E-1,1.502805042E1,1.603688224E1
4.985446880E-1,5.788950443E0,1.246950030E0,1.389105034E1,1.510059969E1
5.010433910E-1,5.740950108E0,2.262000084E0,1.261005020E1,1.403882184E1
5.035421580E-1,5.701050282E0,3.207000256E0,1.136700058E1,1.311470652E1
5.060409280E-1,5.824950218E0,4.096050262E0,9.873000145E0,1.217307704E1
5.085396970E-1,5.671950340E0,4.689000130E0,8.713950157E0,1.140572971E1
5.110382420E-1,5.236050129E0,4.837950230E0,7.969950199E0,1.069308606E1
5.135370090E-1,4.618050098E0,4.563000202E0,7.572000504E0,9.974093903E0
5.160357790E-1,3.985950232E0,3.874950171E0,7.407000542E0,9.261030995E0
5.185344730E-1,3.297000170E0,2.997000217E0,7.591950417E0,8.802836563E0
5.210330120E-1,2.751000166E0,2.092050076E0,7.951050282E0,8.669710261E0
5.235317990E-1,2.305950165E0,1.227000117E0,8.587950706E0,8.976404224E0
5.260305680E-1,1.939050078E0,4.849500358E-1,9.210000038E0,9.424393479E0
5.285292620E-1,1.563000083E0,-1.240500063E-1,9.691050529E0,9.817067690E0
5.310280300E-1,1.173000097E0,-5.839500427E-1,9.981000900E0,1.006664323E1
5.335268030E-1,7.609500289E-1,-9.190500379E-1,1.009095001E1,1.016124845E1
5.360255720E-1,3.570000231E-1,-1.173000097E0,1.016100025E1,1.023471076E1
5.385241120E-1,-5.895000324E-2,-1.381050110E0,1.018905067E1,1.028238922E1
5.410228800E-1,-3.010500073E-1,-1.587000132E0,1.000695038E1,1.013648146E1
5.435215840E-1,-4.729500115E-1,-1.839000106E0,9.672000885E0,9.856632499E0
5.460203510E-1,-6.960000396E-1,-2.179050207E0,9.211950302E0,9.491717665E0
5.485188920E-1,-1.098000050E0,-2.605050087E0,8.607000351E0,9.059378848E0
5.510176590E-1,-1.500000119E0,-3.097950220E0,7.915050507E0,8.631067167E0
5.535164280E-1,-1.785000086E0,-3.511950254E0,7.198950291E0,8.206394165E0
5.560151130E-1,-2.242050171E0,-3.934050083E0,6.696000099E0,8.083313451E0
5.585138800E-1,-2.874000072E0,-4.341000080E0,6.382050514E0,8.236184000E0
5.610126490E-1,-3.552000284E0,-4.731000423E0,5.986950397E0,8.416807357E0
5.635111890E-1,-4.170000076E0,-5.157000065E0,5.427000046E0,8.569473718E0
5.660099570E-1,-4.828050137E0,-5.724000454E0,4.642050266E0,8.810384781E0
5.685086510E-1,-5.329050064E0,-6.258000374E0,3.804000139E0,9.057138639E0
5.710074180E-1,-5.712000370E0,-6.748950481E0,2.937000036E0,9.316718845E0
5.735061870E-1,-6.121050358E0,-7.314000130E0,2.077950001E0,9.761133724E0
5.760047280E-1,-6.379950523E0,-7.740000248E0,1.390950084E0,1.012650555E1
5.785034850E-1,-6.652950287E0,-8.182950020E0,7.939500213E-1,1.057604724E1
5.810022540E-1,-6.946950436E0,-8.643000603E0,2.290500104E-1,1.109116963E1
5.835009490E-1,-7.210050106E0,-8.980050087E0,-2.295000106E-2,1.151636439E1
5.859997160E-1,-7.339950562E0,-9.364050865E0,-3.130500019E-1,1.190203021E1
5.884984950E-1,-7.323000431E0,-9.747000694E0,-8.040000200E-1,1.221788746E1
5.909972640E-1,-7.177050114E0,-1.013400078E1,-1.435950041E0,1.250079888E1
5.934958050E-1,-6.909000397E0,-1.047405052E1,-2.061000109E0,1.271564950E1
5.959945720E-1,-6.541950226E0,-1.080195045E1,-2.755050182E0,1.292553859E1
5.984932660E-1,-6.118950367E0,-1.109205055E1,-3.481050253E0,1.313745980E1
6.009920100E-1,-5.665950298E0,-1.131000042E1,-4.230000019E0,1.333836581E1
6.034905500E-1,-5.143950462E0,-1.144695091E1,-4.953000069E0,1.349166859E1
6.059893170E-1,-4.558050156E0,-1.149000072E1,-5.638050079E0,1.358615275E1
6.084880870E-1,-3.837000132E0,-1.134405041E1,-6.235950470E0,1.350174537E1
6.109867810E-1,-2.901000023E0,-1.115895081E1,-6.751050472E0,1.336093809E1
6.134855570E-1,-1.773000121E0,-1.081200027E1,-7.158000469E0,1.308739279E1
6.159840980E-1,9.960000515E-1,-9.663000107E0,-6.756000519E0,1.183254538E1
6.184828650E-1,1.870050073E0,-1.015800095E1,-6.892050266E0,1.241702168E1
6.209816340E-1,1.282950044E0,-1.021095085E1,-6.751050472E0,1.230797142E1
6.234803280E-1,1.647000074E0,-1.012005043E1,-7.498050213E0,1.270231424E1
6.259790960E-1,2.143050194E0,-1.014195061E1,-7.942950249E0,1.305918393E1
6.284778650E-1,2.703000069E0,-1.032795048E1,-8.077050209E0,1.338699035E1
6.309764050E-1,2.904000044E0,-1.059195042E1,-8.262000084E0,1.374348119E1
6.334751730E-1,3.232050180E0,-1.075695038E1,-8.439000130E0,1.404901609E1
6.359739330E-1,3.682050228E0,-1.085295010E1,-8.500950813E0,1.426920406E1
6.384726270E-1,4.087049961E0,-1.101300049E1,-8.463000298E0,1.447800163E1
6.409713940E-1,4.501049995E0,-1.124295044E1,-8.233050346E0,1.464399207E1
6.434699350E-1,4.735949993E0,-1.156605053E1,-7.555950165E0,1.460462701E1
6.459687020E-1,4.696950436E0,-1.182195091E1,-6.769950390E0,1.441013862E1
6.484674800E-1,4.635000229E0,-1.197105026E1,-5.889000416E0,1.412337061E1
6.509661750E-1,4.647000313E0,-1.198005104E1,-4.933950424E0,1.376445065E1
6.534649420E-1,4.696950436E0,-1.192095089E1,-4.089000225E0,1.344954781E1
6.559637110E-1,4.831050396E0,-1.186095047E1,-3.334950209E0,1.323416363E1
6.584622520E-1,5.112000465E0,-1.185105038E1,-2.454000235E0,1.313781036E1
6.609610190E-1,5.635950089E0,-1.187295055E1,-1.576950073E0,1.323698077E1
6.634597880E-1,6.448050499E0,-1.191105080E1,-5.860500336E-1,1.355706240E1
6.659584820E-1,7.762050152E0,-1.188900089E1,3.829500079E-1,1.420367613E1
6.684572500E-1,9.391950607E0,-1.180605030E1,1.375950098E0,1.514875568E1
6.709557760E-1,1.108305073E1,-1.161900043E1,2.485050201E0,1.624840482E1
6.734545430E-1,1.274400043E1,-1.134105015E1,3.736950159E0,1.746407060E1
6.759533130E-1,1.426005077E1,-1.091700077E1,5.062950134E0,1.865913765E1
6.784520070E-1,1.571295071E1,-1.041195011E1,6.361050129E0,1.989393083E1
6.809507740E-1,1.702995110E1,-9.802050591E0,7.539000511E0,2.104604378E1
6.834493000E-1,1.825095177E1,-9.189000130E0,8.611050606E0,2.217397475E1
6.859480670E-1,1.935000038E1,-8.523000717E0,9.508950233E0,2.318370528E1
6.884468360E-1,2.030805016E1,-7.888950348E0,1.026105022E1,2.408197646E1
6.909455300E-1,2.108805084E1,-7.339950562E0,1.076400089E1,2.478799060E1
6.934443030E-1,2.170305061E1,-6.900000095E0,1.110405064E1,2.533638387E1
6.959430720E-1,2.226600075E1,-6.555000305E0,1.131705093E1,2.582282828E1
6.984416120E-1,2.280495071E1,-6.169950485E0,1.137705040E1,2.622158160E1
7.009403800E-1,2.331000137E1,-5.772000313E0,1.117095089E1,2.648513348E1
7.034391490E-1,2.383905029E1,-5.320050240E0,1.077600098E1,2.669691837E1
7.059378380E-1,2.422200203E1,-4.795050144E0,1.033095074E1,2.676614338E1
7.084366050E-1,2.453295135E1,-4.281000137E0,9.823050499E0,2.677097282E1
7.109353750E-1,2.479200172E1,-3.784950256E0,9.331950188E0,2.675919454E1
7.134339150E-1,2.500995064E1,-3.333000183E0,8.723999977E0,2.669671697E1
7.159326820E-1,2.522805214E1,-2.866050243E0,8.233050346E0,2.669179606E1
7.184313730E-1,2.546205139E1,-2.413050175E0,7.684950352E0,2.670575470E1
7.209301400E-1,2.582895088E1,-1.924950123E0,7.125000477E0,2.686272079E1
7.234289090E-1,2.639805031E1,-1.365000010E0,6.567000389E0,2.723684599E1
7.259274500E-1,2.716500092E1,-7.440000176E-1,6.052050114E0,2.784094326E1
7.284262070E-1,2.809395218E1,-1.150500029E-1,5.479950428E0,2.862364830E1
7.309249760E-1,2.898195076E1,5.089499950E-1,4.869000435E0,2.939251036E1
7.334236700E-1,2.980095100E1,1.089000106E0,4.138950348E0,3.010670211E1
7.359224380E-1,3.048495102E1,1.716000080E0,3.375000238E0,3.071917189E1
7.384209730E-1,3.118695068E1,2.326050043E0,2.652000189E0,3.138581697E1
7.409197400E-1,3.186195183E1,2.922000170E0,1.888950109E0,3.205136802E1
7.434185100E-1,3.252795029E1,3.504000187E0,9.859500527E-1,3.273098936E1
7.459172040E-1,3.316695023E1,4.065000057E0,3.795000166E-2,3.341515005E1
7.484159710E-1,3.370800018E1,4.588950157E0,-8.590500355E-1,3.402977677E1
7.509147350E-1,3.415800095E1,5.094000340E0,-1.723050117E0,3.457870399E1
7.534132760E-1,3.439694977E1,5.578050137E0,-2.506050110E0,3.493630037E1
7.559120430E-1,3.438105011E1,5.934000492E0,-3.244050264E0,3.503987487E1
7.584108120E-1,3.406200027E1,6.178950310E0,-3.853950262E0,3.483177030E1
7.609095270E-1,3.329595184E1,6.258000374E0,-4.393050194E0,3.416257994E1
7.634082940E-1,3.252000046E1,6.246000290E0,-4.872000217E0,3.347087294E1
7.659068340E-1,3.183300209E1,6.169050217E0,-5.293050289E0,3.285443020E1
7.684056010E-1,3.110295105E1,6.094950199E0,-5.458050251E0,3.216103690E1
7.709043610E-1,3.045900154E1,5.713950157E0,-6.076050282E0,3.158034813E1
7.734030550E-1,2.977905083E1,5.547000408E0,-6.418050289E0,3.096372799E1
7.759018220E-1,2.875395203E1,5.452950478E0,-6.040050507E0,2.988321663E1
7.784005920E-1,2.762895203E1,5.311950207E0,-5.560950279E0,2.867926033E1
7.808991320E-1,2.660895157E1,5.194950104E0,-5.073000431E0,2.758186258E1
7.833979080E-1,2.563695145E1,5.110950470E0,-4.471950054E0,2.652118835E1
7.858966030E-1,2.484195137E1,5.056050301E0,-3.772950172E0,2.563047689E1
7.883953700E-1,2.428695107E1,5.017050266E0,-3.229050159E0,2.500906936E1
7.908939100E-1,2.397795105E1,4.984050274E0,-2.887050152E0,2.466004769E1
7.933926490E-1,2.389395142E1,4.977000237E0,-2.875050068E0,2.457554391E1
7.958914190E-1,2.378400040E1,4.938000202E0,-3.162000179E0,2.449613778E1
7.983901880E-1,2.363295174E1,4.891050339E0,-3.691050291E0,2.441439398E1
8.008888820E-1,2.335500145E1,4.812000275E0,-4.254000187E0,2.422205518E1
8.033876490E-1,2.297205162E1,4.687050343E0,-4.893000126E0,2.395047070E1
8.058861990E-1,2.227305031E1,4.399950027E0,-6.190950394E0,2.353244987E1
8.083849660E-1,2.137995148E1,4.038000107E0,-7.636950493E0,2.305928843E1
8.108837350E-1,2.061405182E1,3.805950165E0,-8.407950401E0,2.258579241E1
8.133824300E-1,2.001795006E1,3.679050207E0,-8.949000359E0,2.223372084E1
8.158811970E-1,1.947405052E1,3.540000200E0,-9.054000854E0,2.176568806E1
8.183797320E-1,1.892895126E1,3.463950157E0,-9.138000488E0,2.130275099E1
8.208785000E-1,1.829400063E1,3.258000135E0,-9.057000160E0,2.067158135E1
8.233772690E-1,1.761404991E1,2.914950132E0,-8.914950371E0,1.995565155E1
8.258760380E-1,1.689105034E1,2.530050039E0,-8.470050812E0,1.906437766E1
8.283747320E-1,1.566000080E1,1.858950138E0,-9.070950508E0,1.819267610E1
8.308734860E-1,1.416900063E1,1.102950096E0,-9.765000343E0,1.724332652E1
8.333720260E-1,1.287405014E1,6.100500226E-1,-9.837000847E0,1.621357190E1
8.358707930E-1,1.169595051E1,1.549500078E-1,-1.001400089E1,1.539803499E1
8.383694880E-1,1.080000019E1,-1.429500133E-1,-9.820050240E0,1.459773358E1
8.408682550E-1,1.012995052E1,-3.450000286E-1,-9.421050072E0,1.383803119E1
8.433670240E-1,9.558000565E0,-4.480500221E-1,-8.776950836E0,1.298425930E1
8.458657930E-1,9.055050850E0,-7.159500122E-1,-8.796000481E0,1.264421428E1
8.483643340E-1,8.554050446E0,-1.120050073E0,-8.737950325E0,1.227917208E1
8.508631010E-1,7.954050541E0,-1.441050053E0,-8.104050636E0,1.144636108E1
8.533617950E-1,7.420050144E0,-1.774050117E0,-7.465050220E0,1.067386400E1
8.558605770E-1,7.237950325E0,-2.068050146E0,-6.792000294E0,1.013883742E1
8.583591170E-1,7.507950306E0,-2.065950155E0,-6.247950077E0,9.983704123E0
8.608578840E-1,8.338950157E0,-2.125950098E0,-6.186000347E0,1.059831844E1
8.633566540E-1,8.053950310E0,-2.059050083E0,-5.026950359E0,9.714732768E0
8.658553480E-1,7.587000370E0,-1.939050078E0,-3.876000166E0,8.737612209E0
8.683541010E-1,7.281000137E0,-1.491000056E0,-2.953950167E0,7.997616255E0
8.708528700E-1,6.828000546E0,-9.019500613E-1,-2.047049999E0,7.185090052E0
8.733516400E-1,5.926050186E0,-6.439500451E-1,-1.042950034E0,6.051486366E0
8.758501800E-1,5.763000488E0,-7.680000067E-1,-6.480000019E-1,5.849948943E0
8.783489470E-1,6.370950222E0,-1.045950055E0,-6.630000472E-1,6.490191624E0
8.808476320E-1,6.898050308E0,-1.330950022E0,-5.209500194E-1,7.044566341E0
8.833463990E-1,7.096050262E0,-1.498950124E0,1.650000066E-1,7.254516235E0
8.858449390E-1,7.306950569E0,-1.597050071E0,5.689499974E-1,7.501053236E0
8.883437070E-1,7.366950512E0,-1.669050097E0,8.110500574E-1,7.597071164E0
8.908424710E-1,7.515000343E0,-1.599000096E0,1.137000084E0,7.766904188E0
8.933411650E-1,7.882050514E0,-1.393050075E0,1.218000054E0,8.096346889E0
8.958399320E-1,8.016000748E0,-1.254000068E0,1.129950047E0,8.191799025E0
8.983387020E-1,7.743000507E0,-1.354950070E0,1.663950086E0,8.034841407E0
9.008372420E-1,6.730050087E0,-1.567950130E0,2.226000071E0,7.259966811E0
9.033359950E-1,4.956000328E0,-2.446950197E0,1.837950110E0,5.824737344E0
9.058346900E-1,4.294950008E0,-2.899050236E0,1.636950135E0,5.434215085E0
9.083335340E-1,4.318950176E0,-2.746050119E0,2.106000185E0,5.534379700E0
9.108322280E-1,4.822050095E0,-2.869950056E0,2.542050123E0,6.160422004E0
9.133307670E-1,4.660950184E0,-3.117000103E0,3.672000170E0,6.702516804E0
9.158295340E-1,2.977950096E0,-3.898050070E0,3.610050201E0,6.090602891E0
9.183283030E-1,9.049500227E-1,-4.891050339E0,2.302950144E0,5.481321677E0
9.208269970E-1,-2.260500044E-1,-5.533050060E0,1.065000057E0,5.639145919E0
9.233257650E-1,-6.240000129E-1,-5.872950077E0,4.950000346E-1,5.926714407E0
9.258245480E-1,-1.051950097E0,-6.106950283E0,-3.709500134E-1,6.207982336E0
9.283233170E-1,-8.539500237E-1,-5.917950153E0,-6.910500526E-1,6.019046007E0
9.308218580E-1,-1.069050074E0,-5.695950508E0,-2.599500120E-1,5.801232133E0
9.333205480E-1,-1.705950022E0,-5.653050423E0,-1.260000020E-1,5.906193407E0
9.358193220E-1,-2.022000074E0,-5.467950344E0,-5.190000534E-1,5.852890425E0
9.383180910E-1,-2.233050108E0,-5.674050331E0,-1.884000063E0,6.382069898E0
9.408166320E-1,-3.049050093E0,-6.181950092E0,-2.037000179E0,7.187668825E0
9.433153990E-1,-3.660000086E0,-6.340050220E0,-2.887050152E0,7.869364397E0
9.458141680E-1,-3.079950094E0,-6.466950417E0,-4.138950348E0,8.272753487E0
9.483128580E-1,-3.031950235E0,-6.049950123E0,-5.626050472E0,8.800401277E0
9.508116250E-1,-4.081050396E0,-6.378000259E0,-5.614050388E0,9.426103193E0
9.533101650E-1,-5.026950359E0,-6.928950310E0,-4.957950115E0,9.892514931E0
9.558089330E-1,-3.768000126E0,-7.683000565E0,-4.852950096E0,9.837552910E0
9.583077120E-1,-2.695050240E0,-8.901000023E0,-3.921000242E0,1.009283608E1
9.608064060E-1,-1.893000126E0,-9.270000458E0,-2.865000248E0,9.885574560E0
9.633051730E-1,3.229500055E-1,-9.724950790E0,-2.248050213E0,9.986625774E0
9.658039430E-1,2.653050184E0,-9.700950623E0,-4.999500215E-1,1.006961113E1
9.683024830E-1,2.218950033E0,-9.040050507E0,-3.660000265E-1,9.315589537E0
9.708012590E-1,2.373000145E0,-8.202000618E0,-1.596000075E0,8.686262721E0
9.732999540E-1,2.386950016E0,-7.039050102E0,-4.264050007E0,8.569006896E0
9.757987210E-1,2.980950117E0,-6.093000412E0,-5.509050369E0,8.738441142E0
9.782974900E-1,3.766050100E0,-5.641050339E0,-5.446050167E0,8.698508188E0
9.807960310E-1,4.642050266E0,-5.284050465E0,-5.647050381E0,9.019922283E0
9.832948180E-1,6.211050510E0,-4.921950340E0,-6.576000214E0,1.029788922E1
9.857935870E-1,7.975050449E0,-4.599000454E0,-7.345050335E0,1.177718130E1
9.882922810E-1,9.201000214E0,-4.177950382E0,-7.471950531E0,1.256756616E1
9.907910490E-1,1.055400085E1,-4.386000156E0,-7.207950115E0,1.351216031E1
9.932898180E-1,1.167195034E1,-4.381050110E0,-6.832950115E0,1.421679402E1
9.957883380E-1,1.304595089E1,-4.381050110E0,-6.073950291E0,1.504271607E1
9.982871060E-1,1.477005100E1,-4.525050163E0,-3.607950211E0,1.586341043E1
1.000785875E0,1.527000046E1,-4.489050388E0,-2.323950052E0,1.608493802E1
1.003284569E0,1.590195084E1,-4.441050053E0,-1.783050060E0,1.660645156E1
1.005783336E0,1.663005066E1,-4.708950043E0,-1.222950101E0,1.732710023E1
1.008281877E0,1.726905060E1,-4.948950291E0,-4.830000103E-1,1.797068464E1
1.010780644E0,1.814595032E1,-5.362950325E0,0.000000000E0,1.892185903E1
1.013279413E0,1.863405037E1,-5.593050480E0,6.360000372E-1,1.946572739E1
1.015778108E0,1.843995094E1,-6.036000252E0,1.704000115E0,1.947738961E1
1.018276875E0,1.504995060E1,-5.941950321E0,5.032050133E0,1.694489053E1
1.020775435E0,1.450605106E1,-6.610050201E0,6.306000233E0,1.714304291E1
1.023274202E0,1.523205090E1,-7.180050373E0,7.402050495E0,1.839453314E1
1.025772972E0,1.502100086E1,-7.972950459E0,6.256050110E0,1.812005985E1
1.028271666E0,1.427205086E1,-8.707950592E0,5.845950127E0,1.771143619E1
1.030770428E0,1.366800022E1,-9.139050484E0,5.439000130E0,1.731817531E1
1.033269198E0,1.329300022E1,-9.613050461E0,5.887050152E0,1.742905487E1
1.035767738E0,1.329000092E1,-1.006005001E1,7.381050587E0,1.822933455E1
1.038266505E0,1.385505104E1,-1.060095024E1,1.014900017E1,2.018278449E1
1.040765274E0,1.459005070E1,-1.088100052E1,1.231800079E1,2.197723584E1
1.043263945E0,1.601700020E1,-1.046700096E1,1.363200092E1,2.349327252E1
1.045762712E0,1.690800095E1,-1.027305031E1,1.345695019E1,2.392708856E1
1.048261481E0,1.716600037E1,-1.004100037E1,1.263105106E1,2.355921705E1
1.050760022E0,1.651800156E1,-9.643950462E0,1.102500057E1,2.207715547E1
1.053258789E0,1.518900108E1,-9.145950317E0,9.648000717E0,2.018509547E1
1.055757502E0,1.397700024E1,-8.638050079E0,8.937000275E0,1.870407492E1
1.058256269E0,1.301700020E1,-8.143050194E0,8.164050102E0,1.738974625E1
1.060755039E0,1.298400021E1,-7.531950474E0,7.446000576E0,1.675581881E1
1.063253579E0,1.172895050E1,-7.173000336E0,7.884000301E0,1.584858588E1
1.065752346E0,1.070400047E1,-6.667950153E0,7.435950279E0,1.464003217E1
1.068251100E0,9.916950226E0,-6.364050388E0,6.883050442E0,1.364637031E1
1.070749794E0,9.297000885E0,-6.117000103E0,6.150000095E0,1.271512552E1
1.073248561E0,9.004950523E0,-5.791050434E0,5.331000328E0,1.196014062E1
1.075747330E0,8.617050171E0,-5.554050446E0,4.623000145E0,1.124602865E1
1.078245871E0,8.727000237E0,-5.121000290E0,3.799050093E0,1.080823569E1
1.080744643E0,8.668950081E0,-4.525050163E0,2.956050158E0,1.021591929E1
1.083243337E0,8.371950150E0,-4.036050320E0,1.494000077E0,9.413356878E0
1.085742105E0,8.146950722E0,-3.754050255E0,6.510000229E-1,8.993859039E0
1.088240874E0,8.145000458E0,-3.523950100E0,1.980000138E-1,8.876849710E0
1.090739414E0,8.179050446E0,-3.390000105E0,3.319500089E-1,8.859975040E0
1.093238182E0,8.161950111E0,-3.415950060E0,7.489500642E-1,8.879587301E0
1.095736951E0,8.265000343E0,-3.571950197E0,8.280000687E-1,9.041827415E0
1.098235645E0,8.248050690E0,-3.808950186E0,1.089000106E0,9.150101799E0
1.100734412E0,8.193000793E0,-4.017000198E0,1.467000127E0,9.241950117E0
1.103232953E0,8.545050621E0,-4.048050404E0,1.704000115E0,9.607716616E0
1.105731720E0,8.884950638E0,-4.060050011E0,1.728000045E0,9.920299294E0
1.108230489E0,8.911050797E0,-4.041000366E0,1.786050081E0,9.946179425E0
1.110729184E0,8.695950508E0,-4.084050179E0,1.893000126E0,9.791959486E0
1.113227951E0,8.443950653E0,-4.168050289E0,1.801950097E0,9.587490287E0
1.115726706E0,8.344050407E0,-4.294950008E0,1.731000066E0,9.542857748E0
1.118225247E0,8.301000595E0,-4.624950409E0,1.411950111E0,9.606788240E0
1.120724014E0,8.176050186E0,-4.953000069E0,1.398000121E0,9.660973588E0
1.123222783E0,7.987050533E0,-5.302950382E0,1.297050118E0,9.674533476E0
1.125721467E0,7.876950264E0,-5.593050480E0,1.177050114E0,9.732112109E0
1.128220235E0,7.666050434E0,-5.772000313E0,9.859500527E-1,9.646575267E0
1.130719004E0,7.551000595E0,-5.988000393E0,8.280000687E-1,9.672607860E0
1.133217544E0,7.216050148E0,-6.139050484E0,6.600000262E-1,9.497100643E0
1.135716312E0,6.771000385E0,-6.069000244E0,5.119500160E-1,9.107211593E0
1.138214996E0,6.301950455E0,-5.937000275E0,4.380000234E-1,8.669163501E0
1.140713763E0,5.938050270E0,-5.683950424E0,5.100000501E-1,8.235765507E0
1.143212532E0,5.635950089E0,-5.419950485E0,6.700500250E-1,7.847850897E0
1.145711073E0,5.407950401E0,-5.068050385E0,7.819500566E-1,7.452684626E0
1.148209840E0,5.113950253E0,-4.624950409E0,6.439500451E-1,6.925122752E0
1.150708609E0,4.863000393E0,-4.225950241E0,4.470000267E-1,6.458114066E0
1.153207304E0,4.846050262E0,-3.945000172E0,1.410000026E-1,6.250368829E0
1.155706071E0,4.927050114E0,-3.639000177E0,-2.440500110E-1,6.130065703E0
1.158204611E0,4.915050030E0,-3.402000189E0,-5.569500327E-1,6.003458621E0
1.160703379E0,5.883000374E0,-3.238950253E0,-1.149000049E0,6.813273314E0
1.163202158E0,7.621050358E0,-2.586000204E0,-3.337050200E0,8.712273506E0
1.165700852E0,8.278950691E0,-1.330950022E0,-3.687000275E0,9.160044953E0
1.168199619E0,7.276050568E0,-1.029000044E0,-2.394000053E0,7.728582613E0
1.170698389E0,6.694050312E0,-1.420050025E0,-1.090950012E0,6.929431693E0
1.173196929E0,6.237000465E0,-1.903050065E0,-6.289500594E-1,6.551133683E0
1.175695710E0,4.084050179E0,-2.890050173E0,5.550000072E-1,5.033873347E0
1.178194405E0,1.933950067E0,-3.892950296E0,1.702050090E0,4.668211582E0
1.180693172E0,9.049500227E-1,-4.554000378E0,2.242950201E0,5.156421200E0
1.183191941E0,1.366950035E0,-5.004000187E0,2.346000195E0,5.693179005E0
1.185690482E0,2.206950188E0,-5.443950176E0,1.879050136E0,6.167499661E0
1.188189249E0,2.995050192E0,-5.782050133E0,1.984050035E0,6.807266994E0
1.190688018E0,3.591000080E0,-5.884950161E0,2.224050045E0,7.243915970E0
1.193186712E0,3.655950069E0,-6.000000477E0,2.776950121E0,7.554960530E0
1.195685480E0,3.334950209E0,-6.130950451E0,3.118950129E0,7.644494505E0
1.198184249E0,2.854050159E0,-6.277050495E0,3.445050240E0,7.708134430E0
1.200682789E0,2.217000008E0,-6.426000118E0,3.129000187E0,7.483261904E0
1.203181557E0,2.466000080E0,-6.474000454E0,1.929000139E0,7.191305849E0
1.205680251E0,3.462000132E0,-6.340050220E0,-7.050000131E-3,7.223692367E0
1.208179004E0,3.466950178E0,-6.333000183E0,-1.185000062E0,7.316478661E0
1.210677773E0,3.606000185E0,-6.285000324E0,-1.828950047E0,7.473253956E0
1.213176314E0,4.024950027E0,-6.237000465E0,-1.723050117E0,7.620321465E0
1.215675081E0,4.252050400E0,-6.189000130E0,-1.558050036E0,7.668844445E0
1.218173850E0,4.702050209E0,-6.069000244E0,-1.192050099E0,7.769364425E0
1.220672545E0,5.455950260E0,-6.094950199E0,-1.086000085E0,8.251982026E0
1.223171312E0,6.193950176E0,-6.165000439E0,-1.144050002E0,8.813688195E0
1.225669852E0,6.888000488E0,-6.439950466E0,-4.330500066E-1,9.439546866E0
1.228168620E0,6.739950180E0,-6.816000462E0,6.960000396E-1,9.610890010E0
1.230667413E0,6.847050190E0,-7.342950344E0,9.550500512E-1,1.008529309E1
1.233166107E0,6.237000465E0,-7.561050415E0,1.828950047E0,9.970692878E0
1.235664874E0,5.956950188E0,-7.744950294E0,1.969950080E0,9.967457746E0
1.238163644E0,5.989950180E0,-7.917000294E0,1.314000010E0,1.001423950E1
1.240662184E0,6.057000160E0,-7.992000580E0,8.970000148E-1,1.006796569E1
1.243160951E0,6.333000183E0,-8.176050186E0,2.820000052E-1,1.034573400E1
1.245659720E0,6.640950203E0,-8.346000671E0,-5.760000348E-1,1.068127908E1
1.248158415E0,7.048050404E0,-8.422950745E0,-1.600950122E0,1.109883575E1
1.250657182E0,7.515000343E0,-8.513999939E0,-2.725950241E0,1.167879402E1
1.253155731E0,7.951050282E0,-8.511000633E0,-3.559950113E0,1.217906307E1
1.255654499E0,8.602050781E0,-8.296050072E0,-4.720950127E0,1.284940055E1
1.258153268E0,9.055050850E0,-8.086950302E0,-5.643000126E0,1.338791102E1
1.260651962E0,9.181950569E0,-8.035050392E0,-5.877000332E0,1.354287207E1
1.263150730E0,9.225000381E0,-8.200050354E0,-6.141000271E0,1.378598354E1
1.265649514E0,9.517050743E0,-8.204999924E0,-6.142950058E0,1.398685504E1
1.268148054E0,9.898050308E0,-7.993950367E0,-6.142950058E0,1.412835722E1
1.270646821E0,1.038105011E1,-7.648950577E0,-6.544950485E0,1.446060245E1
1.273145516E0,1.088595009E1,-7.354950428E0,-7.062000275E0,1.491546355E1
1.275644283E0,1.128105068E1,-7.102950573E0,-7.386000156E0,1.524030871E1
1.278143052E0,1.166505051E1,-6.888000488E0,-7.503000259E0,1.548589574E1
1.280641593E0,1.169595051E1,-6.763050556E0,-7.246950150E0,1.533141864E1
1.283140360E0,1.167405033E1,-6.591000080E0,-7.090950489E0,1.516595899E1
1.285639129E0,1.181295013E1,-6.454950333E0,-6.847050190E0,1.510279017E1
1.288137823E0,1.196100044E1,-6.244050503E0,-6.580950260E0,1.501208195E1
1.290636591E0,1.200705051E1,-6.024000168E0,-6.244050503E0,1.481371009E1
1.293135360E0,1.199700069E1,-5.760000229E0,-5.761950493E0,1.450192062E1
1.295633900E0,1.197600079E1,-5.574000359E0,-4.888050079E0,1.408499586E1
1.298132668E0,1.165005016E1,-5.398950100E0,-3.112050056E0,1.321200918E1
1.300631347E0,1.135305023E1,-5.356050491E0,-1.173000097E0,1.260773396E1
1.303130114E0,1.059195042E1,-5.595000267E0,1.170000076E0,1.203587728E1
1.305628883E0,9.658050537E0,-6.352050304E0,3.478050232E0,1.207159131E1
1.308127424E0,8.317049980E0,-6.604950428E0,4.920000076E0,1.170491740E1
1.310626191E0,7.245000362E0,-6.877950191E0,6.438000202E0,1.188461508E1
1.313124979E0,6.040950298E0,-6.976950169E0,8.626049995E0,1.263248403E1
1.315623674E0,4.767000198E0,-7.314000130E0,1.018695068E1,1.341614151E1
1.318122441E0,3.879000187E0,-7.659000397E0,1.025205040E1,1.337204049E1
1.320620981E0,3.163050175E0,-7.924950600E0,1.053900051E1,1.356024558E1
1.323119759E0,2.394000053E0,-8.212050438E0,1.118295097E1,1.407932531E1
1.325618528E0,1.651950121E0,-8.377050400E0,1.173795033E1,1.451493680E1
1.328117222E0,8.950500488E-1,-8.545050621E0,1.206600094E1,1.481240640E1
1.330615989E0,4.519500136E-1,-8.703000069E0,1.137195015E1,1.432716717E1
1.333114745E0,1.050000042E-1,-8.712000847E0,1.092705059E1,1.397535038E1
1.335613285E0,-2.260500044E-1,-8.860950470E0,9.961950302E0,1.333446646E1
1.338112052E0,-6.379500031E-1,-9.070950508E0,8.407950401E0,1.238477910E1
1.340610747E0,-1.788000107E0,-9.414000511E0,6.744000435E0,1.171758900E1
1.343109514E0,-3.801000118E0,-1.007505035E1,4.335000038E0,1.160803458E1
1.345608054E0,-6.367950439E0,-1.104900074E1,1.845000029E0,1.288546605E1
1.348106822E0,-9.259950638E0,-1.244700050E1,-8.059500456E-1,1.553460855E1
1.350605591E0,-1.155105019E1,-1.391700077E1,-2.568000078E0,1.826757497E1
1.353104360E0,-1.331805038E1,-1.551705074E1,-4.594050407E0,2.095840235E1
1.355603039E0,-1.514205074E1,-1.795905113E1,-6.658050537E0,2.441595493E1
1.358101807E0,-1.586805058E1,-1.942905045E1,-8.877000809E0,2.660985106E1
1.360600576E0,-1.430400085E1,-1.977795029E1,-9.315000534E0,2.612548551E1
1.363099116E0,-1.048095036E1,-1.981395149E1,-8.416950226E0,2.394343428E1
1.365597884E0,-9.028050423E0,-2.009700012E1,-8.176050186E0,2.349984904E1
1.368096602E0,-8.476950645E0,-2.026200104E1,-7.849950314E0,2.332443136E1
1.370595369E0,-7.873950481E0,-1.993905067E1,-7.041000366E0,2.256414244E1
1.373093910E0,-6.765000343E0,-1.944795036E1,-6.100050449E0,2.147553535E1
1.375592677E0,-5.838000298E0,-1.870305061E1,-5.178000450E0,2.026568623E1
1.378091446E0,-4.680000305E0,-1.765005112E1,-4.162950039E0,1.872850395E1
1.380590211E0,-3.219000101E0,-1.658895111E1,-3.025950193E0,1.716716736E1
1.383088906E0,-1.483050108E0,-1.555305099E1,-1.876950145E0,1.573593895E1
1.385587673E0,1.300050020E0,-1.407300091E1,-1.459950089E0,1.420812932E1
1.388086213E0,4.695000172E0,-1.251405048E1,-7.609500289E-1,1.338743930E1
1.390584981E0,7.324050426E0,-1.052205086E1,2.097000122E0,1.299048415E1
1.393083675E0,1.926105118E1,-5.629050255E0,-2.815050125E0,2.026323781E1
1.395582442E0,2.014200020E1,-6.049950123E0,1.692000031E0,2.109893202E1
1.398081211E0,2.034405136E1,-6.133950233E0,1.314000010E0,2.128925474E1
1.400579752E0,1.748700142E1,-7.530000210E0,8.809500337E-1,1.905970080E1
1.403078519E0,1.338600063E1,-8.614050865E0,1.831050038E0,1.602309675E1
1.405577288E0,9.799050331E0,-9.340050697E0,2.719050169E0,1.380764890E1
1.408076058E0,6.213000298E0,-1.051005077E1,3.445050240E0,1.268585476E1
1.410574752E0,2.703000069E0,-1.236105061E1,3.343950272E0,1.308754312E1
1.413073519E0,-1.273050070E0,-1.448505116E1,2.893950224E0,1.482606864E1
1.415572273E0,-4.138950348E0,-1.602705002E1,2.439000130E0,1.673158582E1
1.418070814E0,-5.719050407E0,-1.653705025E1,2.284050226E0,1.764648560E1
1.420569504E0,-6.166050434E0,-1.641900063E1,2.590050220E0,1.772884992E1
1.423068273E0,-6.099000454E0,-1.595505047E1,3.117000103E0,1.736309683E1
1.425567043E0,-7.977000237E0,-1.781505013E1,3.555000067E0,1.984052845E1
1.428065593E0,-7.048050404E0,-1.715205002E1,3.016050100E0,1.878734661E1
1.430564360E0,-3.841950178E0,-1.525800037E1,2.638050079E0,1.595388557E1
1.433063130E0,-4.159500301E-1,-1.328295040E1,2.607000113E0,1.354275583E1
1.435561824E0,2.665050030E0,-1.158495045E1,4.041000366E0,1.255560642E1
1.438060591E0,5.005950451E0,-1.025400066E1,4.984050274E0,1.245169975E1
1.440559132E0,6.361050129E0,-9.154950142E0,4.752000332E0,1.211848085E1
1.443058130E0,6.685050488E0,-8.511000633E0,3.943050146E0,1.151844939E1
1.445556670E0,3.376050234E0,-7.561050415E0,3.225000143E0,8.886384219E0
1.448055360E0,-2.125050068E0,-6.559950352E0,2.635950089E0,7.382209647E0
1.450554130E0,-4.263000011E0,-6.457050323E0,1.555950046E0,7.892252437E0
1.453052870E0,-4.564949989E0,-7.234950542E0,5.929500461E-1,8.575247373E0
1.455551410E0,-4.888050079E0,-8.107049942E0,2.340000123E-1,9.469532636E0
1.458050178E0,-5.707050323E0,-9.067049980E0,-2.200500071E-1,1.071588731E1
1.460548872E0,-6.133050442E0,-9.694050789E0,-4.660500288E-1,1.148068513E1
1.463047639E0,-5.929050446E0,-9.960000038E0,-4.690500200E-1,1.160065722E1
1.465546408E0,-5.512950420E0,-9.993000031E0,-2.080500126E-1,1.141472543E1
1.468044949E0,-5.830950260E0,-9.969000816E0,2.700000107E-1,1.155222309E1
1.470543716E0,-5.238000393E0,-9.945000648E0,6.600000262E-1,1.125945319E1
1.473042485E0,-3.997050285E0,-9.619950294E0,9.049500227E-1,1.045651898E1
1.475541180E0,-3.298050165E0,-9.679950714E0,9.090000391E-1,1.026668699E1
1.478039952E0,-3.250050068E0,-9.700950623E0,9.480000734E-1,1.027472494E1
1.480538721E0,-2.748000145E0,-9.703950882E0,7.750500441E-1,1.011527904E1
1.483037262E0,-2.266050100E0,-9.952950478E0,3.060000241E-1,1.021223983E1
1.485536029E0,-2.271000147E0,-9.967050552E0,3.250500262E-1,1.022766816E1
1.488034807E0,-1.972050071E0,-9.354000092E0,1.189500093E-1,9.560358168E0
1.490533501E0,-2.026950121E0,-9.391950607E0,6.705000252E-2,9.608421239E0
1.493032269E0,-2.086950064E0,-9.399000168E0,-9.795000404E-2,9.628403758E0
1.495530809E0,-1.561950088E0,-8.808000565E0,-2.770500183E-1,8.949710539E0
1.498029552E0,-1.090950012E0,-8.581050873E0,-3.109500110E-1,8.655708863E0
1.500528321E0,-6.499500275E-1,-8.629050255E0,-1.840500087E-1,8.655450176E0
1.503027016E0,-2.959500253E-1,-8.712000847E0,-1.810500026E-1,8.718906140E0
1.505525783E0,6.705000252E-2,-8.712000847E0,-2.010000050E-1,8.714577182E0
1.508024323E0,3.709500134E-1,-8.803050041E0,-3.229500055E-1,8.816778927E0
1.510523077E0,5.719500184E-1,-8.916000366E0,-4.950000346E-1,8.948028520E0
1.513021846E0,8.190000653E-1,-9.043050766E0,-4.849500358E-1,9.093003068E0
1.515520540E0,1.276050091E0,-9.189000130E0,-5.959500074E-1,9.296299459E0
1.518019308E0,9.430500269E-1,-9.127050400E0,-1.429500133E-1,9.176754713E0
1.520518077E0,1.402950048E0,-9.129000664E0,-4.969500303E-1,9.249534112E0
1.523016617E0,1.615950108E0,-9.082950592E0,-6.600000262E-1,9.249155975E0
1.525515384E0,1.659000039E0,-9.036000252E0,-4.810500145E-1,9.199619057E0
1.528014154E0,1.840950131E0,-8.884950638E0,-1.260000020E-1,9.074542480E0
1.530512848E0,2.218950033E0,-8.546999931E0,-1.530000120E-1,8.831667797E0
1.533011615E0,2.598000050E0,-8.302950859E0,-2.080500126E-1,8.702406681E0
1.535510384E0,3.084000111E0,-8.077950478E0,-3.270000219E-1,8.652818594E0
1.538008925E0,3.481050253E0,-7.900950432E0,-4.540500343E-1,8.645744041E0
1.540507692E0,3.883050203E0,-7.660950184E0,-5.719500184E-1,8.607866369E0
1.543006386E0,4.144050121E0,-7.495950222E0,-6.390000582E-1,8.588989592E0
1.545505150E0,4.231050014E0,-7.372050285E0,-6.480000019E-1,8.524600497E0
1.548003919E0,4.036950111E0,-7.273050308E0,-1.062000036E0,8.385825604E0
1.550502459E0,3.084000111E0,-7.321050167E0,-2.053950071E0,8.205336259E0
1.553001227E0,1.848000050E0,-7.585050583E0,-1.867050052E0,8.027077452E0
1.555499981E0,1.240050077E0,-8.039999962E0,-1.438050032E0,8.261193102E0
1.557998675E0,1.173000097E0,-8.631000519E0,1.084050059E0,8.777543148E0
1.560497214E0,1.450950027E0,-9.139050484E0,4.351950169E0,1.022579923E1
1.562996212E0,1.717050076E0,-9.322950363E0,3.399000168E0,1.007069345E1
1.565494757E0,1.128000021E0,-9.627000809E0,9.240000248E-1,9.736801562E0
1.567993524E0,-2.310000062E-1,-1.027095032E1,-1.977000117E0,1.046204143E1
1.570492219E0,-1.141050100E0,-1.088595009E1,-4.024050236E0,1.166185598E1
1.572990986E0,-1.306050062E0,-1.110900021E1,-4.836000443E0,1.218616234E1
1.575489755E0,-1.179000020E0,-1.100400066E1,-5.323950291E0,1.228098198E1
1.577988291E0,-1.159950018E0,-1.081695080E1,-4.588950157E0,1.180721695E1
1.580487058E0,-1.063950062E0,-1.066800022E1,-3.631050110E0,1.131913174E1
1.582985827E0,-9.139500260E-1,-1.058700085E1,-2.647050142E0,1.095110798E1
1.585484521E0,-7.680000067E-1,-1.060605049E1,-1.740000129E0,1.077523696E1
1.587983050E0,-6.190500259E-1,-1.074495029E1,-7.969500422E-1,1.079223374E1
1.590481817E0,-4.680000246E-1,-1.092000008E1,1.579500139E-1,1.093116526E1
1.592980586E0,-1.980000138E-1,-1.108500099E1,1.162950039E0,1.114759632E1
1.595479281E0,1.339500099E-1,-1.120905018E1,2.073000193E0,1.139991571E1
1.597978048E0,3.349500299E-1,-1.130805016E1,2.956050158E0,1.169283637E1
1.600476808E0,5.119500160E-1,-1.133595085E1,3.792000294E0,1.196432784E1
1.602975577E0,6.420000196E-1,-1.131495094E1,4.611000061E0,1.223526054E1
1.605474118E0,6.220500469E-1,-1.129995060E1,5.343000412E0,1.251493041E1
1.607972885E0,5.839500427E-1,-1.128600025E1,5.908050060E0,1.275224901E1
1.610471654E0,5.839500427E-1,-1.123605061E1,6.330000401E0,1.290963733E1
1.612970325E0,5.269500017E-1,-1.116195011E1,6.679050446E0,1.301831485E1
1.615468863E0,2.509500086E-1,-1.103505039E1,6.768000126E0,1.294763062E1
1.617967861E0,-2.239500135E-1,-1.069995022E1,6.792000294E0,1.267558110E1
1.620466402E0,-5.899500251E-1,-1.036005020E1,6.684000492E0,1.234319828E1
1.622965092E0,-7.099500299E-1,-1.015605068E1,6.454050541E0,1.205421764E1
1.625463861E0,-8.440500498E-1,-1.008195019E1,6.066000462E0,1.179637663E1
1.627962630E0,-1.014000058E0,-1.000305080E1,5.425050259E0,1.142455215E1
1.630461400E0,-1.122000098E0,-9.874050140E0,4.612950325E0,1.095605135E1
1.632959940E0,-1.050000072E0,-9.655950546E0,3.732000113E0,1.040517688E1
1.635458644E0,-9.949500561E-1,-9.490050316E0,2.940000057E0,9.984717369E0
1.637957414E0,-8.659500480E-1,-9.358950615E0,2.185050011E0,9.649573547E0
1.640456183E0,-6.450000405E-1,-9.262950897E0,1.537050128E0,9.411737750E0
1.642954723E0,-6.670500040E-1,-9.178950310E0,9.979500771E-1,9.257104777E0
1.645453491E0,-7.650000453E-1,-9.169950485E0,5.500500202E-1,9.218230416E0
1.647952265E0,-7.840500474E-1,-9.208050728E0,1.789500117E-1,9.243103147E0
1.650450959E0,-7.870500088E-1,-9.297000885E0,-4.005000368E-2,9.330341750E0
1.652949726E0,-7.530000210E-1,-9.391950607E0,-1.339500099E-1,9.423040266E0
1.655448496E0,-8.010000587E-1,-9.435000420E0,-1.219500080E-1,9.469725752E0
1.657947265E0,-9.730500579E-1,-9.493050575E0,-5.505000427E-2,9.542948504E0
1.660445805E0,-9.139500260E-1,-9.541050911E0,9.495000541E-2,9.585195493E0
1.662944496E0,-7.720500231E-1,-9.604950905E0,2.629500031E-1,9.639516888E0
1.665443265E0,-6.649500132E-1,-9.694050789E0,4.500000179E-1,9.727244175E0
1.667942029E0,-7.459500432E-1,-9.766050339E0,5.119500160E-1,9.807867939E0
1.670440570E0,-8.590500355E-1,-9.820950508E0,5.380499959E-1,9.873121778E0
1.672939337E0,-1.060050011E0,-9.871050835E0,4.660500288E-1,9.938740023E0
1.675438106E0,-1.186950088E0,-9.955050468E0,4.300500154E-1,1.003478068E1
1.677936800E0,-1.159950018E0,-9.967050552E0,3.469500244E-1,1.004031648E1
1.680435578E0,-1.099950075E0,-9.976050377E0,2.610000074E-1,1.003990001E1
1.682934118E0,-1.072050095E0,-9.984000206E0,2.029500157E-1,1.004344265E1
1.685432885E0,-1.159950018E0,-9.949950218E0,1.530000120E-1,1.001850300E1
1.687931655E0,-1.270050049E0,-9.883050919E0,1.050000042E-1,9.964875693E0
1.690430424E0,-1.234050035E0,-9.826050758E0,7.095000148E-2,9.903493671E0
1.692929122E0,-1.093050003E0,-9.771000862E0,5.895000324E-2,9.832125470E0
1.695427889E0,-9.210000634E-1,-9.708000183E0,1.200000010E-2,9.751597442E0
1.697926430E0,-9.619500637E-1,-9.655950546E0,-5.205000192E-2,9.703887782E0
1.700425197E0,-1.146000028E0,-9.625050545E0,-8.595000207E-2,9.693415366E0
1.702923966E0,-1.291950107E0,-9.598050117E0,-6.599999964E-2,9.684836454E0
1.705422681E0,-1.239000082E0,-9.568950653E0,-4.050000105E-3,9.648831753E0
1.707921448E0,-1.195950031E0,-9.475950241E0,-3.495000303E-2,9.551185840E0
1.710420217E0,-1.306050062E0,-9.379950523E0,-4.500000179E-2,9.470547164E0
1.712918758E0,-1.375950098E0,-9.274950027E0,-1.605000161E-2,9.376470247E0
1.715417525E0,-1.131000042E0,-9.115050316E0,-1.950000064E-3,9.184950036E0
1.717916214E0,-3.409500122E-1,-8.626049995E0,5.205000192E-2,8.632942409E0
1.720414981E0,2.680500150E-1,-8.237999916E0,-2.595000155E-2,8.242400550E0
1.722913751E0,9.550500512E-1,-8.044050217E0,-1.120500043E-1,8.101322095E0
1.725412291E0,1.036949992E0,-7.969950199E0,-1.740000099E-1,8.039007866E0
1.727911058E0,4.960500300E-1,-8.037000656E0,-2.100000083E-1,8.055032289E0
1.730409827E0,-1.999500096E-1,-8.152050018E0,-1.930500120E-1,8.156786611E0
1.732908522E0,-9.090000391E-1,-8.257050514E0,1.395000052E-2,8.306946423E0
1.735407289E0,-1.431000113E0,-8.485050201E0,2.410500050E-1,8.608248565E0
1.737906043E0,-1.360950112E0,-8.607000351E0,6.360000372E-1,8.737112584E0
1.740404584E0,-1.357050061E0,-8.683950424E0,9.550500512E-1,8.841080276E0
1.742903351E0,-1.219950080E0,-8.575950623E0,1.336050034E0,8.764715453E0
1.745402045E0,-1.639050126E0,-8.154000282E0,1.410000086E0,8.435775374E0
1.747900813E0,-2.388000011E0,-7.861950397E0,1.477050066E0,8.348322287E0
1.750399587E0,-2.355000019E0,-7.671000481E0,1.663950086E0,8.195059692E0
1.752898127E0,-1.764000058E0,-7.702050209E0,1.740000129E0,8.090789459E0
1.755396894E0,-1.126950026E0,-7.771050453E0,1.402950048E0,7.976685423E0
1.757895664E0,-1.126950026E0,-8.028000832E0,9.169500470E-1,8.158407388E0
1.760394363E0,-1.207950115E0,-8.301000595E0,5.329500437E-1,8.405342950E0
1.762893130E0,-9.280500412E-1,-8.422950745E0,4.740000367E-1,8.487169856E0
1.765391671E0,-8.590500355E-1,-8.671950340E0,4.279500246E-1,8.724897185E0
1.767890438E0,-6.649500132E-1,-9.058950424E0,4.639500082E-1,9.095163051E0
1.770389207E0,-4.300500154E-1,-9.361050606E0,1.197000027E0,9.447064122E0
1.772887902E0,4.305000231E-2,-9.634050369E0,3.286950111E0,1.017943126E1
1.775386669E0,5.910000205E-1,-9.739050865E0,5.865000248E0,1.138405115E1
1.777885438E0,1.384050012E0,-9.840000153E0,7.915050507E0,1.270390578E1
1.780383978E0,2.326950073E0,-9.996000290E0,9.852000237E0,1.422661685E1
1.782882765E0,2.734050035E0,-1.016595078E1,1.121895027E1,1.538461667E1
1.785381534E0,2.527950048E0,-1.044300079E1,1.153695011E1,1.576540564E1
1.787880228E0,2.143050194E0,-1.087005043E1,1.085505009E1,1.551073089E1
1.790378995E0,1.815000057E0,-1.137000084E1,9.421050072E0,1.487707393E1
1.792877545E0,1.438950062E0,-1.194000053E1,7.150950432E0,1.399179338E1
1.795376312E0,1.210950017E0,-1.229205036E1,4.285050392E0,1.307373546E1
1.797875081E0,1.410000086E0,-1.248795033E1,1.410000086E0,1.264614976E1
1.800373776E0,1.393050075E0,-1.308705044E1,-1.180050015E0,1.321378052E1
1.802872314E0,1.558950067E0,-1.345800018E1,-3.445050240E0,1.397914394E1
1.805371312E0,2.077950001E0,-1.344600105E1,-5.157000065E0,1.455017080E1
1.807869853E0,2.533050060E0,-1.316100025E1,-6.367950439E0,1.483843196E1
1.810368620E0,3.237000227E0,-1.265295029E1,-6.471000195E0,1.457563600E1
1.812867314E0,3.724950075E0,-1.222905064E1,-5.752950191E0,1.401860793E1
1.815366081E0,3.574950218E0,-1.182000065E1,-4.735050201E0,1.322548240E1
1.817864851E0,2.887050152E0,-1.164795017E1,-3.310950041E0,1.244878275E1
1.820363391E0,1.884000063E0,-1.165995026E1,-1.927050114E0,1.196734801E1
1.822862158E0,8.980500698E-1,-1.168095016E1,-9.859500527E-1,1.175683581E1
1.825360928E0,5.080500245E-1,-1.155900097E1,-6.580500603E-1,1.158885879E1
1.827859622E0,6.199500561E-1,-1.143495083E1,-8.590500355E-1,1.148391943E1
1.830358384E0,6.370500326E-1,-1.118295097E1,-1.350000024E0,1.128214187E1
1.832856925E0,7.570500374E-1,-1.084605026E1,-1.975050092E0,1.105037347E1
1.835355692E0,9.550500512E-1,-1.053195095E1,-2.455950022E0,1.085660177E1
1.837854461E0,1.252050042E0,-1.024905014E1,-2.724000216E0,1.067852215E1
1.840353155E0,1.372050047E0,-1.006695080E1,-2.740950108E0,1.052325174E1
1.842851928E0,1.519950032E0,-9.924000740E0,-2.463000059E0,1.033742754E1
1.845350697E0,1.578000069E0,-9.885000229E0,-1.965000153E0,1.020120284E1
1.847849237E0,1.638000131E0,-9.730050087E0,-1.288050056E0,9.950677970E0
1.850348005E0,1.678050041E0,-9.747000694E0,-5.569500327E-1,9.906062175E0
1.852846774E0,1.795950055E0,-9.723000526E0,1.260000020E-1,9.888278507E0
1.855345468E0,1.675950050E0,-9.699000359E0,7.390500307E-1,9.870441301E0
1.857844235E0,1.360050082E0,-9.759000778E0,1.165950060E0,9.922059865E0
1.860342776E0,1.144050002E0,-9.711000443E0,1.564950109E0,9.902598086E0
1.862841543E0,9.600000381E-1,-9.811050415E0,1.812000036E0,1.002305614E1
1.865340236E0,9.240000248E-1,-9.759000778E0,2.073000193E0,1.001944120E1
1.867839004E0,1.104000092E0,-9.595950127E0,2.374950171E0,9.946932359E0
1.870337773E0,1.173000097E0,-9.522000313E0,2.560950041E0,9.929898504E0
1.872836313E0,1.149000049E0,-9.346950531E0,2.788950205E0,9.821605194E0
1.875335081E0,1.159050107E0,-9.164999962E0,2.899050236E0,9.682206036E0
1.877833870E0,9.600000381E-1,-9.097949982E0,2.944050074E0,9.610500756E0
1.880332564E0,9.670500755E-1,-9.025950432E0,2.944050074E0,9.543081152E0
1.882831331E0,9.859500527E-1,-8.868000031E0,2.901000023E0,9.382394320E0
1.885329872E0,7.420500517E-1,-8.758049965E0,2.712000132E0,9.198316269E0
1.887828870E0,4.500000179E-1,-8.904000282E0,2.590050220E0,9.283969043E0
1.890327405E0,3.780000210E-1,-9.007050514E0,2.451000214E0,9.342229125E0
1.892826096E0,4.669500291E-1,-8.916000366E0,2.298000097E0,9.219214137E0
1.895324865E0,6.319500208E-1,-8.782050133E0,2.154000044E0,9.064407402E0
1.897823634E0,7.110000253E-1,-8.700000763E0,1.917000055E0,8.937025429E0
1.900322175E0,6.270000339E-1,-8.690999985E0,1.636950135E0,8.866014636E0
1.902820942E0,4.720500112E-1,-8.820000648E0,1.375950098E0,8.939154397E0
1.905319711E0,5.479500294E-1,-8.887050629E0,1.198950052E0,8.984286245E0
1.907818405E0,5.170500278E-1,-8.932950020E0,1.077000022E0,9.012483888E0
1.910317173E0,4.330500066E-1,-9.001950264E0,9.400500655E-1,9.061254603E0
1.912815718E0,4.570500255E-1,-9.106950760E0,7.819500566E-1,9.151879193E0
1.915314485E0,3.829500079E-1,-9.222000122E0,6.510000229E-1,9.252877282E0
1.917813255E0,2.899500132E-1,-9.454950333E0,5.070000291E-1,9.472972386E0
1.920311949E0,3.330000043E-1,-9.631950378E0,3.799500167E-1,9.645191502E0
1.922810716E0,3.160500228E-1,-9.811050415E0,3.040500283E-1,9.820847432E0
1.925309504E0,3.109500110E-1,-9.981000900E0,2.149500102E-1,9.988156606E0
1.927808045E0,3.379500210E-1,-1.002900028E1,1.620000005E-1,1.003600024E1
1.930306812E0,2.419500053E-1,-1.011795044E1,1.120500043E-1,1.012146314E1
1.932805506E0,4.669500291E-1,-1.016295052E1,2.650500238E-1,1.017712420E1
1.935304274E0,8.790000677E-1,-1.023705006E1,1.605000161E-2,1.027473078E1
1.937803052E0,9.190500379E-1,-1.035195065E1,-1.480500102E-1,1.039372185E1
1.940301592E0,9.049500227E-1,-1.034505081E1,2.290500104E-1,1.038708211E1
1.942800360E0,9.840000272E-1,-1.018500042E1,7.440000176E-1,1.025943593E1
1.945299129E0,1.087050080E0,-1.017000008E1,9.000000358E-1,1.026745243E1
1.947797823E0,1.053000093E0,-1.015605068E1,8.880000710E-1,1.024903502E1
1.950296605E0,1.276050091E0,-1.005300045E1,8.179500103E-1,1.016662009E1
1.952795146E0,1.221000075E0,-1.004400063E1,8.610000610E-1,1.015451185E1
1.955293913E0,1.116000056E0,-9.960000038E0,9.690000415E-1,1.006906242E1
1.957792682E0,1.228050113E0,-9.904950142E0,1.194000006E0,1.005195406E1
1.960291396E0,1.255050063E0,-9.904950142E0,1.383000016E0,1.007947801E1
1.962790163E0,1.266000032E0,-9.913950920E0,1.519950032E0,1.010937323E1
1.965288932E0,1.080000043E0,-1.000500011E1,1.540950060E0,1.018042015E1
1.967787473E0,1.072950006E0,-1.013400078E1,1.539000034E0,1.030619787E1
1.970286240E0,1.060950041E0,-1.011495018E1,1.300050020E0,1.025319278E1
1.972785009E0,1.012950063E0,-1.005495071E1,1.075049996E0,1.016286545E1
1.975283703E0,9.889500737E-1,-9.969000816E0,7.819500566E-1,1.004840512E1
1.977782471E0,1.105949998E0,-9.913950920E0,4.690500200E-1,9.986468653E0
1.980281011E0,9.270000458E-1,-9.904950142E0,2.989500165E-1,9.952725130E0
1.982779778E0,8.950500488E-1,-9.778050423E0,2.410500050E-1,9.821888299E0
1.985278537E0,8.929500580E-1,-9.679950714E0,2.149500102E-1,9.723425792E0
1.987777232E0,7.849500179E-1,-9.652950287E0,3.280500174E-1,9.690367000E0
1.990275999E0,7.060500383E-1,-9.579000473E0,4.830000103E-1,9.617122529E0
1.992774768E0,6.150000095E-1,-9.529050827E0,6.510000229E-1,9.571041516E0
1.995273309E0,4.500000179E-1,-9.553050041E0,7.660500407E-1,9.594274218E0
1.997772097E0,3.520500064E-1,-9.550050735E0,8.899500370E-1,9.597886190E0
2.000270791E0,-2.359500080E-1,-9.808950424E0,9.670500755E-1,9.859328916E0
2.002769559E0,-4.905000329E-2,-9.751049995E0,9.480000734E-1,9.797146832E0
2.005268099E0,1.360500008E-1,-9.859050751E0,7.390500307E-1,9.887648166E0
2.007766866E0,7.180500627E-1,-9.682050705E0,7.939500213E-1,9.741050168E0
2.010265625E0,1.111050010E0,-9.502050400E0,9.499500394E-1,9.613833731E0
2.012764395E0,8.950500488E-1,-9.634050369E0,1.003050089E0,9.727391767E0
2.015263089E0,8.740500212E-1,-9.766050339E0,1.105949998E0,9.867260413E0
2.017761856E0,9.169500470E-1,-9.782999992E0,1.084050059E0,9.885496992E0
2.020260644E0,8.380500674E-1,-9.708000183E0,9.600000381E-1,9.791281609E0
2.022759185E0,1.015050054E0,-9.651000023E0,9.550500512E-1,9.751115252E0
2.025257952E0,1.041000009E0,-9.571950912E0,9.240000248E-1,9.672626393E0
2.027756721E0,8.670000434E-1,-9.510000229E0,9.810000658E-1,9.599695545E0
2.030255411E0,9.580500722E-1,-9.426000595E0,1.084050059E0,9.536378332E0
2.032753949E0,9.600000381E-1,-9.346950531E0,1.161000013E0,9.467576529E0
2.035252716E0,8.830500245E-1,-9.352050781E0,1.185000062E0,9.468096763E0
2.037751486E0,9.550500512E-1,-9.289050102E0,1.266000032E0,9.423445680E0
2.040250195E0,8.929500580E-1,-9.241050720E0,1.290000081E0,9.373285359E0
2.042748962E0,6.750000119E-1,-9.225000381E0,1.315950036E0,9.342803731E0
2.045247731E0,6.270000339E-1,-9.222000122E0,1.338000059E0,9.339628443E0
2.047746501E0,6.679500341E-1,-9.150000572E0,1.405050039E0,9.281316358E0
2.050245031E0,5.820000172E-1,-9.093000412E0,1.402950048E0,9.218983097E0
2.052743721E0,7.330500484E-1,-9.067049980E0,1.363950014E0,9.198321442E0
2.055242568E0,1.036949992E0,-9.124050140E0,1.354950070E0,9.282211264E0
2.057741262E0,8.550000191E-1,-9.186000824E0,1.387950063E0,9.329525258E0
2.060239800E0,7.039500475E-1,-9.298950195E0,1.362000108E0,9.424492809E0
2.062738563E0,4.740000367E-1,-9.427950859E0,1.359000087E0,9.537180646E0
2.065237332E0,6.660000086E-1,-9.471000671E0,1.282950044E0,9.580676936E0
2.067736026E0,7.999500632E-1,-9.399000168E0,1.168050051E0,9.505023155E0
2.070234793E0,6.130500436E-1,-9.462000847E0,9.930000305E-1,9.533694952E0
2.072733334E0,3.690000176E-1,-9.523950577E0,9.240000248E-1,9.575780472E0
2.075232101E0,5.790000558E-1,-9.556950569E0,8.689500690E-1,9.613824393E0
2.077730870E0,6.559500098E-1,-9.499950409E0,8.689500690E-1,9.562133779E0
2.080229565E0,5.530500412E-1,-9.534000397E0,7.920000553E-1,9.582812322E0
2.082728332E0,5.700000525E-1,-9.598050117E0,7.009500265E-1,9.640477014E0
2.085227101E0,5.509500504E-1,-9.696000099E0,6.889500618E-1,9.736047251E0
2.087725637E0,8.479500413E-1,-9.613050461E0,7.540500164E-1,9.679790796E0
2.090224404E0,9.600000381E-1,-9.613050461E0,7.270500064E-1,9.688185638E0
2.092723173E0,8.710500598E-1,-9.736950874E0,7.750500441E-1,9.806510241E0
2.095221867E0,7.540500164E-1,-9.865950584E0,7.420500517E-1,9.922510299E0
2.097720635E0,7.519500256E-1,-9.937950134E0,8.419500589E-1,1.000185791E1
2.100219414E0,8.209500313E-1,-1.006305027E1,9.259500504E-1,1.013885216E1
2.102717954E0,6.460500360E-1,-1.025205040E1,9.840000272E-1,1.031940764E1
2.105216722E0,7.849500179E-1,-1.033995056E1,1.069950104E0,1.042475503E1
2.107715416E0,9.840000272E-1,-1.037205029E1,1.069950104E0,1.047341761E1
2.110214192E0,8.809500337E-1,-1.042905045E1,1.072050095E0,1.052095326E1
2.112712961E0,8.209500313E-1,-1.045995045E1,1.053000093E0,1.054482487E1
2.115211502E0,2.059500068E-1,-1.062795067E1,1.036050081E0,1.068031603E1
2.117710269E0,7.570500374E-1,-1.055595016E1,1.146000028E0,1.064492953E1
2.120208963E0,1.578000069E0,-1.036200047E1,1.300050020E0,1.056178337E1
2.122707726E0,1.767000079E0,-1.017795086E1,1.233000040E0,1.040352162E1
2.125206495E0,1.614000082E0,-1.019700050E1,1.060050011E0,1.037822343E1
2.127705035E0,1.372050047E0,-1.019205093E1,9.670500755E-1,1.032935668E1
2.130203803E0,1.159050107E0,-9.997950554E0,9.480000734E-1,1.010945679E1
2.132702572E0,1.276050091E0,-9.936000824E0,9.360000491E-1,1.006123811E1
2.135201266E0,1.144050002E0,-9.948000908E0,1.012050033E0,1.006458234E1
2.137700033E0,1.009950042E0,-9.853950500E0,1.069950104E0,9.963188886E0
2.140198803E0,8.359500170E-1,-9.775050163E0,1.087050080E0,9.870769778E0
2.142697343E0,-3.510000110E-1,-9.996000290E0,8.899500370E-1,1.004167485E1
2.145196091E0,-4.005000368E-2,-9.957000732E0,8.899500370E-1,9.996773412E0
2.147694861E0,1.045950055E0,-9.684000015E0,9.790500402E-1,9.789402780E0
2.150193555E0,1.462950110E0,-9.418950081E0,9.499500394E-1,9.579104798E0
2.152692322E0,1.579950094E0,-9.307950020E0,8.730000257E-1,9.481366195E0
2.155190863E0,1.456050038E0,-9.213000298E0,7.510500550E-1,9.357538799E0
2.157689620E0,1.255050063E0,-9.289050102E0,8.640000224E-1,9.413187478E0
2.160188389E0,1.609050035E0,-9.297000885E0,8.449500203E-1,9.472972501E0
2.162687083E0,1.123050094E0,-9.547950745E0,9.379500151E-1,9.659417952E0
2.165185851E0,8.620500565E-1,-9.684000015E0,9.810000658E-1,9.771660438E0
2.167684620E0,7.470000386E-1,-9.835050583E0,1.036050081E0,9.917642300E0
2.170183160E0,7.830000520E-1,-9.799050331E0,1.015050054E0,9.882550434E0
2.172681928E0,7.950000167E-1,-9.826050758E0,9.930000305E-1,9.908044590E0
2.175180697E0,8.569500446E-1,-9.877950668E0,9.379500151E-1,9.959318401E0
2.177679371E0,7.570500374E-1,-9.909000397E0,8.950500488E-1,9.978102435E0
2.180178138E0,8.860500455E-1,-9.835050583E0,8.880000710E-1,9.914728881E0
2.182676679E0,9.820500612E-1,-9.751049995E0,8.539500237E-1,9.837511320E0
2.185175446E0,9.529500604E-1,-9.748950005E0,8.350500464E-1,9.830943423E0
2.187674215E0,8.260500431E-1,-9.723000526E0,7.780500650E-1,9.788996875E0
2.190172934E0,7.780500650E-1,-9.676950455E0,8.539500237E-1,9.745663787E0
2.192671701E0,8.590500355E-1,-9.676950455E0,9.070500135E-1,9.757257647E0
2.195170470E0,8.209500313E-1,-9.700950623E0,9.400500655E-1,9.780904665E0
2.197669011E0,6.079500318E-1,-9.751049995E0,9.240000248E-1,9.813580147E0
2.200167696E0,7.570500374E-1,-9.675000191E0,1.000050068E0,9.755965026E0
2.202666465E0,4.930500090E-1,-9.730050087E0,9.910500646E-1,9.792811304E0
2.205165234E0,3.259500265E-1,-9.760950089E0,9.379500151E-1,9.811327142E0
2.207664004E0,8.880000710E-1,-9.637050629E0,1.132050037E0,9.743860951E0
2.210162544E0,9.910500646E-1,-9.507000923E0,1.132050037E0,9.625319946E0
2.212661307E0,9.499500394E-1,-9.447000504E0,1.132050037E0,9.561891072E0
2.215160076E0,7.920000553E-1,-9.529050827E0,1.132050037E0,9.628686880E0
2.217658771E0,6.439500451E-1,-9.571950912E0,1.158000112E0,9.663223075E0
2.220157538E0,5.749500394E-1,-9.603000641E0,1.156050086E0,9.689408685E0
2.222656307E0,6.889500618E-1,-9.507000923E0,1.161000013E0,9.602376777E0
2.225154848E0,6.990000606E-1,-9.471000671E0,1.102950096E0,9.560593795E0
2.227653538E0,9.169500470E-1,-9.418950081E0,9.550500512E-1,9.511547646E0
2.230152384E0,9.840000272E-1,-9.379950523E0,9.139500260E-1,9.475601961E0
2.232651079E0,8.809500337E-1,-9.307950020E0,9.169500470E-1,9.394402798E0
2.235149846E0,8.089500666E-1,-9.366000175E0,8.830500245E-1,9.442252742E0
2.237648386E0,8.640000224E-1,-9.493050575E0,8.590500355E-1,9.570918045E0
2.240147153E0,8.860500455E-1,-9.538050652E0,8.140500188E-1,9.613645112E0
2.242645923E0,9.000000358E-1,-9.487950325E0,7.969500422E-1,9.563803156E0
2.245144617E0,7.489500642E-1,-9.531000137E0,8.689500690E-1,9.599789791E0
2.247643155E0,6.990000606E-1,-9.531000137E0,9.049500227E-1,9.599348897E0
2.250142153E0,6.610500216E-1,-9.546000481E0,8.830500245E-1,9.609520782E0
2.252640694E0,7.330500484E-1,-9.571950912E0,8.400000334E-1,9.636659520E0
2.255139384E0,8.710500598E-1,-9.640950203E0,7.920000553E-1,9.712564703E0
2.257638154E0,8.190000653E-1,-9.711000443E0,6.990000606E-1,9.770511337E0
2.260136923E0,5.869500041E-1,-9.720000267E0,7.180500627E-1,9.764144171E0
2.262635477E0,5.239500403E-1,-9.748950005E0,8.110500574E-1,9.796650041E0
2.265134244E0,4.810500145E-1,-9.748950005E0,7.180500627E-1,9.787187093E0
2.267633014E0,4.330500066E-1,-9.735000610E0,6.360000372E-1,9.765360477E0
2.270131783E0,6.460500360E-1,-9.787050247E0,5.359500051E-1,9.822982011E0
2.272630477E0,4.260000288E-1,-9.888000488E0,6.049500108E-1,9.915643912E0
2.275129016E0,3.109500110E-1,-9.964950562E0,6.559500098E-1,9.991356265E0
2.277627783E0,5.029500127E-1,-9.804000854E0,7.369500399E-1,9.844515571E0
2.280126552E0,8.520000577E-1,-9.916950226E0,1.122000098E0,1.001652086E1
2.282625246E0,1.141950011E0,-9.847050667E0,9.330000281E-1,9.956854208E0
2.285124014E0,1.135050058E0,-9.724950790E0,7.660500407E-1,9.820887902E0
2.287622773E0,8.790000677E-1,-9.778050423E0,8.380500674E-1,9.853184211E0
2.290121313E0,-4.039500058E-1,-1.021395016E1,9.760500193E-1,1.026842866E1
2.292620081E0,4.720500112E-1,-1.010295010E1,9.810000658E-1,1.016143656E1
2.295118775E0,1.228050113E0,-9.916950226E0,1.018950105E0,1.004451433E1
2.297617619E0,1.390950084E0,-9.850050926E0,9.859500527E-1,9.996516538E0
2.300116313E0,1.125000000E0,-9.936000824E0,9.070500135E-1,1.004054167E1
2.302615081E0,1.282950044E0,-9.973950386E0,9.960000515E-1,1.010532846E1
2.305113621E0,9.460500479E-1,-9.921000481E0,1.174950004E0,1.003502709E1
2.307612388E0,-8.805000782E-2,-1.022505093E1,1.209000111E0,1.029665482E1
2.310111083E0,1.482000113E0,-9.598050117E0,9.880500436E-1,9.761922622E0
2.312609831E0,1.804950118E0,-9.214950562E0,8.020500541E-1,9.424247613E0
2.315108600E0,2.680950165E0,-9.249000549E0,1.105949998E0,9.693019671E0
2.317607141E0,2.944950104E0,-9.226950645E0,1.491000056E0,9.799613793E0
2.320105908E0,2.467950106E0,-9.124050140E0,1.149000049E0,9.521516150E0
2.322604667E0,1.723950028E0,-9.577050209E0,1.030950069E0,9.785435731E0
2.325103361E0,1.338000059E0,-1.023705006E1,1.482000113E0,1.042994546E1
2.327602129E0,1.401000023E0,-1.038795090E1,1.495950103E0,1.058821003E1
2.330100669E0,1.768950105E0,-9.969000816E0,4.279500246E-1,1.013377042E1
2.332599436E0,1.788000107E0,-9.648000717E0,-8.805000782E-2,9.812676242E0
2.335098221E0,1.708950043E0,-9.976050377E0,5.020500422E-1,1.013381200E1
2.337596915E0,1.647000074E0,-1.037205029E1,8.880000710E-1,1.053947724E1
2.340095682E0,-8.350500464E-1,-1.136805058E1,4.519500136E-1,1.140763522E1
2.342594451E0,2.059500068E-1,-1.126500034E1,4.500000179E-1,1.127586574E1
2.345092992E0,1.530000091E0,-1.041900063E1,8.100000024E-2,1.053105101E1
2.347591773E0,2.215050220E0,-9.390000343E0,-3.559500277E-1,9.654286838E0
2.350090542E0,2.559000015E0,-9.567000389E0,4.830000103E-1,9.915102951E0
2.352589237E0,2.538000107E0,-9.976050377E0,1.162950039E0,1.035931844E1
2.355088004E0,2.695950031E0,-9.547950745E0,6.870000362E-1,9.945022828E0
2.357586544E0,1.927050114E0,-9.249000549E0,3.540000021E-1,9.454250330E0
2.360085312E0,1.060950041E0,-9.900000572E0,6.319500208E-1,9.976722265E0
2.362584081E0,1.410000026E-1,-1.064895058E1,1.230000019E0,1.072067766E1
2.365082775E0,1.152000070E0,-1.059195042E1,1.087050080E0,1.070972435E1
2.367581542E0,1.846050143E0,-9.213000298E0,4.695000127E-2,9.396248183E0
2.370080312E0,2.254950047E0,-9.538050652E0,1.060050011E0,9.858139580E0
2.372578847E0,3.072000027E0,-8.944950104E0,7.060500383E-1,9.484082622E0
2.375077614E0,1.068000078E0,-9.619950294E0,1.783050060E0,9.841917260E0
2.377576309E0,1.732950091E0,-9.747000694E0,1.041000009E0,9.954437180E0
2.380075076E0,1.780950069E0,-9.541050911E0,1.342950106E0,9.798313662E0
2.382573845E0,2.820000052E-1,-9.744000435E0,7.030500174E-1,9.773400013E0
2.385072386E0,8.209500313E-1,-9.760950089E0,1.234950066E0,9.872953319E0
2.387571153E0,1.990050077E0,-9.676950455E0,1.054949999E0,9.935622221E0
2.390069922E0,2.073000193E0,-1.007505035E1,1.423950076E0,1.038419969E1
2.392568616E0,1.530000091E0,-1.006995010E1,6.630000472E-1,1.020707423E1
2.395067141E0,1.705050111E0,-9.913950920E0,7.819500566E-1,1.008984958E1
2.397565908E0,2.707950115E0,-9.799050331E0,1.065000057E0,1.022196685E1
2.400064677E0,1.705050111E0,-1.003395081E1,1.165950060E0,1.024435475E1
2.402563447E0,2.595000029E0,-9.796950340E0,7.249500155E-1,1.016069947E1
2.405062141E0,2.782050133E0,-9.610050201E0,7.630500197E-1,1.003369888E1
2.407560922E0,2.598000050E0,-9.430950165E0,4.069500268E-1,9.790711598E0
2.410059691E0,2.188050032E0,-9.487950325E0,6.679500341E-1,9.759862784E0
2.412558232E0,7.249500155E-1,-1.001505089E1,6.580500603E-1,1.006279418E1
2.415056922E0,1.498950124E0,-9.943050385E0,6.030000448E-1,1.007346571E1
2.417555768E0,2.262000084E0,-9.567000389E0,5.430000424E-1,9.845759995E0
2.420054463E0,3.262950182E0,-9.213000298E0,1.018950105E0,9.826722632E0
2.422553230E0,2.583000183E0,-9.421050072E0,1.294950008E0,9.854185401E0
2.425051770E0,2.302950144E0,-9.274950027E0,6.409500241E-1,9.578052741E0
2.427550538E0,2.047049999E0,-9.031050682E0,5.809500217E-1,9.278350772E0
2.430049247E0,1.690050125E0,-8.947050095E0,9.810000658E-1,9.157965710E0
2.432548014E0,1.863000035E0,-9.040050507E0,1.063050032E0,9.291036415E0
2.435046783E0,1.987050056E0,-8.830050468E0,6.840000153E-1,9.076674238E0
2.437545553E0,2.547000170E0,-8.302950859E0,6.079500318E-1,8.706078685E0
2.440044093E0,1.575000048E0,-8.359950066E0,6.409500241E-1,8.531131647E0
2.442542850E0,2.418000221E0,-8.049000740E0,6.580500603E-1,8.430075199E0
2.445041545E0,2.380050182E0,-7.539000511E0,7.510500550E-1,7.941362840E0
2.447540312E0,2.277000189E0,-7.249050140E0,5.260500312E-1,7.616441849E0
2.450038852E0,8.100000024E-2,-7.768950462E0,1.240500063E-1,7.770362970E0
2.452537610E0,1.257000089E0,-8.152050018E0,8.299500346E-1,8.290041362E0
2.455036379E0,1.542000055E0,-8.944950104E0,1.240050077E0,9.161201926E0
2.457535073E0,1.654050112E0,-9.427950859E0,1.615950108E0,9.707390686E0
2.460033840E0,1.345950007E0,-9.936000824E0,1.606050134E0,1.015456010E1
2.462532625E0,1.647000074E0,-9.892950058E0,1.351950049E0,1.011982406E1
2.465031394E0,1.836000085E0,-9.817950249E0,1.098000050E0,1.004831566E1
2.467529934E0,1.788000107E0,-9.711000443E0,1.004999995E0,9.925245537E0
2.470028701E0,1.435950041E0,-9.754050255E0,1.039050102E0,9.913782023E0
2.472527396E0,-5.350500345E-1,-1.049805069E1,1.114950061E0,1.057064144E1
2.475026158E0,3.930000067E-1,-1.053900051E1,1.117950082E0,1.060541339E1
2.477524698E0,1.642050028E0,-1.003395081E1,1.125000000E0,1.022947321E1
2.480023466E0,2.262000084E0,-1.012305069E1,1.608000040E0,1.049659296E1
2.482522235E0,2.715000153E0,-1.030200005E1,1.822050095E0,1.080843640E1
2.485020929E0,2.446950197E0,-1.002405071E1,1.558050036E0,1.043535710E1
2.487519673E0,1.899000049E0,-9.435000420E0,1.072050095E0,9.683735101E0
2.490018442E0,8.020500541E-1,-9.319950104E0,6.790500283E-1,9.379011844E0
2.492516982E0,1.180050015E0,-8.989950180E0,7.630500197E-1,9.099119057E0
2.495015749E0,2.365050077E0,-8.812950134E0,1.234950066E0,9.207966855E0
2.497514444E0,2.338950157E0,-9.237000465E0,1.474050045E0,9.641871653E0
2.500013225E0,1.695000052E0,-9.916950226E0,1.362000108E0,1.015253521E1
2.502511994E0,1.246950030E0,-1.067595005E1,9.450000525E-1,1.078998698E1
2.505010535E0,1.278000116E0,-1.095105076E1,8.400000334E-1,1.105732323E1
2.507509302E0,1.192050099E0,-1.113795090E1,1.108050108E0,1.125622977E1
2.510008081E0,1.197000027E0,-1.112295055E1,1.084050059E0,1.123957306E1
2.512506775E0,1.417050123E0,-1.083795071E1,8.059500456E-1,1.095987053E1
2.515005543E0,1.579950094E0,-1.059900093E1,7.900500298E-1,1.074519623E1
2.517504312E0,7.395000011E-2,-1.043400097E1,5.650500059E-1,1.044955149E1
2.520002852E0,1.269000053E0,-9.937950134E0,5.860500336E-1,1.003576946E1
2.522501620E0,2.257950068E0,-9.481050491E0,3.660000265E-1,9.753082228E0
2.525000314E0,2.382000208E0,-9.457050323E0,7.750500441E-1,9.783170671E0
2.527499081E0,2.365050077E0,-9.613050461E0,1.030950069E0,9.953243646E0
2.529997850E0,1.804950118E0,-9.663000107E0,1.017000079E0,9.882596074E0
2.532496386E0,1.171050072E0,-1.009095001E1,9.760500193E-1,1.020545462E1
2.534995153E0,1.168050051E0,-1.017495060E1,7.849500179E-1,1.027181129E1
2.537493922E0,1.197000027E0,-1.028295040E1,4.660500288E-1,1.036287029E1
2.539992617E0,6.100500226E-1,-1.084995079E1,7.110000253E-1,1.089032204E1
2.542491384E0,1.147050023E0,-1.057695007E1,2.959500253E-1,1.064308146E1
2.544989943E0,1.173000097E0,-1.051005077E1,3.850500286E-1,1.058231355E1
2.547488711E0,8.760000467E-1,-1.076400089E1,6.270000339E-1,1.081777335E1
2.549987480E0,1.378950119E0,-1.040505028E1,6.030000448E-1,1.051333362E1
2.552486174E0,1.305000067E0,-1.024695015E1,7.180500627E-1,1.035464188E1
2.554984941E0,1.669050097E0,-9.787050247E0,5.860500336E-1,9.945628960E0
2.557483731E0,1.936950088E0,-9.205950737E0,3.919500113E-1,9.415674666E0
2.559982271E0,1.582950115E0,-9.142950058E0,4.780500233E-1,9.291275405E0
2.562481038E0,1.515000105E0,-8.811000824E0,3.130500019E-1,8.945778957E0
2.564979733E0,8.359500170E-1,-9.007050514E0,4.810500145E-1,9.058541854E0
2.567478500E0,9.310500622E-1,-8.904000282E0,5.670000315E-1,8.970482946E0
2.569977035E0,1.060950041E0,-8.767050743E0,4.999500215E-1,8.845153687E0
2.572475803E0,1.084950089E0,-8.518050194E0,6.100500226E-1,8.608510721E0
2.574974572E0,1.055999994E0,-8.347949982E0,7.369500399E-1,8.446685755E0
2.577473341E0,1.057950020E0,-8.241000175E0,9.049500227E-1,8.357767446E0
2.579972035E0,1.077000022E0,-8.206950188E0,1.153950095E0,8.357365689E0
2.582470808E0,9.120000601E-1,-8.221950531E0,1.489050031E0,8.405324779E0
2.584969577E0,5.170500278E-1,-8.338950157E0,1.879050136E0,8.563659257E0
2.587468117E0,7.570500374E-1,-8.164050102E0,1.924050093E0,8.421805483E0
2.589966885E0,6.610500216E-1,-8.173950195E0,1.992000103E0,8.439106193E0
2.592465654E0,6.580500603E-1,-8.181000710E0,2.053950071E0,8.460526780E0
2.594964334E0,7.690500617E-1,-8.037000656E0,2.013000011E0,8.320876552E0
2.597463101E0,1.183050036E0,-7.719000340E0,2.023050070E0,8.066926628E0
2.599961642E0,1.462950110E0,-7.327950478E0,1.162950039E0,7.562508448E0
2.602460409E0,1.129950047E0,-6.826050282E0,-1.650000066E-1,6.920908507E0
2.604959103E0,0.000000000E0,-6.756000519E0,7.780500650E-1,6.800654742E0
2.607457871E0,-1.612950087E0,-7.587000370E0,1.644000053E0,7.928866172E0
2.609956640E0,-2.733000040E0,-8.605050087E0,4.900500178E-1,9.041920440E0
2.612455180E0,-2.548950195E0,-9.082950592E0,-1.210950017E0,9.511232228E0
2.614953948E0,-1.950000048E0,-9.379950523E0,-1.666050076E0,9.724283771E0
2.617452627E0,-1.420950055E0,-9.510000229E0,-1.504950047E0,9.732629555E0
2.619951394E0,-6.910500526E-1,-9.639000893E0,-1.204050064E0,9.738461118E0
2.622450163E0,-1.800000109E-2,-9.655950546E0,-9.790500402E-1,9.705474946E0
2.624948704E0,1.099500060E-1,-9.883050919E0,-5.910000205E-1,9.901316351E0
2.627447457E0,1.410000026E-1,-1.009905052E1,1.905000024E-2,1.010005274E1
2.629946226E0,-1.120500043E-1,-1.042395020E1,5.449500084E-1,1.043878649E1
2.632444921E0,-4.900500178E-1,-1.066395092E1,9.210000634E-1,1.071486068E1
2.634943688E0,-6.480000019E-1,-1.062300014E1,1.213050008E0,1.071165377E1
2.637442457E0,-8.269500136E-1,-1.059705067E1,1.494000077E0,1.073374890E1
2.639940993E0,-9.930000305E-1,-1.056795025E1,1.753950119E0,1.075843681E1
2.642439760E0,-1.045050025E0,-1.057995033E1,1.977000117E0,1.081369539E1
2.644938454E0,-1.120050073E0,-1.057305050E1,2.077950001E0,1.083336445E1
2.647437221E0,-1.287000060E0,-1.055295086E1,2.193000078E0,1.085497077E1
2.649935972E0,-1.339950085E0,-1.058700085E1,2.266950130E0,1.090958826E1
2.652434512E0,-1.239000082E0,-1.060605049E1,2.346000195E0,1.093284707E1
2.654933279E0,-1.045050025E0,-1.066605091E1,2.394000053E0,1.098125712E1
2.657432049E0,-7.600500584E-1,-1.075905037E1,2.490000010E0,1.106955017E1
2.659930818E0,-6.190500259E-1,-1.078800011E1,2.533050060E0,1.109867163E1
2.662429512E0,-4.900500178E-1,-1.080000019E1,2.749950171E0,1.115537445E1
2.664928279E0,-8.295000345E-2,-1.061295033E1,2.959050179E0,1.101805669E1
2.667426820E0,8.550000191E-1,-1.013205051E1,2.712000132E0,1.052351735E1
2.669925587E0,7.279500365E-1,-1.002900028E1,2.407950163E0,1.033967997E1
2.672424281E0,2.509500086E-1,-1.010295010E1,2.121000051E0,1.032623928E1
2.674923073E0,2.749500275E-1,-1.007895088E1,2.134950161E0,1.030625347E1
2.677421842E0,4.980000257E-1,-1.002195072E1,2.310000181E0,1.029677625E1
2.679920382E0,4.789500237E-1,-1.014600086E1,2.530050039E0,1.046765876E1
2.682419150E0,3.589500189E-1,-1.036905003E1,2.836950064E0,1.075612984E1
2.684917919E0,3.850500286E-1,-1.057005024E1,3.117000103E0,1.102678173E1
2.687416594E0,5.100000501E-1,-1.072800064E1,3.162000179E0,1.119590742E1
2.689915361E0,9.310500622E-1,-1.066605091E1,3.028050184E0,1.112657109E1
2.692413902E0,1.249950051E0,-1.046295071E1,2.758050203E0,1.089231626E1
2.694912669E0,1.198950052E0,-1.039305019E1,2.442000151E0,1.074319963E1
2.697411438E0,1.060950041E0,-1.038105011E1,2.193000078E0,1.066307018E1
2.699910118E0,9.910500646E-1,-1.041495037E1,1.993950129E0,1.065031495E1
2.702408885E0,1.080000043E0,-1.041000080E1,1.792950034E0,1.061834199E1
2.704907654E0,1.207050085E0,-1.034805012E1,1.611000061E0,1.054203170E1
2.707406194E0,1.209000111E0,-1.035495090E1,1.462050080E0,1.052731115E1
2.709904957E0,1.177950025E0,-1.038105011E1,1.363950014E0,1.053632418E1
2.712403726E0,9.910500646E-1,-1.045800018E1,1.375950098E0,1.059458290E1
2.714902420E0,8.929500580E-1,-1.059900093E1,1.423950076E0,1.073144046E1
2.717401188E0,9.120000601E-1,-1.065405083E1,1.564950109E0,1.080692426E1
2.719899728E0,9.940500259E-1,-1.064895058E1,1.632000089E0,1.081904377E1
2.722398471E0,9.190500379E-1,-1.063995075E1,1.666050076E0,1.080874312E1
2.724897240E0,8.329500556E-1,-1.057695007E1,1.726050138E0,1.074918265E1
2.727395935E0,7.129500508E-1,-1.056795025E1,1.732950091E0,1.073279955E1
2.729894702E0,5.820000172E-1,-1.056795025E1,1.752000093E0,1.072799146E1
2.732393242E0,4.620000124E-1,-1.058700085E1,1.804950118E0,1.074969190E1
2.734892015E0,4.020000100E-1,-1.051995087E1,1.893000126E0,1.069646763E1
2.737390709E0,3.420000076E-1,-1.039305019E1,1.953000069E0,1.058048513E1
2.739889476E0,3.589500189E-1,-1.028295040E1,1.933950067E0,1.046938761E1
2.742388246E0,3.499500155E-1,-1.018995094E1,1.881000042E0,1.036801458E1
2.744887015E0,1.800000072E-1,-1.004595089E1,1.812000036E0,1.020964610E1
2.747385525E0,1.030500084E-1,-9.832950592E0,1.833000064E0,1.000287088E1
2.749884292E0,4.500000179E-2,-9.694050789E0,1.812000036E0,9.862047953E0
2.752383062E0,3.600000218E-2,-9.538050652E0,1.822050095E0,9.710590753E0
2.754881756E0,-7.304999977E-2,-9.438000679E0,1.872000098E0,9.622139964E0
2.757380514E0,-1.590000093E-1,-9.270000458E0,1.957950115E0,9.475851315E0
2.759879283E0,-2.190000117E-1,-9.094950676E0,2.121000051E0,9.341559293E0
2.762377824E0,-2.220000178E-1,-8.920950890E0,2.146950006E0,9.178346426E0
2.764876591E0,-3.270000219E-1,-8.794050217E0,2.229000092E0,9.078033357E0
2.767375285E0,-3.919500113E-1,-8.655000687E0,2.334000111E0,8.972748643E0
2.769874052E0,-4.300500154E-1,-8.425050735E0,2.443950176E0,8.782899030E0
2.772372821E0,-4.489500225E-1,-8.314949989E0,2.500950098E0,8.694521312E0
2.774871361E0,-4.039500058E-1,-8.237999916E0,2.547000170E0,8.632208761E0
2.777370129E0,-3.460500240E-1,-8.133000374E0,2.509050131E0,8.518261458E0
2.779868903E0,-4.609500170E-1,-8.085000038E0,2.533050060E0,8.485048211E0
2.782367597E0,-5.500500202E-1,-8.004000664E0,2.539950132E0,8.415338872E0
2.784866364E0,-7.050000429E-1,-7.929000378E0,2.560950041E0,8.362089282E0
2.787364905E0,-8.850000501E-1,-7.867050171E0,2.611950159E0,8.336425320E0
2.789863672E0,-9.229500294E-1,-7.776000500E0,2.512950182E0,8.223924802E0
2.792362361E0,-9.640500546E-1,-7.708950520E0,2.454000235E0,8.147357104E0
2.794861129E0,-9.810000658E-1,-7.570050240E0,2.437050104E0,8.012941718E0
2.797359898E0,-1.038000107E0,-7.434000492E0,2.326950073E0,7.858530663E0
2.799858438E0,-1.153050065E0,-7.318950176E0,2.221050024E0,7.734960850E0
2.802357206E0,-1.249050021E0,-7.222950459E0,2.101950169E0,7.625571047E0
2.804855999E0,-1.237050056E0,-7.125000477E0,1.941000104E0,7.487550069E0
2.807354693E0,-1.266000032E0,-7.017000198E0,1.731000066E0,7.337397978E0
2.809853460E0,-1.318050027E0,-6.895050526E0,1.534050107E0,7.185561033E0
2.812352001E0,-1.369050026E0,-6.802050114E0,1.336050034E0,7.065919149E0
2.814850768E0,-1.372950077E0,-6.691950321E0,1.122000098E0,6.922866114E0
2.817349547E0,-1.360950112E0,-6.613050461E0,9.400500655E-1,6.816767249E0
2.819848242E0,-1.306050062E0,-6.534000397E0,7.390500307E-1,6.704112387E0
2.822347009E0,-1.225050092E0,-6.447000504E0,5.599500537E-1,6.586205834E0
2.824845778E0,-1.126950026E0,-6.391950130E0,3.990000188E-1,6.502787390E0
2.827344309E0,-1.078950047E0,-6.358950138E0,2.580000162E-1,6.454993731E0
2.829843076E0,-1.036050081E0,-6.370950222E0,1.120500043E-1,6.455614743E0
2.832341845E0,-1.000050068E0,-6.447000504E0,-4.050000105E-3,6.524103926E0
2.834840539E0,-9.619500637E-1,-6.558000088E0,-9.300000221E-2,6.628828107E0
2.837339312E0,-9.900000691E-1,-6.699000359E0,-1.789500117E-1,6.774122013E0
2.839837852E0,-8.899500370E-1,-6.838050365E0,-2.250000089E-1,6.899389022E0
2.842336619E0,-7.480500340E-1,-6.996000290E0,-1.890000105E-1,7.038417430E0
2.844835389E0,-5.980500579E-1,-7.185000420E0,-1.549500078E-1,7.211511936E0
2.847334083E0,-4.990500212E-1,-7.431000233E0,-8.595000207E-2,7.448234877E0
2.849832864E0,-3.750000298E-1,-7.695000172E0,-9.000000544E-3,7.704137438E0
2.852331633E0,-2.500500083E-1,-7.989000320E0,1.099500060E-1,7.993668753E0
2.854830174E0,-6.795000285E-2,-8.200050354E0,2.800500095E-1,8.205112493E0
2.857328941E0,6.705000252E-2,-8.451000214E0,3.799500167E-1,8.459802736E0
2.859827635E0,7.905000448E-2,-8.739000320E0,4.710000157E-1,8.752040706E0
2.862326389E0,2.230500132E-1,-8.911050797E0,7.060500383E-1,8.941760691E0
2.864825158E0,1.395000052E-2,-9.213000298E0,9.570000172E-1,9.262581612E0
2.867323698E0,-1.549500078E-1,-9.534000397E0,1.158000112E0,9.605318179E0
2.869822466E0,-2.460000068E-1,-9.787050247E0,1.267950058E0,9.871907916E0
2.872321235E0,-3.490500152E-1,-1.006995010E1,1.351950049E0,1.016629234E1
2.874819934E0,-4.780500233E-1,-1.033800030E1,1.441050053E0,1.044889502E1
2.877318701E0,-2.410500050E-1,-1.040700054E1,1.603950024E0,1.053263600E1
2.879817471E0,-1.210500076E-1,-1.047405052E1,1.711050034E0,1.061357996E1
2.882316011E0,3.795000166E-2,-1.049595070E1,1.743000031E0,1.063975894E1
2.884814778E0,1.560000032E-1,-1.056495094E1,1.699050069E0,1.070183608E1
2.887313463E0,1.390500069E-1,-1.074000072E1,1.623000026E0,1.086283018E1
2.889812230E0,7.395000011E-2,-1.101600075E1,1.567950130E0,1.112727319E1
2.892310999E0,4.120500088E-1,-1.104705048E1,1.582050085E0,1.116736280E1
2.894809540E0,7.300500274E-1,-1.074300098E1,1.642050028E0,1.089226200E1
2.897308307E0,9.340500236E-1,-1.052700043E1,1.687050104E0,1.070216452E1
2.899807081E0,1.075049996E0,-1.033800030E1,1.753950119E0,1.054069844E1
2.902305775E0,1.233000040E0,-1.013700008E1,1.852950096E0,1.037846250E1
2.904804543E0,1.290000081E0,-9.916950226E0,1.915050149E0,1.018221091E1
2.907303083E0,1.330950022E0,-9.646050453E0,1.852950096E0,9.912171375E0
2.909801879E0,1.432050109E0,-9.301050186E0,1.792950034E0,9.579925464E0
2.912300574E0,1.498950124E0,-8.890050888E0,1.743000031E0,9.182478172E0
2.914799341E0,1.531950116E0,-8.389050484E0,1.579950094E0,8.672905019E0
2.917298110E0,1.708950043E0,-7.834050179E0,1.306950092E0,8.124098165E0
2.919796869E0,1.882050037E0,-7.185000420E0,1.036050081E0,7.499316178E0
2.922295410E0,1.864950061E0,-6.553050518E0,7.920000553E-1,6.859137986E0
2.924794177E0,1.783950090E0,-5.851050377E0,4.590000212E-1,6.134162490E0
2.927292946E0,1.525050044E0,-5.241000175E0,9.495000541E-2,5.459201039E0
2.929791641E0,1.197000027E0,-4.692000389E0,-1.930500120E-1,4.846126806E0
2.932290209E0,9.769500494E-1,-4.192049980E0,-4.879500270E-1,4.331952177E0
2.934788976E0,8.280000687E-1,-3.756000280E0,-6.670500040E-1,3.903598075E0
2.937287746E0,6.889500618E-1,-3.373050213E0,-8.209500313E-1,3.539220095E0
2.939786440E0,5.550000072E-1,-3.040050030E0,-9.240000248E-1,3.225477521E0
2.942285221E0,4.720500112E-1,-2.808000088E0,-1.051050067E0,3.035193890E0
2.944783990E0,3.589500189E-1,-2.674050093E0,-1.218000054E0,2.960221807E0
2.947282531E0,4.309500158E-1,-2.545050144E0,-1.266000032E0,2.875022476E0
2.949781298E0,3.730500042E-1,-2.557050228E0,-1.378950119E0,2.929022978E0
2.952280077E0,1.680000126E-1,-2.566050053E0,-1.249050021E0,2.858839421E0
2.954778772E0,-1.399500072E-1,-2.515950203E0,-8.250000477E-1,2.651455545E0
2.957277539E0,-5.640000105E-1,-2.614050150E0,-3.970500231E-1,2.703516769E0
2.959776079E0,-1.009050012E0,-2.844000101E0,1.605000161E-2,3.017743545E0
2.962274846E0,-1.170000076E0,-3.105000257E0,3.660000265E-1,3.338245467E0
2.964773611E0,-1.012050033E0,-3.330000162E0,7.969500422E-1,3.570472758E0
2.967272305E0,-8.539500237E-1,-3.637050152E0,1.278000116E0,3.948499556E0
2.969771072E0,-8.509500623E-1,-4.099050045E0,1.561050057E0,4.468020206E0
2.972269842E0,-8.989500403E-1,-4.657050133E0,1.711050034E0,5.042213733E0
2.974768382E0,-8.299500346E-1,-5.241000175E0,1.786050081E0,5.598827984E0
2.977267154E0,-7.339500189E-1,-5.854050159E0,1.845000029E0,6.181634978E0
2.979765849E0,-6.960000396E-1,-6.511950493E0,1.905000091E0,6.820479501E0
2.982264616E0,-7.840500474E-1,-7.249050140E0,1.953000069E0,7.548355561E0
2.984763385E0,-9.499500394E-1,-8.013000488E0,1.864950061E0,8.281824716E0
2.987261925E0,-1.162950039E0,-8.868000031E0,1.828950047E0,9.129016136E0
2.989760683E0,-1.411950111E0,-9.766050339E0,1.740000129E0,1.001982748E1
2.992259452E0,-1.561950088E0,-1.071105003E1,1.599000096E0,1.094180434E1
2.994758146E0,-1.716000080E0,-1.175505066E1,1.510050058E0,1.197522958E1
2.997256913E0,-1.788000107E0,-1.283295059E1,1.417050123E0,1.303417034E1
2.999755674E0,-1.627050042E0,-1.386195087E1,1.300050020E0,1.401752845E1
3.002254214E0,-1.468950033E0,-1.489395046E1,1.141950011E0,1.500971767E1
3.004752981E0,-1.227000117E0,-1.591395092E1,1.065000057E0,1.599667429E1
3.007251751E0,-9.619500637E-1,-1.694805145E1,1.006950021E0,1.700516816E1
3.009750445E0,-6.499500275E-1,-1.798005104E1,9.910500646E-1,1.801906909E1
3.012249240E0,-3.439500034E-1,-1.900995064E1,9.210000634E-1,1.903535568E1
3.014747781E0,-1.800000109E-2,-2.011095047E1,8.040000200E-1,2.012702335E1
3.017246548E0,2.590500116E-1,-2.117700195E1,8.280000687E-1,2.119476593E1
3.019745317E0,6.510000229E-1,-2.223495102E1,7.440000176E-1,2.225691766E1
3.022244011E0,1.057950020E0,-2.326695061E1,6.460500360E-1,2.329994913E1
3.024742789E0,1.413000107E0,-2.433495140E1,6.679500341E-1,2.438508942E1
3.027241329E0,1.750050068E0,-2.533500099E1,7.680000067E-1,2.540698279E1
3.029740096E0,2.047049999E0,-2.616105080E1,9.550500512E-1,2.625839129E1
3.032238866E0,2.233950138E0,-2.692305183E1,1.318950057E0,2.704775189E1
3.034737560E0,2.125950098E0,-2.759295082E1,1.987050056E0,2.774597208E1
3.037236317E0,1.744950056E0,-2.810805130E1,2.949000120E0,2.831614381E1
3.039735086E0,1.261950016E0,-2.839500046E1,3.895050287E0,2.868867347E1
3.042233627E0,4.429500103E-1,-2.851005173E1,4.879050255E0,2.892791706E1
3.044732394E0,-3.390000165E-1,-2.848095131E1,5.737950325E0,2.905518168E1
3.047231163E0,-1.390050054E0,-2.809605217E1,6.505050182E0,2.887275644E1
3.049729863E0,-2.014950037E0,-2.767005157E1,6.789000511E0,2.856190305E1
3.052228630E0,-2.632950068E0,-2.715705109E1,6.754050255E0,2.810791783E1
3.054727170E0,-3.298050165E0,-2.647695160E1,6.402000427E0,2.743887225E1
3.057225938E0,-3.784050226E0,-2.576400185E1,6.013950348E0,2.672583817E1
3.059724632E0,-3.978000164E0,-2.500695038E1,5.650050163E0,2.594407677E1
3.062223409E0,-4.198050022E0,-2.443005180E1,5.323950291E0,2.535341203E1
3.064722178E0,-4.291950226E0,-2.390805054E1,5.154000282E0,2.483101762E1
3.067220948E0,-4.107000351E0,-2.345295143E1,4.978950024E0,2.432484997E1
3.069719488E0,-3.997050285E0,-2.311800194E1,4.813950062E0,2.394979206E1
3.072218255E0,-3.636000156E0,-2.277300072E1,4.671000004E0,2.352973225E1
3.074716974E0,-3.193050146E0,-2.240205193E1,4.503000259E0,2.307215879E1
3.077215741E0,-2.884050131E0,-2.200695038E1,4.429050446E0,2.263272184E1
3.079714281E0,-2.625000238E0,-2.150895119E1,4.394999981E0,2.210976328E1
3.082213049E0,-2.356950045E0,-2.109495163E1,4.357050419E0,2.166878137E1
3.084711818E0,-2.038950205E0,-2.079795074E1,4.204050064E0,2.131633435E1
3.087210577E0,-1.776000142E0,-2.059695053E1,4.030950069E0,2.106269466E1
3.089709271E0,-1.585950017E0,-2.031000137E1,3.982950211E0,2.075753563E1
3.092208039E0,-1.522050023E0,-1.996995163E1,3.985950232E0,2.042066119E1
3.094706579E0,-1.536000013E0,-1.959900093E1,4.017000198E0,2.006530399E1
3.097205346E0,-1.411950111E0,-1.926105118E1,4.090950012E0,1.974126560E1
3.099704027E0,-1.170000076E0,-1.897905159E1,4.194000244E0,1.947210665E1
3.102202794E0,-9.540000558E-1,-1.877805138E1,4.246950150E0,1.927594136E1
3.104701563E0,-8.130000234E-1,-1.857900047E1,4.194000244E0,1.906383659E1
3.107200104E0,-8.029500246E-1,-1.837995148E1,4.122000217E0,1.885359994E1
3.109698871E0,-8.320500255E-1,-1.812600136E1,4.078950405E0,1.859790496E1
3.112197640E0,-8.130000234E-1,-1.782900047E1,3.960000277E0,1.828157075E1
3.114696334E0,-8.080500364E-1,-1.745805168E1,3.865950108E0,1.789922020E1
3.117195102E0,-7.099500299E-1,-1.702005005E1,3.760950089E0,1.744508178E1
3.119693871E0,-6.139500141E-1,-1.655294991E1,3.682050228E0,1.696863516E1
3.122192395E0,-6.139500141E-1,-1.609395027E1,3.547950268E0,1.649181982E1
3.124691163E0,-5.640000105E-1,-1.571505070E1,3.469050169E0,1.610326748E1
3.127189932E0,-5.380499959E-1,-1.539900112E1,3.375000238E0,1.577369202E1
3.129688626E0,-5.500500202E-1,-1.504995060E1,3.307950258E0,1.541901758E1
3.132187384E0,-5.260500312E-1,-1.471695042E1,3.262950182E0,1.508350762E1
3.134685925E0,-5.070000291E-1,-1.443705082E1,3.310950041E0,1.482052211E1
3.137184692E0,-4.849500358E-1,-1.420005035E1,3.397050142E0,1.460878353E1
3.139683461E0,-4.780500233E-1,-1.400100040E1,3.514050245E0,1.444316770E1
3.142182156E0,-5.929500461E-1,-1.375695038E1,3.634050131E0,1.424119355E1
3.144680899E0,-7.480500340E-1,-1.352505112E1,3.733950138E0,1.405094197E1
3.147179668E0,-9.690000415E-1,-1.325895023E1,3.828000069E0,1.383446085E1
3.149678209E0,-1.243950009E0,-1.296705055E1,3.916050196E0,1.360247260E1
3.152176976E0,-1.491000056E0,-1.259295082E1,3.985950232E0,1.329260286E1
3.154675660E0,-1.645950079E0,-1.216200066E1,4.173000336E0,1.296292187E1
3.157174427E0,-1.797000051E0,-1.164495087E1,4.375950336E0,1.256913009E1
3.159673197E0,-1.870950103E0,-1.111095047E1,4.606050014E0,1.217248419E1
3.162171737E0,-1.936050057E0,-1.055805016E1,4.872000217E0,1.178800658E1
3.164670499E0,-1.969050050E0,-9.924000740E0,5.097000122E0,1.132882867E1
3.167169269E0,-2.058000088E0,-9.274950027E0,5.299950123E0,1.087885719E1
3.169667963E0,-2.166000128E0,-8.608950615E0,5.499000072E0,1.044244172E1
3.172166730E0,-2.161050081E0,-7.912950516E0,5.724000454E0,1.000245492E1
3.174665499E0,-2.062950134E0,-7.174950123E0,5.892000198E0,9.510590879E0
3.177164050E0,-2.020050049E0,-6.493050098E0,5.968050480E0,9.047537141E0
3.179662817E0,-1.893000126E0,-5.839050293E0,5.986950397E0,8.574469830E0
3.182161511E0,-1.792050123E0,-5.242950439E0,5.968050480E0,8.143561843E0
3.184660279E0,-1.657950044E0,-4.630050182E0,5.989950180E0,7.750204268E0
3.187159048E0,-1.459050059E0,-4.009950161E0,5.944050312E0,7.317121120E0
3.189657597E0,-1.225050092E0,-3.385050058E0,5.856000423E0,6.874012844E0
3.192156365E0,-1.012050033E0,-2.755950212E0,5.734050274E0,6.441959282E0
3.194655134E0,-8.470500112E-1,-2.188050032E0,5.614050388E0,6.084621469E0
3.197153828E0,-7.129500508E-1,-1.660950065E0,5.458050251E0,5.749553499E0
3.199652576E0,-5.230500102E-1,-1.180050015E0,5.248050213E0,5.404454680E0
3.202151117E0,-3.960000277E-1,-7.350000143E-1,5.011050224E0,5.080124545E0
3.204649884E0,-2.890500128E-1,-3.180000186E-1,4.732950211E0,4.752419554E0
3.207148653E0,-2.650500238E-1,5.700000376E-2,4.327950001E0,4.336433065E0
3.209647348E0,-3.169500232E-1,3.649500310E-1,3.880950212E0,3.910936000E0
3.212146096E0,-3.990000188E-1,6.550500393E-1,3.483000278E0,3.566452370E0
3.214644865E0,-4.830000103E-1,8.970000148E-1,3.013950109E0,3.181476591E0
3.217143405E0,-6.190500259E-1,1.123950005E0,2.557050228E0,2.860942575E0
3.219642173E0,-7.410000563E-1,1.335000038E0,2.085000038E0,2.584285461E0
3.222140876E0,-8.110500574E-1,1.524000049E0,1.696950078E0,2.420747387E0
3.224639643E0,-8.749500513E-1,1.692000031E0,1.339950085E0,2.328919906E0
3.227138184E0,-9.160500169E-1,1.837950110E0,1.033950090E0,2.299187037E0
3.229636951E0,-9.450000525E-1,1.977000117E0,7.780500650E-1,2.325277718E0
3.232135720E0,-9.400500655E-1,2.130000114E0,6.150000095E-1,2.408073841E0
3.234634415E0,-9.330000281E-1,2.235000134E0,4.519500136E-1,2.463731614E0
3.237133182E0,-9.420000315E-1,2.350050211E0,3.919500113E-1,2.561976749E0
3.239631951E0,-9.300000668E-1,2.452950001E0,3.040500283E-1,2.640891942E0
3.242130720E0,-8.989500403E-1,2.583000183E0,2.869500220E-1,2.749971170E0
3.244629276E0,-8.940000534E-1,2.652000189E0,2.700000107E-1,2.811626060E0
3.247128043E0,-8.440500498E-1,2.769000053E0,3.109500110E-1,2.911438080E0
3.249626737E0,-8.250000477E-1,2.839050055E0,3.970500231E-1,2.983031849E0
3.252125504E0,-8.320500255E-1,2.961000204E0,5.329500437E-1,3.121516491E0
3.254624045E0,-8.370000124E-1,3.054000139E0,6.910500526E-1,3.241147335E0
3.257122802E0,-8.539500237E-1,3.150000095E0,8.640000224E-1,3.376126076E0
3.259621571E0,-8.710500598E-1,3.193050146E0,1.066950083E0,3.477453080E0
3.262120266E0,-9.259500504E-1,3.246000051E0,1.252050042E0,3.600212374E0
3.264619033E0,-9.330000281E-1,3.331950188E0,1.435950041E0,3.746242601E0
3.267117802E0,-9.229500294E-1,3.388950109E0,1.599000096E0,3.859225429E0
3.269616348E0,-9.259500504E-1,3.412950277E0,1.699050069E0,3.923312915E0
3.272115115E0,-9.400500655E-1,3.502050161E0,1.762050033E0,4.031484810E0
3.274613809E0,-9.660000205E-1,3.547050238E0,1.780950069E0,4.084911820E0
3.277112576E0,-9.499500394E-1,3.567000151E0,1.765950084E0,4.092001326E0
3.279611346E0,-9.379500151E-1,3.598050117E0,1.873950124E0,4.163820835E0
3.282109900E0,-9.040500522E-1,3.543000221E0,2.074949980E0,4.204232924E0
3.284608667E0,-9.420000315E-1,3.511050224E0,2.013000011E0,4.155358803E0
3.287107437E0,-9.259500504E-1,3.717000246E0,1.504950047E0,4.115622549E0
3.289606131E0,-9.349500537E-1,3.849000216E0,1.134000063E0,4.120059515E0
3.292104898E0,-8.749500513E-1,3.946950197E0,1.255950093E0,4.233363212E0
3.294603653E0,-8.370000124E-1,4.110000134E0,1.087050080E0,4.332937571E0
3.297102194E0,-9.180000424E-1,4.085999966E0,1.012050033E0,4.308406326E0
3.299600961E0,-1.074000001E0,4.009050369E0,1.102950096E0,4.294468510E0
3.302099655E0,-1.143000007E0,4.021049976E0,1.089000106E0,4.319862632E0
3.304598423E0,-1.155000091E0,3.898950100E0,1.110000014E0,4.215203094E0
3.307097192E0,-1.275000095E0,3.789000273E0,1.177050114E0,4.167444694E0
3.309595732E0,-1.306050062E0,3.796050072E0,9.979500771E-1,4.136625106E0
3.312094500E0,-1.420950055E0,3.744000196E0,9.210000634E-1,4.109121274E0
3.314593269E0,-1.507050037E0,3.625950098E0,8.400000334E-1,4.015509181E0
3.317091963E0,-1.644000053E0,3.262050152E0,1.033950090E0,3.796414118E0
3.319590715E0,-1.810950041E0,2.785950184E0,2.158950090E0,3.962590563E0
3.322089256E0,-1.785000086E0,2.685000181E0,1.891050100E0,3.737849885E0
3.324588023E0,-1.725000024E0,2.575050116E0,1.042950034E0,3.270206867E0
3.327086792E0,-1.720050097E0,2.500950098E0,8.569500446E-1,3.153995420E0
3.329585487E0,-1.669950128E0,2.410050154E0,5.670000315E-1,2.986396526E0
3.332084254E0,-1.528950095E0,2.254050016E0,6.889500618E-1,2.809462948E0
3.334583023E0,-1.486050129E0,2.155950069E0,7.200000286E-1,2.715670401E0
3.337081564E0,-1.426050067E0,2.089050055E0,7.920000553E-1,2.650474111E0
3.339580331E0,-1.050000072E0,1.891050100E0,8.260500431E-1,2.315368071E0
3.342079035E0,-4.369500279E-1,1.443000078E0,5.839500427E-1,1.616840192E0
3.344577802E0,-1.759500057E-1,1.018950105E0,2.370000184E-1,1.060842462E0
3.347076572E0,-1.140000075E-1,6.240000129E-1,-3.795000166E-2,6.354622101E-1
3.349575112E0,-2.359500080E-1,2.580000162E-1,-2.359500080E-1,4.217923908E-1
3.352073879E0,-4.180500209E-1,-6.195000187E-2,-3.510000110E-1,5.493674821E-1
3.354572663E0,-6.480000019E-1,-3.330000043E-1,-4.710000157E-1,8.675448231E-1
3.357071357E0,-8.320500255E-1,-5.220000148E-1,-6.240000129E-1,1.163686932E0
3.359570124E0,-9.589500427E-1,-6.889500618E-1,-7.390500307E-1,1.392994013E0
3.362068893E0,-1.038000107E0,-8.190000653E-1,-8.449500203E-1,1.569122642E0
3.364567434E0,-1.057050109E0,-9.360000491E-1,-9.280500412E-1,1.689594006E0
3.367066177E0,-1.054949999E0,-9.889500737E-1,-1.033950090E0,1.777637347E0
3.369564871E0,-9.900000691E-1,-1.029000044E0,-1.105949998E0,1.806119217E0
3.372063639E0,-9.330000281E-1,-1.044000030E0,-1.150950074E0,1.812487569E0
3.374562179E0,-8.539500237E-1,-1.051050067E0,-1.185000062E0,1.799489381E0
3.377060946E0,-7.819500566E-1,-1.041000009E0,-1.182000041E0,1.758479743E0
3.379559716E0,-6.889500618E-1,-1.068000078E0,-1.170000076E0,1.727476927E0
3.382058485E0,-6.049500108E-1,-1.051050067E0,-1.150950074E0,1.671932066E0
3.384557179E0,-4.990500212E-1,-1.027050018E0,-1.149000049E0,1.619902397E0
3.387055946E0,-3.960000277E-1,-1.000950098E0,-1.051050067E0,1.504467801E0
3.389554497E0,-3.079500198E-1,-1.032000065E0,-8.920500278E-1,1.398431479E0
3.392053264E0,-2.359500080E-1,-1.029000044E0,-8.209500313E-1,1.337337822E0
3.394551958E0,-1.590000093E-1,-1.021950006E0,-7.420500517E-1,1.272910483E0
3.397050726E0,-1.260000020E-1,-1.041000009E0,-6.480000019E-1,1.232664196E0
3.399549495E0,-8.295000345E-2,-1.036949992E0,-5.020500422E-1,1.155075856E0
3.402048054E0,-7.800000161E-2,-1.081950068E0,-3.040500283E-1,1.126563967E0
3.404546822E0,-1.210500076E-1,-1.125000000E0,-7.395000011E-2,1.133907715E0
3.407045591E0,-1.500000060E-1,-1.159050107E0,9.300000221E-2,1.172410403E0
3.409544285E0,-2.190000117E-1,-1.242000103E0,2.650500238E-1,1.288711285E0
3.412043052E0,-3.270000219E-1,-1.362000108E0,5.209500194E-1,1.494443786E0
3.414541822E0,-4.540500343E-1,-1.474950075E0,9.720000625E-1,1.823848480E0
3.417040362E0,-5.899500251E-1,-1.633050084E0,1.516950130E0,2.305652035E0
3.419539129E0,-6.889500618E-1,-1.788000107E0,1.708950043E0,2.567509848E0
3.422037824E0,-8.110500574E-1,-1.980000138E0,1.668000102E0,2.713010705E0
3.424536586E0,-9.330000281E-1,-2.203050137E0,1.963050127E0,3.094751163E0
3.427035355E0,-1.029000044E0,-2.440050125E0,2.485050201E0,3.631550661E0
3.429533896E0,-1.167000055E0,-2.758050203E0,2.884950161E0,4.158325082E0
3.432032663E0,-1.258050084E0,-3.079050064E0,3.519000053E0,4.842169006E0
3.434531427E0,-1.359000087E0,-3.628950119E0,4.323000431E0,5.805557073E0
3.437030121E0,-1.354050040E0,-4.309050083E0,5.521050453E0,7.133257477E0
3.439528889E0,-1.215000033E0,-5.041950226E0,6.900000095E0,8.631772036E0
3.442027429E0,-1.021050096E0,-6.076050282E0,7.774050236E0,9.919515482E0
3.444526196E0,-1.218000054E0,-1.088100052E1,8.832000732E0,1.406712243E1
3.447024960E0,2.130000144E-1,-1.650495148E1,3.235950232E0,1.682052812E1
3.449523655E0,1.435950041E0,-2.449305153E1,2.089950085E0,2.462396022E1
3.452022422E0,4.750050068E0,-3.163395119E1,6.870000362E-1,3.199596556E1
3.454521191E0,4.872000217E0,-3.824505234E1,-3.246000051E0,3.869052766E1
3.457019732E0,2.662050009E0,-4.436700058E1,-4.423950195E0,4.466641452E1
3.459518499E0,-2.470050097E0,-5.026605225E1,-5.374050140E0,5.061282022E1
3.462017268E0,-7.309050560E0,-5.482905197E1,-5.917950153E0,5.562975188E1
3.464515963E0,-8.155950546E0,-5.577000427E1,-3.579000235E0,5.647673989E1
3.467014730E0,-7.171950340E0,-5.533695221E1,-7.395000011E-2,5.579982634E1
3.469513270E0,-5.035950184E0,-5.554500198E1,3.112050056E0,5.585958195E1
3.472012037E0,-7.600500584E-1,-5.551695251E1,4.896000385E0,5.573760411E1
3.474510807E0,1.384050012E0,-5.586600113E1,5.082000256E0,5.611374523E1
3.477009501E0,9.499500394E-1,-5.606700134E1,5.113950253E0,5.630775730E1
3.479508268E0,-9.970500469E-1,-5.592405319E1,4.864950180E0,5.614411434E1
3.482007061E0,-2.416950226E0,-5.465895081E1,4.405050278E0,5.488940717E1
3.484505602E0,-2.520000219E0,-5.180805206E1,3.406050205E0,5.198101420E1
3.487004369E0,-2.101050138E0,-4.792200089E1,1.891050100E0,4.800529816E1
3.489503064E0,-2.143949986E0,-4.388100052E1,6.030000448E-1,4.393748214E1
3.492001842E0,-2.400000095E0,-4.001205063E1,-2.800500095E-1,4.008494261E1
3.494500382E0,-2.544000149E0,-3.629100037E1,-9.600000381E-1,3.639272241E1
3.496999149E0,-2.452950001E0,-3.278805161E1,-1.137000084E0,3.289933223E1
3.499497919E0,-2.259000063E0,-2.970705223E1,-9.600000381E-1,2.980828129E1
3.501996697E0,-2.119950056E0,-2.712600136E1,-4.780500233E-1,2.721291366E1
3.504495391E0,-1.833000064E0,-2.495700073E1,3.420000076E-1,2.502656067E1
3.506994158E0,-1.492950082E0,-2.321595192E1,1.113000035E0,2.329051508E1
3.509492699E0,-1.170000076E0,-2.188995171E1,1.800000072E0,2.199497411E1
3.511991466E0,-7.699500322E-1,-2.091300011E1,2.326950073E0,2.105614146E1
3.514490175E0,-5.569500327E-1,-2.038905144E1,2.644950151E0,2.056743477E1
3.516988943E0,-2.650500238E-1,-2.017800140E1,2.920050144E0,2.038991626E1
3.519487712E0,1.319999993E-1,-2.023800087E1,3.070950031E0,2.047009617E1
3.521986252E0,5.029500127E-1,-2.045400047E1,3.057000160E0,2.068729910E1
3.524485010E0,8.119500279E-1,-2.072400093E1,3.085950136E0,2.096822753E1
3.526983779E0,9.910500646E-1,-2.106195068E1,3.067050219E0,2.130715241E1
3.529482473E0,1.099050045E0,-2.140905190E1,2.961000204E0,2.164077023E1
3.531981240E0,1.069950104E0,-2.184900093E1,2.794050217E0,2.205289894E1
3.534480010E0,9.169500470E-1,-2.222805023E1,2.599950075E0,2.239836500E1
3.536978536E0,7.279500365E-1,-2.257695198E1,2.329050064E0,2.270843778E1
3.539477303E0,4.549500346E-1,-2.283795166E1,2.061000109E0,2.293527277E1
3.541976073E0,1.290000081E-1,-2.303700066E1,1.690050125E0,2.309927076E1
3.544474767E0,-2.310000062E-1,-2.317305183E1,1.371000051E0,2.321472234E1
3.546973529E0,-5.520000458E-1,-2.318100166E1,9.859500527E-1,2.320852515E1
3.549472070E0,-9.139500260E-1,-2.304405022E1,7.270500064E-1,2.307362470E1
3.551970837E0,-1.138950109E0,-2.277300072E1,5.170500278E-1,2.280732579E1
3.554469606E0,-1.270050049E0,-2.242605019E1,5.599500537E-1,2.246896300E1
3.556968300E0,-1.633950114E0,-2.200500107E1,5.550000072E-1,2.207255966E1
3.559467053E0,-1.837950110E0,-2.165805054E1,6.100500226E-1,2.174445618E1
3.561965822E0,-2.002950191E0,-2.131095123E1,8.350500464E-1,2.142115217E1
3.564464362E0,-2.470050097E0,-2.092305183E1,1.117950082E0,2.109798706E1
3.566963130E0,-2.829000235E0,-2.043000031E1,1.459950089E0,2.067654732E1
3.569461824E0,-2.944050074E0,-1.989105034E1,1.789950132E0,2.018725429E1
3.571960587E0,-3.238050222E0,-1.939800072E1,1.941000104E0,1.976195543E1
3.574459356E0,-3.291000128E0,-1.875600052E1,2.427000046E0,1.919657695E1
3.576957897E0,-3.171000242E0,-1.795605087E1,2.947050095E0,1.847052002E1
3.579456664E0,-3.432000160E0,-1.733595085E1,3.034950256E0,1.793111096E1
3.581955423E0,-3.174000263E0,-1.667100143E1,3.366000175E0,1.730105557E1
3.584454118E0,-2.725950241E0,-1.596000099E1,3.700950146E0,1.660871664E1
3.586952656E0,-2.482050180E0,-1.543800068E1,3.583950281E0,1.604173113E1
3.589451423E0,-2.262000084E0,-1.494705105E1,3.349050045E0,1.548376943E1
3.591950193E0,-2.118000031E0,-1.446600056E1,3.045000076E0,1.493395868E1
3.594448947E0,-2.005050182E0,-1.395300102E1,2.758050203E0,1.436361043E1
3.596947641E0,-1.990950108E0,-1.343100071E1,2.524950027E0,1.381054072E1
3.599446408E0,-1.960050106E0,-1.286100101E1,2.371950150E0,1.322396654E1
3.601945178E0,-1.798950076E0,-1.221705055E1,2.257050037E0,1.255335893E1
3.604443718E0,-1.336950064E0,-1.153500080E1,2.206950188E0,1.182008071E1
3.606942500E0,-1.033050060E0,-1.079505062E1,2.213999987E0,1.106806696E1
3.609441270E0,-8.629500270E-1,-1.008705044E1,2.274000168E0,1.037614312E1
3.611939964E0,-5.500500202E-1,-9.483000755E0,2.485050201E0,9.818621739E0
3.614438731E0,-2.239500135E-1,-8.925000191E0,2.748000145E0,9.341160892E0
3.616937272E0,1.339500099E-1,-8.298000336E0,2.944050074E0,8.805803939E0
3.619436034E0,4.429500103E-1,-7.587000370E0,3.150000095E0,8.226863310E0
3.621934728E0,6.300000548E-1,-6.832950115E0,3.196050167E0,7.569732097E0
3.624433495E0,7.450500131E-1,-6.067050457E0,3.250950098E0,6.923357373E0
3.626932265E0,8.089500666E-1,-5.217000484E0,3.259950161E0,6.204737651E0
3.629430805E0,8.280000687E-1,-4.458000183E0,3.319950104E0,5.619734730E0
3.631929587E0,8.070000410E-1,-3.703950167E0,3.366000175E0,5.069561429E0
3.634428282E0,7.710000277E-1,-2.929950237E0,3.411000252E0,4.562233242E0
3.636927049E0,9.049500227E-1,-2.143050194E0,3.358950138E0,4.085846878E0
3.639425818E0,1.077000022E0,-1.329000115E0,3.174000263E0,3.605613405E0
3.641924373E0,1.081950068E0,-5.509500504E-1,2.784000158E0,3.037238678E0
3.644423140E0,9.979500771E-1,1.639500111E-1,2.386950016E0,2.592356909E0
3.646921909E0,9.580500722E-1,8.370000124E-1,2.094000101E0,2.450156196E0
3.649420603E0,6.780000329E-1,1.435950041E0,2.008050203E0,2.560059020E0
3.651919371E0,2.590500116E-1,1.972050071E0,1.936050057E0,2.775676173E0
3.654418130E0,-1.549500078E-1,2.518050194E0,1.819050074E0,3.110229807E0
3.656916670E0,-6.169500351E-1,3.025050163E0,1.651950121E0,3.501498970E0
3.659415438E0,-9.210000634E-1,3.507000208E0,1.471950054E0,3.913301488E0
3.661914207E0,-1.194000006E0,3.957000256E0,1.453050017E0,4.381191777E0
3.664412901E0,-1.345050097E0,4.408950329E0,1.573050022E0,4.870573799E0
3.666911664E0,-1.390050054E0,4.809000015E0,1.750050068E0,5.302961016E0
3.669410205E0,-1.464000106E0,5.185050011E0,1.948050141E0,5.729130761E0
3.671908972E0,-1.539000034E0,5.554050446E0,2.176050186E0,6.160453869E0
3.674407741E0,-1.543050051E0,5.898000240E0,2.431950092E0,6.563672108E0
3.676906436E0,-1.555050015E0,6.199950218E0,2.616000175E0,6.906592516E0
3.679405192E0,-1.585950017E0,6.444000244E0,2.736000061E0,7.178166405E0
3.681903961E0,-1.665000081E0,6.748050213E0,2.937000036E0,7.545487139E0
3.684402502E0,-1.675050020E0,7.005000114E0,3.205050230E0,7.883410820E0
3.686901269E0,-1.627050042E0,7.225050449E0,3.474000216E0,8.180300932E0
3.689399953E0,-1.600950122E0,7.395000458E0,3.703050137E0,8.423874012E0
3.691898720E0,-1.573950052E0,7.579050541E0,3.859050274E0,8.649369624E0
3.694397490E0,-1.531050086E0,7.825950146E0,3.973950148E0,8.909651499E0
3.696896030E0,-1.558050036E0,7.989000320E0,4.078950405E0,9.104366120E0
3.699394797E0,-1.552950025E0,8.154000282E0,4.182000160E0,9.294541394E0
3.701893576E0,-1.543050051E0,8.251950264E0,4.153050423E0,9.366083196E0
3.704392271E0,-1.527000070E0,8.365050316E0,4.132050037E0,9.454080257E0
3.706891038E0,-1.464000106E0,8.391000748E0,4.054950237E0,9.433706127E0
3.709389579E0,-1.459050059E0,8.376000404E0,3.823050261E0,9.322120099E0
3.711888346E0,-1.450050116E0,8.307000160E0,3.484950066E0,9.124350605E0
3.714387129E0,-1.426050067E0,8.215950012E0,3.105000257E0,8.898116654E0
3.716885823E0,-1.375950098E0,7.989000320E0,2.821950197E0,8.583750212E0
3.719384591E0,-1.300950050E0,7.861950397E0,2.449050188E0,8.336700901E0
3.721883360E0,-1.318050027E0,7.546050549E0,2.398950100E0,8.027147460E0
3.724381915E0,-1.335000038E0,7.369050503E0,2.266950130E0,7.824589018E0
3.726880682E0,-1.360950112E0,7.054950237E0,2.149950027E0,7.499786209E0
3.729379452E0,-1.419000030E0,6.693000317E0,2.050950050E0,7.142563296E0
3.731878146E0,-1.492950082E0,6.301050186E0,1.968000054E0,6.767950769E0
3.734376913E0,-1.546050072E0,5.962950230E0,1.915050149E0,6.450927324E0
3.736875483E0,-1.596000075E0,5.584950447E0,1.893000126E0,6.109201029E0
3.739374250E0,-1.696950078E0,5.239950180E0,1.884000063E0,5.821183187E0
3.741873019E0,-1.846950054E0,4.879050255E0,1.861950040E0,5.539243075E0
3.744371714E0,-2.001000166E0,4.483950138E0,1.837950110E0,5.242887669E0
3.746870509E0,-2.191950083E0,4.066950321E0,1.795050144E0,4.956504323E0
3.749369278E0,-2.388000011E0,3.655050278E0,1.726050138E0,4.694804114E0
3.751867818E0,-2.581950188E0,3.234000206E0,1.644000053E0,4.452859787E0
3.754366586E0,-2.779050112E0,2.773950100E0,1.612950087E0,4.244941303E0
3.756865280E0,-2.926950216E0,2.274000168E0,1.603950024E0,4.038659432E0
3.759364042E0,-2.965050220E0,1.669950128E0,1.594050050E0,3.757825408E0
3.761862583E0,-2.821950197E0,1.033050060E0,1.510050058E0,3.363160199E0
3.764361350E0,-2.676000118E0,4.999500215E-1,1.374000072E0,3.049393851E0
3.766860119E0,-2.464950085E0,7.605000585E-2,1.138950109E0,2.716425938E0
3.769358888E0,-2.059950113E0,-2.730000019E-1,8.779500127E-1,2.255819074E0
3.771857593E0,-1.663050056E0,-5.650500059E-1,6.529500484E-1,1.873862525E0
3.774356360E0,-1.237050056E0,-8.260500431E-1,5.239500403E-1,1.577078045E0
3.776854900E0,-9.139500260E-1,-1.092000008E0,4.140000343E-1,1.482958089E0
3.779353668E0,-7.360500097E-1,-1.326000094E0,2.610000074E-1,1.538884944E0
3.781852437E0,-6.000000238E-1,-1.510950089E0,1.120500043E-1,1.629578290E0
3.784351131E0,-4.800000191E-1,-1.663950086E0,-2.595000155E-2,1.731994027E0
3.786849898E0,-4.080000222E-1,-1.786050081E0,-1.909500062E-1,1.841982849E0
3.789348439E0,-3.460500240E-1,-1.873950124E0,-2.680500150E-1,1.924393540E0
3.791847206E0,-3.850500286E-1,-1.969950080E0,-3.040500283E-1,2.030126415E0
3.794345975E0,-4.159500301E-1,-2.064000130E0,-2.989500165E-1,2.126612817E0
3.796844665E0,-4.350000322E-1,-2.125950098E0,-3.199500144E-1,2.193457740E0
3.799343432E0,-3.409500122E-1,-2.133000135E0,-2.770500183E-1,2.177772532E0
3.801842201E0,-2.650500238E-1,-2.157000065E0,-3.439500034E-1,2.200273256E0
3.804340742E0,-1.909500062E-1,-2.146950006E0,-3.919500113E-1,2.190771792E0
3.806839519E0,-1.090500057E-1,-2.155050039E0,-4.540500343E-1,2.205060999E0
3.809338213E0,-6.105000153E-2,-2.179050207E0,-4.849500358E-1,2.233195792E0
3.811836980E0,-2.805000171E-2,-2.167050123E0,-5.020500422E-1,2.224622953E0
3.814335750E0,1.395000052E-2,-2.146950006E0,-4.519500136E-1,2.194048256E0
3.816834290E0,6.705000252E-2,-2.097000122E0,-4.300500154E-1,2.141692842E0
3.819333037E0,1.290000081E-1,-2.077950001E0,-3.510000110E-1,2.111330911E0
3.821831807E0,1.750500053E-1,-2.035050154E0,-2.560500205E-1,2.058551249E0
3.824330501E0,2.179500163E-1,-2.028000116E0,-1.459500045E-1,2.044893172E0
3.826829268E0,2.779500186E-1,-1.984950066E0,-6.405000389E-2,2.005339218E0
3.829328037E0,3.400500119E-1,-1.951050043E0,-2.100000158E-2,1.980573473E0
3.831826569E0,4.360500276E-1,-1.918050051E0,4.500000179E-2,1.967506194E0
3.834325336E0,5.460000038E-1,-1.897950053E0,2.100000083E-1,1.986059015E0
3.836824030E0,6.180000305E-1,-1.884000063E0,3.490500152E-1,2.013260090E0
3.839322798E0,6.940500140E-1,-1.882050037E0,4.110000134E-1,2.047617830E0
3.841821567E0,7.420500517E-1,-1.882050037E0,5.329500437E-1,2.092077047E0
3.844320116E0,7.830000520E-1,-1.945950150E0,7.390500307E-1,2.223961784E0
3.846818884E0,8.380500674E-1,-1.987050056E0,9.480000734E-1,2.355716448E0
3.849317653E0,8.760000467E-1,-2.053950071E0,1.165950060E0,2.519032854E0
3.851816347E0,9.240000248E-1,-2.121000051E0,1.371000051E0,2.689248669E0
3.854315114E0,9.169500470E-1,-2.164050102E0,1.552950025E0,2.817013314E0
3.856813655E0,9.000000358E-1,-2.242950201E0,1.708950043E0,2.959955391E0
3.859312422E0,8.239500523E-1,-2.313000202E0,1.833000064E0,3.064107188E0
3.861811191E0,7.090500593E-1,-2.358000040E0,1.924050093E0,3.124881587E0
3.864309886E0,6.270000339E-1,-2.413050175E0,2.011049986E0,3.203164409E0
3.866808653E0,5.719500184E-1,-2.430000067E0,2.121000051E0,3.275769889E0
3.869307442E0,4.999500215E-1,-2.515950203E0,2.229000092E0,3.398293227E0
3.871805983E0,4.260000288E-1,-2.644950151E0,2.329050064E0,3.549888946E0
3.874304750E0,3.709500134E-1,-2.799000025E0,2.454000235E0,3.740871851E0
3.876803444E0,2.989500165E-1,-3.096000195E0,2.530050039E0,4.009456512E0
3.879302211E0,2.509500086E-1,-3.594000101E0,2.557050228E0,4.417954108E0
3.881800762E0,1.960500032E-1,-5.083050251E0,2.647950172E0,5.734760289E0
3.884299529E0,-2.190000117E-1,-8.284049988E0,2.266950130E0,8.591420610E0
3.886798298E0,-9.210000634E-1,-1.241400051E1,1.491000056E0,1.253709420E1
3.889296993E0,-6.019500494E-1,-1.655100060E1,1.063050032E0,1.659602482E1
3.891795760E0,4.500000179E-1,-2.068800163E1,7.050000131E-3,2.069289640E1
3.894294515E0,-5.595000088E-2,-2.549805069E1,-1.033950090E0,2.551906684E1
3.896793056E0,-7.920000553E-1,-2.941305161E1,-7.680000067E-1,2.943373393E1
3.899291823E0,-1.857000113E0,-3.272595215E1,-1.872000098E0,3.283200843E1
3.901790592E0,-4.048050404E0,-3.605205154E1,-2.688000202E0,3.637804939E1
3.904289286E0,-5.724000454E0,-3.900405121E1,-2.832000017E0,3.952341605E1
3.906788054E0,-6.514050484E0,-4.173105240E1,-2.760000229E0,4.232648331E1
3.909286594E0,-6.322050095E0,-4.474995041E1,-4.161000252E0,4.538546355E1
3.911785361E0,-5.781000137E0,-4.800600052E1,-6.126000404E0,4.873934683E1
3.914284131E0,-4.620000362E0,-5.070195389E1,-6.952050209E0,5.138446782E1
3.916782825E0,-4.299000263E0,-5.305305099E1,-6.889950275E0,5.367102606E1
3.919281592E0,-4.689000130E0,-5.487300110E1,-5.406000137E0,5.533767080E1
3.921780361E0,-5.506050110E0,-5.573400116E1,-2.542050123E0,5.606297791E1
3.924278902E0,-5.440950394E0,-5.503305435E1,6.460500360E-1,5.530513894E1
3.926777669E0,-5.295000076E0,-5.370195389E1,3.466050148E0,5.407356453E1
3.929276348E0,-5.728050232E0,-5.181000137E1,5.851050377E0,5.245304178E1
3.931775116E0,-6.229050159E0,-4.954995346E1,7.656000137E0,5.052339351E1
3.934273885E0,-6.078000069E0,-4.658895111E1,8.020050049E0,4.766333657E1
3.936772425E0,-5.506050110E0,-4.302795029E1,6.603000164E0,4.387847656E1
3.939271193E0,-4.495050430E0,-3.942495346E1,4.066950321E0,3.988825038E1
3.941769952E0,-3.480000257E0,-3.623595047E1,1.513050079E0,3.643410255E1
3.944268646E0,-2.809950113E0,-3.350895309E1,-5.170500278E-1,3.363053817E1
3.946767413E0,-2.230050087E0,-3.117495155E1,-1.824000120E0,3.130778983E1
3.949266183E0,-1.609950066E0,-2.919705200E1,-2.536950111E0,2.935125041E1
3.951764723E0,-1.170000076E0,-2.751405144E1,-2.817000151E0,2.768261939E1
3.954263490E0,-8.389500380E-1,-2.613495064E1,-2.865000248E0,2.630489894E1
3.956762185E0,-6.360000372E-1,-2.505495071E1,-2.809950113E0,2.522004899E1
3.959260952E0,-3.580500185E-1,-2.414100075E1,-2.602050066E0,2.428346725E1
3.961759721E0,-6.105000153E-2,-2.345595169E1,-2.307000160E0,2.356920971E1
3.964258252E0,4.995000362E-2,-2.309700203E1,-2.128050089E0,2.319488295E1
3.966757020E0,-4.695000127E-2,-2.305395126E1,-2.001000166E0,2.314067576E1
3.969255789E0,-2.670000196E-1,-2.325495148E1,-1.843050122E0,2.332939971E1
3.971754483E0,-5.500500202E-1,-2.361105156E1,-1.692000031E0,2.367798925E1
3.974253256E0,-7.840500474E-1,-2.403495026E1,-1.558050036E0,2.409815529E1
3.976751796E0,-1.029000044E0,-2.440200043E1,-1.434000015E0,2.446574793E1
3.979250563E0,-1.426050067E0,-2.470095062E1,-1.347000122E0,2.477872050E1
3.981749332E0,-1.741950035E0,-2.486595154E1,-1.258950114E0,2.495866365E1
3.984248027E0,-2.034000158E0,-2.495205116E1,-1.114950061E0,2.505963143E1
3.986746798E0,-2.239950180E0,-2.487795067E1,-8.659500480E-1,2.499359269E1
3.989245567E0,-2.436000109E0,-2.465505028E1,-5.329500437E-1,2.478083204E1
3.991744108E0,-2.745000124E0,-2.444700050E1,-3.829500079E-1,2.460360766E1
3.994242875E0,-2.817000151E0,-2.405895042E1,-1.905000024E-2,2.422331415E1
3.996741569E0,-2.656950235E0,-2.331900024E1,5.260500312E-1,2.347577231E1
3.999240337E0,-2.898000240E0,-2.258205032E1,7.609500289E-1,2.277995714E1
4.001738877E0,-3.088050127E0,-2.181300163E1,1.098000050E0,2.205784890E1
4.004237644E0,-3.151950121E0,-2.090400124E1,1.318950057E0,2.118139954E1
4.006736413E0,-3.280950069E0,-1.996995163E1,1.591950059E0,2.030019474E1
4.009235103E0,-3.253050089E0,-1.895700073E1,1.972050071E0,1.933492160E1
4.011733870E0,-3.157050133E0,-1.791105080E1,2.287950039E0,1.833050522E1
4.014232639E0,-3.231000185E0,-1.689599991E1,2.638050079E0,1.740326071E1
4.016731180E0,-3.150000095E0,-1.591905117E1,2.917950153E0,1.648796906E1
4.019229947E0,-3.315000057E0,-1.515495110E1,3.090000153E0,1.581802355E1
4.021728721E0,-3.322050095E0,-1.438200092E1,3.271950245E0,1.511898230E1
4.024227415E0,-3.178950071E0,-1.356105042E1,3.390000105E0,1.433526814E1
4.026726183E0,-3.028050184E0,-1.279905033E1,3.529050112E0,1.361759788E1
4.029224723E0,-3.055950165E0,-1.209795094E1,3.639000177E0,1.299775252E1
4.031723490E0,-3.001050234E0,-1.139595032E1,3.871050119E0,1.240399190E1
4.034222255E0,-3.006000042E0,-1.073805046E1,4.029000282E0,1.185641629E1
4.036720949E0,-2.772000074E0,-9.997950554E0,4.117949963E0,1.116245993E1
4.039219716E0,-2.146950006E0,-9.238950729E0,4.189050198E0,1.036898001E1
4.041718485E0,-1.735050082E0,-8.511000633E0,4.258950233E0,9.673995434E0
4.044217026E0,-1.579050064E0,-7.846050262E0,4.114950180E0,8.999262126E0
4.046715789E0,-1.588950038E0,-7.177950382E0,3.973950148E0,8.357033785E0
4.049214483E0,-1.450050116E0,-6.526050091E0,3.907050133E0,7.743191581E0
4.051713251E0,-1.282050014E0,-5.866050243E0,3.682050228E0,7.043556742E0
4.054212020E0,-8.970000148E-1,-5.061000347E0,3.318000078E0,6.117798465E0
4.056710555E0,-7.600500584E-1,-4.366950035E0,3.019050121E0,5.363076760E0
4.059209323E0,-7.030500174E-1,-3.759000063E0,2.760000229E0,4.716138470E0
4.061708092E0,-4.420500100E-1,-3.129000187E0,2.533050060E0,4.049986789E0
4.064206786E0,-1.690500081E-1,-2.547000170E0,2.395950079E0,3.500909103E0
4.066705553E0,-1.399500072E-1,-2.032950163E0,2.365050077E0,3.121847888E0
4.069204327E0,-3.919500113E-1,-1.519950032E0,2.317050219E0,2.798677300E0
4.071702867E0,-6.120000482E-1,-1.039050102E0,2.109000206E0,2.429413724E0
4.074201634E0,-9.850500226E-1,-4.810500145E-1,1.881000042E0,2.177129721E0
4.076700329E0,-1.203000069E0,1.000500023E-1,1.776000142E0,2.147416046E0
4.079199096E0,-1.432950020E0,7.290000319E-1,1.690050125E0,2.332607175E0
4.081697870E0,-1.821000099E0,1.273050070E0,1.522050023E0,2.693201462E0
4.084196411E0,-2.151000023E0,1.912050128E0,1.465050101E0,3.229413041E0
4.086695178E0,-1.905000091E0,2.518050194E0,1.495950103E0,3.493918836E0
4.089193947E0,-1.713000059E0,3.046950102E0,1.477050066E0,3.794726739E0
4.091692641E0,-1.641000032E0,3.538050175E0,1.378950119E0,4.136687512E0
4.094191409E0,-1.867050052E0,3.976050138E0,1.240050077E0,4.564271551E0
4.096690178E0,-2.001000166E0,4.420950413E0,1.146000028E0,4.986192965E0
4.099188718E0,-2.047950029E0,4.843050003E0,1.096050024E0,5.371271573E0
4.101687486E0,-2.104050159E0,5.250000477E0,1.084050059E0,5.758879805E0
4.104186180E0,-2.044049978E0,5.611050129E0,1.132050037E0,6.078121515E0
4.106684933E0,-1.978950143E0,5.913000107E0,1.249050021E0,6.359240512E0
4.109183702E0,-1.929000139E0,6.151950359E0,1.386000037E0,6.594583449E0
4.111682243E0,-1.858950138E0,6.349050522E0,1.663950086E0,6.821647018E0
4.114181010E0,-1.813950062E0,6.535050392E0,1.936050057E0,7.053055244E0
4.116679779E0,-1.785000086E0,6.709950447E0,2.236050129E0,7.294489735E0
4.119178478E0,-1.798950076E0,6.826950550E0,2.506050110E0,7.491579429E0
4.121677016E0,-1.833000064E0,6.949950218E0,2.833950043E0,7.726122580E0
4.124175783E0,-1.855050087E0,7.036050320E0,3.136050224E0,7.923510960E0
4.126674553E0,-1.897950053E0,7.143000126E0,3.454050064E0,8.158132571E0
4.129173247E0,-1.941000104E0,7.195950508E0,3.825000286E0,8.377339214E0
4.131672014E0,-1.972050071E0,7.246050358E0,4.113000393E0,8.562184272E0
4.134170783E0,-2.013000011E0,7.290000439E0,4.422000408E0,8.760728454E0
4.136669324E0,-2.056050062E0,7.309050560E0,4.570050240E0,8.861993068E0
4.139168091E0,-2.071950197E0,7.327950478E0,4.635000229E0,8.914878740E0
