"Time (s)","Acceleration x (m/s^2)","Acceleration y (m/s^2)","Acceleration z (m/s^2)","Absolute acceleration (m/s^2)"
6.218090000E-3,-2.997000217E0,2.452050209E0,8.071050644E0,8.951894717E0
8.717252000E-3,-3.016050100E0,2.442000151E0,7.972950459E0,8.867235305E0
1.121656000E-2,-3.048000097E0,2.449050188E0,7.872000217E0,8.789569889E0
1.371571800E-2,-3.061950207E0,2.467950106E0,7.786050320E0,8.722894954E0
1.621510100E-2,-3.045000076E0,2.478000164E0,7.747950554E0,8.685807278E0
1.871441100E-2,-3.049950123E0,2.476050138E0,7.780950546E0,8.716433413E0
2.121356500E-2,-3.013950109E0,2.466000080E0,7.822050571E0,8.737821628E0
2.371288400E-2,-2.988000154E0,2.449050188E0,7.876950264E0,8.773388012E0
2.621204000E-2,-2.937000036E0,2.446950197E0,7.948950291E0,8.820393710E0
2.871134600E-2,-3.045000076E0,2.440050125E0,8.182950020E0,9.065679296E0
3.121050200E-2,-3.028050184E0,2.385000229E0,8.479949951E0,9.314873332E0
3.370980700E-2,-3.004050255E0,2.377050161E0,8.723999977E0,9.528004041E0
3.620896300E-2,-2.937000036E0,2.361000061E0,8.920950890E0,9.684196161E0
3.870804000E-2,-2.857950211E0,2.338950157E0,9.093000412E0,9.814337662E0
4.120742300E-2,-2.803050041E0,2.310000181E0,9.225000381E0,9.914324102E0
4.370673100E-2,-2.748000145E0,2.272050142E0,9.333000183E0,9.990926337E0
4.620589100E-2,-2.668950081E0,2.245950222E0,9.442950249E0,1.006662289E1
4.870519700E-2,-2.605050087E0,2.206950188E0,9.514950752E0,1.010896646E1
5.120435300E-2,-2.593050241E0,2.179050207E0,9.601050377E0,1.018097921E1
5.370365900E-2,-2.502000093E0,2.161950111E0,9.607950211E0,1.016104030E1
5.620281500E-2,-2.407950163E0,2.172000170E0,9.610050201E0,1.014242937E1
5.870212000E-2,-2.394000053E0,2.152050018E0,9.519000053E0,1.004857789E1
6.120127600E-2,-2.377050161E0,2.180999994E0,9.579000473E0,1.010763961E1
6.370058200E-2,-2.377050161E0,2.148000002E0,9.457050323E0,9.984992353E0
6.619973800E-2,-2.415000200E0,2.061000109E0,9.471000671E0,9.988983989E0
6.869904300E-2,-2.473050117E0,2.040000200E0,9.436050415E0,9.965772681E0
7.119818900E-2,-2.286000013E0,2.083050013E0,9.385050774E0,9.881501477E0
7.369749500E-2,-2.128050089E0,2.131050110E0,9.361050606E0,9.833577182E0
7.619665100E-2,-2.020050049E0,2.176050186E0,9.367950439E0,9.827221990E0
7.869595600E-2,-1.953000069E0,2.193000078E0,9.364050865E0,9.813710166E0
8.119514100E-2,-1.975050092E0,2.180999994E0,9.412050247E0,9.861251122E0
8.369444700E-2,-1.903050065E0,2.140050173E0,9.478950500E0,9.902116788E0
8.619383200E-2,-1.882050037E0,2.089950085E0,9.594000816E0,9.997742513E0
8.869298700E-2,-1.945950150E0,2.065950155E0,9.664950371E0,1.007304014E1
9.119229300E-2,-1.977000117E0,2.032950163E0,9.687000275E0,1.009353209E1
9.369145800E-2,-2.016000032E0,2.041949987E0,9.646050453E0,1.006380173E1
9.619076400E-2,-2.047049999E0,2.284050226E0,9.459000587E0,9.943841876E0
9.868984300E-2,-2.008050203E0,2.535000086E0,9.250950813E0,9.799927653E0
1.011889940E-1,-2.049000025E0,2.659950018E0,9.154950142E0,9.751248500E0
1.036883020E-1,-2.238000154E0,2.626050234E0,9.256050110E0,9.878220900E0
1.061874340E-1,-2.482950211E0,2.503950119E0,9.481050491E0,1.011558829E1
1.086868170E-1,-2.710050106E0,2.410950184E0,9.712950706E0,1.036814659E1
1.111861260E-1,-2.848950148E0,2.305950165E0,9.742050171E0,1.040872061E1
1.136852800E-1,-2.818050146E0,2.320050001E0,9.673050880E0,1.033885641E1
1.161845860E-1,-2.748000145E0,2.332050085E0,9.591000557E0,1.024584082E1
1.186837710E-1,-2.679000139E0,2.341950178E0,9.535950661E0,1.017821828E1
1.211830760E-1,-2.641050100E0,2.349000216E0,9.522000313E0,1.015684191E1
1.236822320E-1,-2.599950075E0,2.310000181E0,9.562050819E0,1.017490330E1
1.261815380E-1,-2.595000029E0,2.263050079E0,9.691950798E0,1.028539407E1
1.286806750E-1,-2.563950062E0,2.241000175E0,9.816000938E0,1.038988913E1
1.311799810E-1,-2.547000170E0,2.229000092E0,9.957000732E0,1.051653531E1
1.336791360E-1,-2.595000029E0,2.217000008E0,1.011495018E1,1.067526727E1
1.361784420E-1,-2.635950089E0,2.242950201E0,1.030905056E1,1.087453824E1
1.386775980E-1,-2.707950115E0,2.233950138E0,1.049100018E1,1.106275787E1
1.411768890E-1,-2.763000250E0,2.233950138E0,1.061805058E1,1.119677193E1
1.436760440E-1,-2.779050112E0,2.265000105E0,1.066095066E1,1.124763148E1
1.461753500E-1,-2.779050112E0,2.275050163E0,1.077600098E1,1.135874860E1
1.486745060E-1,-2.764950037E0,2.272050142E0,1.086495018E1,1.143915657E1
1.511738220E-1,-2.752950191E0,2.320050001E0,1.090800095E1,1.148676854E1
1.536729780E-1,-2.724000216E0,2.353950024E0,1.085505009E1,1.143649292E1
1.561722830E-1,-2.674050093E0,2.341950178E0,1.084605026E1,1.141367955E1
1.586714390E-1,-2.581050158E0,2.377050161E0,1.071900082E1,1.127870409E1
1.611707450E-1,-2.470950127E0,2.398950100E0,1.051500034E1,1.106461876E1
1.636699010E-1,-2.313000202E0,2.485050201E0,1.031205082E1,1.085651125E1
1.661692060E-1,-1.989000082E0,2.574000120E0,9.778050423E0,1.030494386E1
1.686683620E-1,-1.663950086E0,2.695950031E0,9.148050308E0,9.681100191E0
1.711676680E-1,-1.455000043E0,2.787000179E0,8.703000069E0,9.253464504E0
1.736668140E-1,-1.336050034E0,2.782050133E0,8.470950127E0,9.015643553E0
1.761661960E-1,-1.269000053E0,2.770050049E0,8.226000786E0,8.772150668E0
1.786655060E-1,-1.222950101E0,2.737050056E0,7.933950424E0,8.481427904E0
1.811646600E-1,-1.198950052E0,2.683950186E0,7.657050133E0,8.201919688E0
1.836639710E-1,-1.182000041E0,2.655000210E0,7.330950260E0,7.885999108E0
1.861631270E-1,-1.185000062E0,2.599950075E0,7.065000534E0,7.620905332E0
1.886624320E-1,-1.278000116E0,2.509050131E0,6.843000412E0,7.399680500E0
1.911615880E-1,-7.849500179E-1,2.707950115E0,7.450950146E0,7.966542439E0
1.936606550E-1,2.149500102E-1,2.875050068E0,8.011050224E0,8.514049688E0
1.961599610E-1,2.269500047E-1,2.734050035E0,8.265000343E0,8.708430776E0
1.986591170E-1,1.500000060E-1,2.671950102E0,8.361000061E0,8.778846130E0
2.011584990E-1,6.195000187E-2,2.622000217E0,8.619000435E0,9.009211477E0
2.036578070E-1,-1.939500123E-1,2.578950167E0,8.644950867E0,9.023512401E0
2.061569490E-1,-4.000500143E-1,2.494950056E0,8.787000656E0,9.143095555E0
2.086562540E-1,-6.730500460E-1,2.430000067E0,8.959050179E0,9.307119683E0
2.111554100E-1,-1.055999994E0,2.454000235E0,1.087905025E1,1.120227600E1
2.136547160E-1,-1.702050090E0,2.404050112E0,1.312305069E1,1.344956843E1
2.161538620E-1,-1.917000055E0,2.503950119E0,1.390995026E1,1.426293699E1
2.186531680E-1,-1.780950069E0,2.547000170E0,1.312005043E1,1.348312710E1
2.211523230E-1,-1.657050133E0,2.719950199E0,1.288095093E1,1.326886736E1
2.236516290E-1,-1.684950113E0,2.551950216E0,1.292100048E1,1.327794262E1
2.261507850E-1,-1.885950089E0,2.338950157E0,1.309395027E1,1.343424837E1
2.286500960E-1,-1.894050121E0,1.990050077E0,1.346505070E1,1.374246395E1
2.311492510E-1,-1.756950140E0,1.894050121E0,1.335705090E1,1.360459879E1
2.336485570E-1,-1.609050035E0,1.590000033E0,1.282800102E1,1.302592616E1
2.361477130E-1,-1.441050053E0,1.587000132E0,1.230900097E1,1.249426667E1
2.386470190E-1,-1.374000072E0,1.372050047E0,1.187505054E1,1.203275625E1
2.411461890E-1,-1.138950109E0,1.030050039E0,1.145895100E1,1.156139128E1
2.436454940E-1,-1.075049996E0,1.282950044E0,1.109505081E1,1.122059917E1
2.461446500E-1,-7.300500274E-1,9.000000358E-1,1.065405083E1,1.071689191E1
2.486439560E-1,-7.870500088E-1,1.087050080E0,1.039305019E1,1.047934244E1
2.511433550E-1,-7.159500122E-1,9.889500737E-1,9.682050705E0,9.758724943E0
2.536424340E-1,-7.060500383E-1,9.840000272E-1,9.262950897E0,9.341789017E0
2.561415880E-1,-7.950000167E-1,1.044000030E0,8.788949966E0,8.886371734E0
2.586408940E-1,-8.689500690E-1,1.216050029E0,8.381999969E0,8.514210203E0
2.611400500E-1,-6.529500484E-1,1.159050107E0,7.870050430E0,7.981693723E0
2.636393310E-1,-7.300500274E-1,1.314000010E0,7.374000549E0,7.525653006E0
2.661384870E-1,-6.679500341E-1,1.369950056E0,6.796950340E0,6.965734300E0
2.686377930E-1,-6.130500436E-1,1.551000118E0,6.394950390E0,6.608844242E0
2.711371780E-1,-5.479500294E-1,1.726050138E0,5.887050152E0,6.159290365E0
2.736363380E-1,-3.330000043E-1,1.807950139E0,5.325000286E0,5.633400461E0
2.761356440E-1,-2.770500183E-1,2.143050194E0,4.908000469E0,5.362638292E0
2.786348000E-1,3.495000303E-2,2.185950041E0,4.252050400E0,4.781164261E0
2.811341060E-1,1.669500023E-1,2.569050074E0,3.934050083E0,4.701557257E0
2.836332620E-1,3.820500076E-1,2.758050203E0,3.922050238E0,4.809914885E0
2.861325770E-1,6.100500226E-1,2.916000128E0,4.051050186E0,5.028541079E0
2.886317330E-1,8.800500631E-1,3.189000130E0,4.378950119E0,5.488115714E0
2.911310390E-1,1.192050099E0,3.405000210E0,4.726050377E0,5.945633863E0
2.936301950E-1,1.747050047E0,3.502950191E0,4.759950161E0,6.162789096E0
2.961295000E-1,2.287950039E0,3.808950186E0,4.705049992E0,6.471500006E0
2.986286460E-1,2.851050138E0,4.180050373E0,4.420050144E0,6.718493231E0
3.011279520E-1,3.210000038E0,4.779000282E0,4.231050014E0,7.144559340E0
3.036271080E-1,3.556950092E0,5.188050270E0,4.009950161E0,7.459722505E0
3.061264130E-1,4.066950321E0,5.502000332E0,3.895050287E0,7.872960644E0
3.086255880E-1,4.306050301E0,5.691000462E0,4.024950027E0,8.193276400E0
3.111248940E-1,4.222949982E0,5.602050304E0,4.393050194E0,8.277388729E0
3.136240500E-1,4.081050396E0,5.248050213E0,4.671000004E0,8.124976579E0
3.161233560E-1,3.784050226E0,4.968000412E0,4.989000320E0,7.993133829E0
3.186225110E-1,3.664950132E0,4.486950397E0,4.978050232E0,7.638427027E0
3.211218220E-1,3.430050135E0,4.354950428E0,5.068950176E0,7.511663800E0
3.236209780E-1,3.507000208E0,4.068000317E0,4.980000019E0,7.324484775E0
3.261202840E-1,3.463950157E0,4.021950245E0,5.191050053E0,7.424421534E0
3.286194400E-1,3.670050144E0,3.790050268E0,5.425050259E0,7.567358813E0
3.311187550E-1,3.811050177E0,3.759000063E0,5.928000450E0,7.987200652E0
3.336179110E-1,4.024050236E0,3.780000210E0,6.840000153E0,8.790164047E0
3.361172170E-1,4.157999992E0,3.778050184E0,7.089000225E0,9.045250208E0
3.386166010E-1,4.696950436E0,3.579000235E0,7.128000259E0,9.256293738E0
3.411157750E-1,5.107950211E0,3.318000078E0,7.242000580E0,9.462919860E0
3.436148520E-1,5.451000214E0,3.145950079E0,7.438950539E0,9.744146466E0
3.461142350E-1,5.668950081E0,2.907000065E0,7.405050278E0,9.768439692E0
3.486133140E-1,5.913000107E0,2.782050133E0,7.429050446E0,9.894147954E0
3.511126960E-1,6.306000233E0,2.305950165E0,7.285950184E0,9.907982397E0
3.536117750E-1,6.631050110E0,2.052000046E0,7.288050175E0,1.006465127E1
3.561111580E-1,6.717000484E0,2.124000072E0,7.539000511E0,1.031823631E1
3.586102370E-1,6.861000538E0,1.954050064E0,7.479000568E0,1.033571911E1
3.611096190E-1,6.801000118E0,1.834050059E0,7.522950172E0,1.030592652E1
3.636089270E-1,6.448950291E0,1.840950131E0,7.815000534E0,1.029816928E1
3.661080880E-1,5.989950180E0,2.047049999E0,7.984950542E0,1.018966889E1
3.686073940E-1,5.554050446E0,2.491950035E0,8.039999962E0,1.008458679E1
3.711065500E-1,5.077050209E0,3.000000238E0,7.896000385E0,9.855113512E0
3.736058550E-1,4.515000343E0,3.490950108E0,7.633050442E0,9.530761764E0
3.761050110E-1,3.868050098E0,3.820950270E0,7.872000217E0,9.567123912E0
3.786043170E-1,3.358050108E0,3.979050159E0,7.870050430E0,9.436473625E0
3.811034730E-1,2.947050095E0,4.039050102E0,7.611000538E0,9.106391117E0
3.836027780E-1,2.827050209E0,4.006050110E0,7.213950157E0,8.722484006E0
3.861019340E-1,2.857950211E0,3.820950270E0,6.912000179E0,8.399005111E0
3.886012400E-1,2.965950251E0,3.583950281E0,6.711000443E0,8.165726388E0
3.911003910E-1,2.992050171E0,3.309000254E0,6.481050491E0,7.868027858E0
3.935996960E-1,3.100050211E0,3.045000076E0,6.246000290E0,7.608866959E0
3.960988520E-1,3.210000038E0,2.823000193E0,6.325050354E0,7.634113722E0
3.985981580E-1,3.235950232E0,2.595000029E0,6.352050304E0,7.586431448E0
4.010973140E-1,3.238950253E0,2.449050188E0,6.795000553E0,7.915849801E0
4.035966070E-1,3.145050049E0,2.227050066E0,7.372050285E0,8.318546581E0
4.060957620E-1,3.004050255E0,1.980000138E0,7.810050488E0,8.598930579E0
4.085951450E-1,2.856000185E0,1.789050102E0,8.362950325E0,9.016450270E0
4.110942240E-1,2.728950024E0,1.551000118E0,8.875050545E0,9.413782012E0
4.135936070E-1,2.733000040E0,1.374000072E0,9.032999992E0,9.536889130E0
4.160926760E-1,2.860050201E0,1.252050042E0,9.379950523E0,9.885898456E0
4.185920580E-1,3.022950172E0,1.105949998E0,9.546000481E0,1.007409938E1
4.210911370E-1,3.243000269E0,1.015050054E0,9.526950836E0,1.011484897E1
4.235905200E-1,3.448950052E0,9.670500755E-1,9.280050278E0,9.947350173E0
4.260895990E-1,3.673950195E0,8.880000710E-1,9.007050514E0,9.767978969E0
4.285888800E-1,3.886950254E0,7.930500507E-1,8.563950539E0,9.438143858E0
4.310882650E-1,4.177050114E0,7.450500131E-1,8.023050308E0,9.075912264E0
4.335874210E-1,4.443000317E0,6.199500561E-1,7.630050182E0,8.851116069E0
4.360867260E-1,4.563000202E0,5.320500135E-1,7.204050541E0,8.544143740E0
4.385858760E-1,4.696950436E0,4.960500300E-1,6.675000191E0,8.176982119E0
4.410851820E-1,4.777950287E0,4.789500237E-1,6.342000484E0,7.954820690E0
4.435842610E-1,4.836000443E0,4.210500121E-1,5.844000340E0,7.597139156E0
4.460836440E-1,4.809000015E0,2.470500171E-1,5.485050201E0,7.298855429E0
4.485827230E-1,4.552950382E0,-1.980000138E-1,5.107050419E0,6.844744347E0
4.510821290E-1,4.186950207E0,-6.979500055E-1,4.405050278E0,6.117364971E0
4.535812850E-1,4.102950096E0,-9.760500193E-1,2.974050045E0,5.160605275E0
4.560805910E-1,4.101000309E0,-1.158000112E0,3.091050148E0,5.264385891E0
4.585797470E-1,3.624000072E0,-1.729950070E0,3.979050159E0,5.653224208E0
4.610790330E-1,3.468000174E0,-2.314050198E0,3.364050150E0,5.357115542E0
4.635781890E-1,3.808050156E0,-2.376000166E0,2.185950041E0,4.992494402E0
4.660774950E-1,4.168050289E0,-2.295000076E0,1.507950068E0,4.991350716E0
4.685766510E-1,4.177050114E0,-2.143949986E0,1.021950006E0,4.805065141E0
4.710759660E-1,4.287000179E0,-1.909950137E0,3.090000153E-1,4.703377624E0
4.735751220E-1,4.239000320E0,-1.821000099E0,-2.860500216E-1,4.622444125E0
4.760744280E-1,4.182000160E0,-1.866000056E0,-1.017000079E0,4.690988245E0
4.785735840E-1,4.468950272E0,-1.966950059E0,-1.443000078E0,5.091429887E0
4.810728840E-1,4.881000042E0,-2.139000177E0,-1.870950103E0,5.648002962E0
4.835720400E-1,5.326050282E0,-2.350050211E0,-2.235000134E0,6.235765646E0
4.860713460E-1,5.793000221E0,-2.508000135E0,-2.608950138E0,6.830485859E0
4.885705020E-1,6.070950508E0,-2.716050148E0,-2.821950197E0,7.224733310E0
4.910697980E-1,6.235950470E0,-2.949000120E0,-3.070950031E0,7.550788970E0
4.935689530E-1,6.253050327E0,-3.231000185E0,-3.280950069E0,7.765605833E0
4.960682590E-1,5.905950069E0,-3.733950138E0,-3.055950165E0,7.626366190E0
4.985676440E-1,5.938950062E0,-4.066950321E0,-3.619050264E0,8.056595904E0
5.010668000E-1,5.697000504E0,-4.564949989E0,-4.048050404E0,8.347532283E0
5.035661050E-1,5.494050026E0,-5.038950443E0,-4.335000038E0,8.623678600E0
5.060652610E-1,5.221050262E0,-5.503050327E0,-4.641000271E0,8.892795526E0
5.085645670E-1,5.017950058E0,-5.974950314E0,-4.926000118E0,9.227422782E0
5.110636460E-1,4.930950165E0,-6.396000385E0,-5.206050396E0,9.608644607E0
5.135630090E-1,4.816050053E0,-6.798000336E0,-5.440950394E0,9.950431541E0
5.160620880E-1,4.777950287E0,-7.158000469E0,-5.664000034E0,1.030275090E1
5.185614710E-1,4.977000237E0,-7.500000477E0,-5.794950485E0,1.070523188E1
5.210605500E-1,5.166000366E0,-7.878000259E0,-5.793000221E0,1.105935348E1
5.235599220E-1,5.605950356E0,-8.296950340E0,-5.767050266E0,1.155529892E1
5.260590780E-1,6.303000450E0,-8.733000755E0,-5.295000076E0,1.200125588E1
5.285583840E-1,5.122950077E0,-9.660000801E0,-4.888050079E0,1.197719778E1
5.310575400E-1,4.668000221E0,-1.051005077E1,-5.209050179E0,1.262480087E1
5.335568460E-1,4.522050381E0,-1.131405067E1,-5.685000420E0,1.344529331E1
5.360559830E-1,4.330049992E0,-1.203000069E1,-6.037050247E0,1.413917342E1
5.385552890E-1,4.366050243E0,-1.265205097E1,-6.114000320E0,1.471454343E1
5.410544450E-1,4.603050232E0,-1.319805050E1,-5.908050060E0,1.517503423E1
5.435537510E-1,4.981950283E0,-1.373700047E1,-5.613000393E0,1.565345916E1
5.460529070E-1,5.494050026E0,-1.416300106E1,-5.118000031E0,1.603025605E1
5.485522120E-1,6.210000515E0,-1.444995022E1,-4.576950073E0,1.638028204E1
5.510513680E-1,7.026000500E0,-1.461600113E1,-3.969000101E0,1.669566213E1
5.535506740E-1,7.891050339E0,-1.473795033E1,-3.246000051E0,1.702974960E1
5.560498300E-1,8.094000816E0,-1.489995098E1,-2.523000002E0,1.714313033E1
5.585491400E-1,8.896050453E0,-1.514700031E1,-1.780050039E0,1.765615786E1
5.610482960E-1,9.559050560E0,-1.533600044E1,-7.339500189E-1,1.808610074E1
5.635476020E-1,1.023900032E1,-1.560705090E1,5.295000225E-2,1.866601106E1
5.660467580E-1,1.071300030E1,-1.583400059E1,4.090500176E-1,1.912201014E1
5.685460630E-1,1.118700027E1,-1.611404991E1,8.830500245E-1,1.963648026E1
5.710454610E-1,1.143405056E1,-1.636605072E1,1.081950068E0,1.999389268E1
5.735445400E-1,1.144395065E1,-1.665105057E1,1.168050051E0,2.023822701E1
5.760436940E-1,1.127595043E1,-1.693995094E1,1.165950060E0,2.038304285E1
5.785430000E-1,1.092405033E1,-1.715295029E1,1.140000105E0,2.036806764E1
5.810421460E-1,1.034895039E1,-1.728000069E1,1.029000044E0,2.016824333E1
5.835414520E-1,9.889950752E0,-1.757999992E1,1.057950020E0,2.019868267E1
5.860406080E-1,9.535050392E0,-1.795800018E1,1.039050102E0,2.035894353E1
5.885399140E-1,9.234000206E0,-1.834605026E1,8.449500203E-1,2.055622194E1
5.910390690E-1,9.234000206E0,-1.894200134E1,9.499500394E-1,2.109427837E1
5.935384520E-1,9.306000710E0,-1.948095131E1,6.559500098E-1,2.159952276E1
5.960377620E-1,9.355950356E0,-1.983300018E1,1.770000011E-1,2.192972942E1
5.985369160E-1,9.556950569E0,-1.961205101E1,-5.089499950E-1,2.182262310E1
6.010362210E-1,1.009800053E1,-1.935405159E1,-1.081050038E0,2.185675174E1
6.035353770E-1,1.072005081E1,-1.977705002E1,-1.309500039E-1,2.249596285E1
6.060346920E-1,1.137405014E1,-2.018400002E1,1.650000066E-1,2.316873104E1
6.085338480E-1,1.198695087E1,-2.058195114E1,3.829500079E-1,2.382121648E1
6.110331530E-1,1.254000092E1,-2.107500076E1,8.830500245E-1,2.453949994E1
6.135323090E-1,1.310805035E1,-2.165700150E1,1.954050064E0,2.539025422E1
6.160316150E-1,1.361505032E1,-2.216895103E1,3.405000210E0,2.623787361E1
6.185307770E-1,1.414905071E1,-2.239200020E1,4.969950199E0,2.694991120E1
6.210300830E-1,1.463505077E1,-2.219805145E1,6.214950085E0,2.730501426E1
6.235292380E-1,1.507605076E1,-2.169795036E1,7.444050312E0,2.744999529E1
6.260285440E-1,1.562100029E1,-2.107995033E1,8.406000137E0,2.755069499E1
6.285277000E-1,1.624905014E1,-2.056500053E1,9.676950455E0,2.793911680E1
6.310269910E-1,1.702905083E1,-2.018400002E1,1.112295055E1,2.865488541E1
6.335261460E-1,1.786005020E1,-1.983000183E1,1.225395012E1,2.936613116E1
6.360254520E-1,1.868100166E1,-1.952595139E1,1.351305103E1,3.021332734E1
6.385246080E-1,1.948095131E1,-1.905900002E1,1.446795082E1,3.085570525E1
6.410239140E-1,2.015805054E1,-1.863495064E1,1.513095093E1,3.134571841E1
6.435230840E-1,2.072595024E1,-1.827195168E1,1.590705109E1,3.188202481E1
6.460223890E-1,2.122395134E1,-1.801095009E1,1.711095047E1,3.267468530E1
6.485215450E-1,2.161695099E1,-1.768500137E1,1.835400009E1,3.342037048E1
6.510208510E-1,2.190105057E1,-1.716495132E1,1.894995117E1,3.366589104E1
6.535200070E-1,2.202600098E1,-1.659600067E1,1.924905014E1,3.363179877E1
6.560193120E-1,2.246595192E1,-1.604295158E1,1.998000145E1,3.407778967E1
6.585184680E-1,2.279205132E1,-1.558305073E1,2.018505096E1,3.420154025E1
6.610178510E-1,2.300805092E1,-1.530705070E1,2.015895081E1,3.420613258E1
6.635171610E-1,2.326395035E1,-1.514895058E1,1.988895035E1,3.415073111E1
6.660163190E-1,2.341005135E1,-1.481400108E1,1.940700150E1,3.382479622E1
6.685156250E-1,2.313195038E1,-1.468695068E1,1.847400093E1,3.304666941E1
6.710147040E-1,2.303595161E1,-1.425195026E1,1.755195045E1,3.227761016E1
6.735138560E-1,2.310795021E1,-1.345695019E1,1.605495071E1,3.119019579E1
6.760131640E-1,2.346195030E1,-1.230300045E1,1.439595032E1,3.015079298E1
6.785123340E-1,2.383800125E1,-1.105995083E1,1.266495037E1,2.917145495E1
6.810116400E-1,2.454000092E1,-1.004700089E1,1.082400036E1,2.864110430E1
6.835110250E-1,2.565600204E1,-9.688050270E0,8.690999985E0,2.876842435E1
6.860101810E-1,2.693595123E1,-1.014600086E1,6.850050449E0,2.958732826E1
6.885094950E-1,2.801595116E1,-1.114395046E1,5.389050484E0,3.062879391E1
6.910086510E-1,2.831100082E1,-1.176600075E1,4.369050026E0,3.096837321E1
6.935079570E-1,2.793495178E1,-1.261605072E1,3.748950243E0,3.088010516E1
6.960071130E-1,2.689605141E1,-1.285305023E1,3.273000240E0,2.998851467E1
6.985064180E-1,2.496795082E1,-1.243200016E1,2.787000179E0,2.803070756E1
7.010055890E-1,2.297895050E1,-1.108395100E1,2.595000029E0,2.564410577E1
7.035048950E-1,2.170695114E1,-9.430050850E0,2.914050102E0,2.384552945E1
7.060040510E-1,2.155905151E1,-8.035950661E0,3.454950094E0,2.326598129E1
7.085033570E-1,2.230800056E1,-7.680000305E0,3.972000122E0,2.392500948E1
7.110025260E-1,2.432700157E1,-8.308950424E0,5.056950092E0,2.619951158E1
7.135018320E-1,2.692200089E1,-9.444000244E0,6.013950348E0,2.915734678E1
7.160009880E-1,2.931105232E1,-1.052100086E1,7.245000362E0,3.197372793E1
7.185002940E-1,3.058500099E1,-1.141695023E1,7.290000439E0,3.345045806E1
7.209994490E-1,3.083895111E1,-1.198005104E1,7.077000141E0,3.383262419E1
7.234987650E-1,3.002505112E1,-1.277205086E1,7.249950409E0,3.342440364E1
7.259979210E-1,2.830800056E1,-1.430895042E1,8.241000175E0,3.277198563E1
7.284972270E-1,2.589300156E1,-1.566900063E1,8.242950439E0,3.136736110E1
7.309963830E-1,2.201205063E1,-1.555395031E1,8.659950256E0,2.830990077E1
7.334956630E-1,1.693605042E1,-1.372005081E1,1.039095020E1,2.414625114E1
7.359948190E-1,1.199400043E1,-1.130205059E1,1.189695072E1,2.032559545E1
7.384941250E-1,9.361050606E0,-9.601950645E0,1.264905071E1,1.843434861E1
7.409932810E-1,9.577950478E0,-9.097050667E0,1.295700073E1,1.850344114E1
7.434925960E-1,1.178400040E1,-9.712050438E0,1.315095043E1,2.015276870E1
7.459917520E-1,1.459200096E1,-1.105800056E1,1.309395027E1,2.250905156E1
7.484910580E-1,1.702200127E1,-1.259205055E1,1.285905075E1,2.477223144E1
7.509902140E-1,1.924905014E1,-1.393305111E1,1.151400089E1,2.640507643E1
7.534896010E-1,2.057295036E1,-1.438800049E1,1.046700096E1,2.719961312E1
7.559889110E-1,2.035995102E1,-1.419405079E1,8.665050507E0,2.628843441E1
7.584880650E-1,1.928894997E1,-1.349700069E1,8.152050018E0,2.491362154E1
7.609873710E-1,1.765200043E1,-1.255395031E1,8.097000122E0,2.312479618E1
7.634865260E-1,1.597095108E1,-1.131405067E1,7.738050461E0,2.104653050E1
7.659858370E-1,1.459905052E1,-1.029405022E1,7.599000454E0,1.941248449E1
7.684849930E-1,1.359405041E1,-9.685950279E0,7.254000187E0,1.819989994E1
7.709842990E-1,1.305000019E1,-9.553950310E0,6.639000416E0,1.748304316E1
7.734833780E-1,1.307400036E1,-9.798000336E0,6.084000111E0,1.743402860E1
7.759827730E-1,1.345905018E1,-1.015995026E1,5.823000431E0,1.784034627E1
7.784819290E-1,1.405800056E1,-1.020495033E1,6.258000374E0,1.846431585E1
7.809812350E-1,1.501605034E1,-8.845950127E0,7.186950207E0,1.885165390E1
7.834803910E-1,1.602600098E1,-9.679050446E0,7.735950470E0,2.025738518E1
7.859796960E-1,1.645499992E1,-1.009095001E1,7.702050209E0,2.078258579E1
7.884788570E-1,1.620105171E1,-1.003800011E1,7.708950520E0,2.055878014E1
7.909781630E-1,1.580595112E1,-9.805950165E0,8.170949936E0,2.031622928E1
7.934773190E-1,1.518795109E1,-9.597000122E0,8.325000763E0,1.980105824E1
7.959766250E-1,1.452195072E1,-9.748050690E0,8.449049950E0,1.942415996E1
7.984757750E-1,1.369905090E1,-9.979950905E0,8.490000725E0,1.895635851E1
8.009750810E-1,1.300695038E1,-1.038705063E1,8.410950661E0,1.864981689E1
8.034742370E-1,1.239900017E1,-1.095195007E1,8.499000549E0,1.859874797E1
8.059735430E-1,1.183605099E1,-1.100505066E1,8.011050224E0,1.803829728E1
8.084726980E-1,1.120905018E1,-1.079400063E1,7.795050144E0,1.740448397E1
8.109720090E-1,1.041405010E1,-1.101495075E1,6.844950199E0,1.663234568E1
8.134711650E-1,9.724950790E0,-1.145805073E1,6.325050354E0,1.630545480E1
8.159704710E-1,9.088050842E0,-1.171605015E1,5.854050159E0,1.594140528E1
8.184698550E-1,8.496000290E0,-1.186905098E1,5.455950260E0,1.558280415E1
8.209689290E-1,8.113050461E0,-1.168500042E1,4.876950264E0,1.503813374E1
8.234683120E-1,7.840050220E0,-1.144605064E1,4.293000221E0,1.452268273E1
8.259673910E-1,7.633950233E0,-1.129500008E1,4.003050327E0,1.420840015E1
8.284667730E-1,7.558050156E0,-1.113195038E1,3.397050142E0,1.387747783E1
8.309658570E-1,7.753950596E0,-1.081395054E1,2.851050138E0,1.360859151E1
8.334652400E-1,8.149050713E0,-1.052100086E1,2.452050209E0,1.353185268E1
8.359643190E-1,8.568000793E0,-1.036800003E1,2.269950151E0,1.364033489E1
8.384637020E-1,8.842950821E0,-1.036305046E1,2.337000132E0,1.382216205E1
8.409628570E-1,8.965950012E0,-1.016700077E1,2.470950127E0,1.377903330E1
8.434621440E-1,8.791049957E0,-1.003800011E1,2.788950205E0,1.363166346E1
8.459613000E-1,8.443950653E0,-9.540000916E0,2.623950243E0,1.300757606E1
8.484606060E-1,8.130000114E0,-9.061050415E0,2.500050068E0,1.242778286E1
8.509597610E-1,8.107950211E0,-8.872050285E0,2.784000158E0,1.233704948E1
8.534590620E-1,8.314050674E0,-8.764050484E0,2.836950064E0,1.240888009E1
8.559582180E-1,8.865000725E0,-8.592000008E0,2.470950127E0,1.259032551E1
8.584575240E-1,9.673950195E0,-8.221050262E0,2.161950111E0,1.287808247E1
8.609566800E-1,1.023195076E1,-8.067000389E0,1.839000106E0,1.315869420E1
8.634559850E-1,1.034700012E1,-7.930950165E0,1.525050044E0,1.312578225E1
8.659551260E-1,1.029000092E1,-7.732050419E0,1.290000081E0,1.293571887E1
8.684544320E-1,1.009605026E1,-7.495050430E0,1.033950090E0,1.261646007E1
8.709535880E-1,1.006395054E1,-7.071000099E0,7.230000496E-1,1.232091198E1
8.734528930E-1,1.031295013E1,-6.724050522E0,1.720500141E-1,1.231257069E1
8.759520350E-1,1.053105068E1,-6.565950394E0,1.560000032E-1,1.241124768E1
8.784513410E-1,1.064895058E1,-6.730950356E0,2.629500031E-1,1.260059458E1
8.809504970E-1,1.121805096E1,-6.553950310E0,1.990500093E-1,1.299378901E1
8.834498020E-1,1.045200062E1,-6.211950302E0,4.500000179E-2,1.215872808E1
8.859489430E-1,9.250050545E0,-6.336000443E0,2.850000262E-1,1.121559458E1
8.884482490E-1,6.775050163E0,-5.412000179E0,1.077000022E0,8.737904766E0
8.909476340E-1,6.745950222E0,-4.774950027E0,1.669050097E0,8.431709221E0
8.934467130E-1,5.962950230E0,-5.386050224E0,3.214950085E0,8.654606664E0
8.959460950E-1,5.389050484E0,-5.932050228E0,4.401000023E0,9.143297339E0
8.984451940E-1,6.046950340E0,-5.701950073E0,5.056950092E0,9.728853339E0
9.009445770E-1,7.491000175E0,-4.810950279E0,5.209950447E0,1.031522709E1
9.034436560E-1,9.034950256E0,-3.577950239E0,4.008000374E0,1.051171352E1
9.059428100E-1,1.043595028E1,-2.817000151E0,2.011049986E0,1.099494748E1
9.084421150E-1,1.036395073E1,-3.633000135E0,-4.005000368E-2,1.098233895E1
9.109414950E-1,1.026300049E1,-4.347000122E0,-2.545950174E0,1.143273595E1
9.134406510E-1,1.015995026E1,-5.226000309E0,-4.237050056E0,1.218557597E1
9.159399560E-1,1.043100071E1,-5.091000080E0,-4.605000019E0,1.248719675E1
9.184391120E-1,1.021995068E1,-5.793000221E0,-5.032050133E0,1.277997543E1
9.209381890E-1,1.004295063E1,-6.265050411E0,-5.362050056E0,1.299474104E1
9.234375720E-1,9.199950218E0,-6.945000172E0,-5.815050125E0,1.291072885E1
9.259366510E-1,8.853000641E0,-6.436950207E0,-7.347000122E0,1.318288129E1
9.284360330E-1,8.202000618E0,-6.097050190E0,-9.946950912E0,1.426143989E1
9.309353410E-1,7.399950504E0,-6.091950417E0,-1.156095028E1,1.501754636E1
9.334344970E-1,7.534050465E0,-4.684050083E0,-1.402695084E1,1.659691512E1
9.359338030E-1,7.812000275E0,-2.946000099E0,-1.518495083E1,1.732884868E1
9.384329580E-1,7.282050133E0,-2.182049990E0,-1.255395031E1,1.467621425E1
9.409322640E-1,5.299950123E0,-3.271950245E0,-2.436000109E0,6.687991196E0
9.434314200E-1,3.373050213E0,-3.042000055E0,6.370950222E0,7.824336317E0
9.459307260E-1,4.287000179E0,-2.118000031E0,1.171695042E1,1.265508679E1
9.484298960E-1,6.628950119E0,-1.459050059E0,1.380000019E1,1.537894054E1
9.509292010E-1,8.716950417E0,-9.040500522E-1,1.255800056E1,1.531358577E1
9.534283570E-1,1.019895077E1,-8.820000291E-1,1.046700096E1,1.464085482E1
9.559276630E-1,1.192005062E1,-1.345050097E0,9.426000595E0,1.525602352E1
9.584267900E-1,1.349805069E1,-1.732050061E0,8.859000206E0,1.623820355E1
9.609260950E-1,1.464900112E1,-2.070000172E0,8.233950615E0,1.693151137E1
9.634252510E-1,1.493700027E1,-2.673000097E0,8.779950142E0,1.753129862E1
9.659245570E-1,1.466400051E1,-3.246000051E0,1.066095066E1,1.841806983E1
9.684237130E-1,1.317900085E1,-3.696000099E0,1.208805084E1,1.826109124E1
9.709230140E-1,1.133295059E1,-3.973050117E0,1.272795105E1,1.749918953E1
9.734221700E-1,9.862950325E0,-4.027950287E0,1.286205101E1,1.670133314E1
9.759214760E-1,8.820000648E0,-3.946950197E0,1.175595093E1,1.521752968E1
9.784208610E-1,8.293050766E0,-3.834000111E0,1.099395084E1,1.429479636E1
9.809200160E-1,8.026950836E0,-3.456000090E0,1.024500084E1,1.346610257E1
9.834190930E-1,7.512000561E0,-3.199950218E0,9.201000214E0,1.230155432E1
9.859184760E-1,6.837000370E0,-3.205050230E0,8.188050270E0,1.113827133E1
9.884175550E-1,6.763050556E0,-3.243000269E0,6.879000187E0,1.017725637E1
9.909169380E-1,7.467000484E0,-2.737950087E0,4.980000019E0,9.383648923E0
9.934160170E-1,7.891050339E0,-2.235000134E0,3.129000187E0,8.778071725E0
9.959153940E-1,7.936050415E0,-1.768050075E0,1.465050101E0,8.261553671E0
9.984144730E-1,7.704000473E0,-9.780000448E-1,-9.570000172E-1,7.824573880E0
1.000913856E0,6.990000248E0,-6.880500317E-1,-2.688000202E0,7.520562572E0
1.003413163E0,6.025050163E0,-6.289500594E-1,-4.681950092E0,7.656204302E0
1.005912333E0,5.227950096E0,-6.000000238E-1,-6.592950344E0,8.435547195E0
1.008411639E0,4.897950172E0,-4.420500100E-1,-6.990000248E0,8.546661779E0
1.010910795E0,4.519950390E0,-7.304999977E-2,-7.825950146E0,9.037742169E0
1.013410100E0,3.805950165E0,2.080500126E-1,-8.800050735E0,9.590069573E0
1.015909256E0,3.187950134E0,2.710500062E-1,-9.210000038E0,9.749902300E0
1.018408562E0,2.896050215E0,1.890000105E-1,-9.065999985E0,9.519200784E0
1.020907718E0,2.935050249E0,-2.295000106E-2,-8.407050133E0,8.904691943E0
1.023407024E0,2.152050018E0,-2.380500138E-1,-7.837950230E0,8.131509755E0
1.025906179E0,1.512000084E0,-4.800000191E-1,-7.359000206E0,7.528042794E0
1.028405514E0,8.760000467E-1,-6.670500040E-1,-6.648000240E0,6.738563570E0
1.030904670E0,5.620500445E-1,-8.509500623E-1,-5.944050312E0,6.030899632E0
1.033403976E0,4.570500255E-1,-1.066950083E0,-5.355000019E0,5.479352371E0
1.035903132E0,3.679500222E-1,-1.375950098E0,-4.990950108E0,5.190203162E0
1.038402437E0,4.695000127E-2,-1.620000124E0,-4.747050285E0,5.016083245E0
1.040901574E0,-2.749500275E-1,-1.857000113E0,-4.479000092E0,4.856489345E0
1.043400880E0,-4.800000042E-2,-1.897950053E0,-3.765000105E0,4.216603395E0
1.045900036E0,4.159500301E-1,-1.857000113E0,-2.896050215E0,3.465338467E0
1.048399418E0,1.117050052E0,-1.621950030E0,-2.083950043E0,2.867293236E0
1.050898501E0,1.809000134E0,-1.411950111E0,-1.380000114E0,2.677776115E0
1.053397807E0,2.263950109E0,-1.270050049E0,-1.218000054E0,2.867406730E0
1.055896963E0,2.595000029E0,-1.150950074E0,-1.369050026E0,3.151667685E0
1.058396268E0,2.947050095E0,-1.054949999E0,-1.564950109E0,3.499584633E0
1.060895424E0,3.591000080E0,-9.660000205E-1,-2.013000011E0,4.228546637E0
1.063394730E0,3.861000299E0,-1.012050033E0,-2.287950039E0,4.600682989E0
1.065894115E0,4.258950233E0,-9.690000415E-1,-2.592000008E0,5.078984368E0
1.068394198E0,4.906949997E0,-8.800500631E-1,-3.100050211E0,5.870515965E0
1.070892578E0,4.927050114E0,-1.110000014E0,-3.589950085E0,6.196423522E0
1.073391732E0,5.881950378E0,-1.503000021E0,-4.408950329E0,7.503012216E0
1.075891043E0,6.294000149E0,-1.882950068E0,-4.938000202E0,8.218502590E0
1.078390199E0,6.004050255E0,-1.834950089E0,-4.885950089E0,7.955386198E0
1.080889504E0,5.925000191E0,-1.696050048E0,-5.065050125E0,7.977276841E0
1.083388660E0,5.994000435E0,-1.282050014E0,-5.779050350E0,8.424316969E0
1.085887961E0,6.564000130E0,-6.409500241E-1,-6.375000477E0,9.172652055E0
1.088387117E0,6.898950100E0,-1.183950067E0,-5.364000320E0,8.818715875E0
1.090886422E0,7.809000492E0,-1.852050066E0,-4.261050224E0,9.086645539E0
1.093385578E0,8.713950157E0,-3.150000095E0,-2.566050053E0,9.614574396E0
1.095884884E0,9.400950432E0,-3.595050097E0,-2.554050207E0,1.038390229E1
1.098384055E0,9.685950279E0,-3.832050085E0,-2.182950020E0,1.064272106E1
1.100883360E0,1.001400089E1,-4.852050304E0,-4.680000246E-1,1.113739781E1
1.103382516E0,1.055295086E1,-5.374050140E0,6.300000548E-1,1.185926165E1
1.105881822E0,1.169295025E1,-4.596000195E0,6.970500350E-1,1.258309112E1
1.108380968E0,1.141995049E1,-5.182050228E0,1.381050110E0,1.261650558E1
1.110880274E0,1.122300053E1,-5.323950291E0,1.219050050E0,1.248143704E1
1.113379429E0,1.127805042E1,-4.459050179E0,4.930500090E-1,1.213757176E1
1.115878735E0,9.792000771E0,-5.403000355E0,1.575000048E0,1.129408328E1
1.118377891E0,8.616000175E0,-6.106950283E0,1.816950083E0,1.071595112E1
1.120877211E0,6.093000412E0,-6.175950527E0,1.945950150E0,8.891217066E0
1.123376367E0,1.381050110E0,-7.785000324E0,1.828950047E0,8.115330414E0
1.125875672E0,-2.413050175E0,-1.091400051E1,1.899000049E0,1.133774314E1
1.128374828E0,-3.684000254E0,-1.270305061E1,1.579950094E0,1.332049530E1
1.130874134E0,-2.964000225E0,-1.328895092E1,1.834050059E0,1.373845892E1
1.133373290E0,-2.607000113E0,-1.411995029E1,2.914050102E0,1.465131850E1
1.135872672E0,-3.081000090E0,-1.517805099E1,3.772950172E0,1.594054411E1
1.138371982E0,-3.318000078E0,-1.576200104E1,4.348050117E0,1.668398457E1
1.140871136E0,-3.397050142E0,-1.587000084E1,4.738050461E0,1.690698076E1
1.143370461E0,-3.316050053E0,-1.526895046E1,5.248050213E0,1.648268993E1
1.145869617E0,-3.451950073E0,-1.450500107E1,6.358950138E0,1.620948063E1
1.148368694E0,-3.967050076E0,-1.425195026E1,7.489050388E0,1.658135846E1
1.150868000E0,-4.209000111E0,-1.434000111E1,8.586000443E0,1.723573953E1
1.153367156E0,-3.691950083E0,-1.411995029E1,1.063005066E1,1.805551076E1
1.155866476E0,-3.367950201E0,-1.397400093E1,1.298400021E1,1.937008136E1
1.158365860E0,-3.840000153E0,-1.479795074E1,1.416900063E1,2.084431640E1
1.160865016E0,-3.826050282E0,-1.552500057E1,1.381200027E1,2.112902400E1
1.163364322E0,-3.865950108E0,-1.601399994E1,1.255800056E1,2.071466009E1
1.165863478E0,-3.358950138E0,-1.620495033E1,1.114305019E1,1.995120370E1
1.168362788E0,-2.358000040E0,-1.565895081E1,1.023000050E1,1.885247503E1
1.170861944E0,-1.719000101E0,-1.565700054E1,9.313050270E0,1.829834781E1
1.173361250E0,-8.470500112E-1,-1.531200027E1,8.538000107E0,1.755198826E1
1.175860406E0,1.170000061E-1,-1.450095081E1,7.984950542E0,1.655447670E1
1.178359711E0,1.810500026E-1,-1.422300053E1,8.310000420E0,1.647369509E1
1.180858881E0,1.279950023E0,-1.317705059E1,8.035050392E0,1.548660612E1
1.183358187E0,2.044049978E0,-1.210200024E1,6.727950096E0,1.399649465E1
1.185857343E0,2.290950060E0,-1.186695099E1,6.265950203E0,1.361378382E1
1.188356648E0,3.349050045E0,-1.171605015E1,5.101950169E0,1.321029382E1
1.190855804E0,4.761000156E0,-1.084905052E1,3.991050243E0,1.250189993E1
1.193355096E0,5.428950310E0,-1.001595020E1,4.144050121E0,1.212294978E1
1.195854252E0,5.470050335E0,-9.576000214E0,3.364050150E0,1.152987702E1
1.198353558E0,3.622050285E0,-9.664050102E0,2.614050150E0,1.064642526E1
1.200852713E0,5.386050224E0,-8.479050636E0,1.876950145E0,1.021894214E1
1.203352019E0,6.471000195E0,-7.459050179E0,9.480000734E-1,9.920180302E0
1.205851165E0,5.427000046E0,-8.398050308E0,7.249500155E-1,1.002522474E1
1.208350471E0,5.017950058E0,-9.466050148E0,5.290500522E-1,1.072687383E1
1.210849626E0,4.888050079E0,-9.856050491E0,4.260000288E-1,1.100982474E1
1.213348932E0,4.972050190E0,-1.000395012E1,-1.260000020E-1,1.117211605E1
1.215848088E0,4.800000191E0,-9.235950470E0,-8.610000610E-1,1.044433358E1
1.218347380E0,4.974000454E0,-9.250050545E0,-1.383000016E0,1.059324335E1
1.220846536E0,5.833950043E0,-8.506050110E0,-1.789950132E0,1.046860941E1
1.223345841E0,6.259950161E0,-8.212950706E0,-2.572950125E0,1.064234973E1
1.225845226E0,3.904050112E0,-1.039905071E1,-3.271950245E0,1.157961663E1
1.228344391E0,1.117050052E0,-1.266195107E1,-3.628950119E0,1.321900467E1
1.230843696E0,-8.929500580E-1,-1.345200062E1,-3.151950121E0,1.384516053E1
1.233342852E0,-1.920000076E0,-1.326300049E1,-2.436000109E0,1.362085455E1
1.235842158E0,-3.924000263E0,-1.178295040E1,-1.924050093E0,1.256732537E1
1.238341314E0,-5.188050270E0,-1.018200016E1,-2.872050047E0,1.178293955E1
1.240840635E0,-6.241050243E0,-8.379000664E0,-4.321050167E0,1.130618569E1
1.243339790E0,-3.148050070E0,-7.099950314E0,-4.876049995E0,9.170353170E0
1.245839096E0,3.799500167E-1,-7.123950481E0,-3.837000132E0,8.100469276E0
1.248338175E0,4.419000149E0,-6.691050529E0,-8.299500346E-1,8.061422738E0
1.250837558E0,9.262050629E0,-8.247000694E0,-4.750500321E-1,1.241065167E1
1.253336728E0,1.316505051E1,-9.814950943E0,1.950000064E-3,1.642107855E1
1.255836033E0,1.459395027E1,-1.125405025E1,1.999050140E0,1.853734698E1
1.258335189E0,1.474800110E1,-1.192005062E1,4.000950336E0,1.938037014E1
1.260834495E0,1.328895092E1,-1.262100029E1,5.314950466E0,1.908231022E1
1.263333646E0,1.144800091E1,-1.284600067E1,6.550950527E0,1.841171939E1
1.265832951E0,9.234000206E0,-1.287300014E1,7.744950294E0,1.763420391E1
1.268332107E0,7.096050262E0,-1.340400028E1,8.533050537E0,1.740212931E1
1.270831413E0,5.554050446E0,-1.391400051E1,8.880000114E0,1.741554732E1
1.273330569E0,5.179950237E0,-1.388100052E1,9.397050858E0,1.754476060E1
1.275829874E0,4.491000175E0,-1.413405037E1,8.683950424E0,1.718579231E1
1.278329030E0,3.772950172E0,-1.433805084E1,7.764000416E0,1.673602574E1
1.280828336E0,2.644950151E0,-1.453695107E1,7.695000172E0,1.665928375E1
1.283327492E0,2.185050011E0,-1.428300095E1,7.660950184E0,1.635447087E1
1.285826803E0,2.041949987E0,-1.378005028E1,7.017000198E0,1.559800106E1
1.288325958E0,2.215950012E0,-1.335405064E1,6.294000149E0,1.492834689E1
1.290825264E0,2.985000134E0,-1.292295074E1,6.117000103E0,1.460584034E1
1.293324420E0,3.567000151E0,-1.254495049E1,6.045000076E0,1.437502343E1
1.295823726E0,4.036050320E0,-1.248195076E1,5.976000309E0,1.441531743E1
1.298322866E0,4.476000309E0,-1.250400066E1,5.731950283E0,1.446512583E1
1.300822249E0,4.903050423E0,-1.251600075E1,5.808000088E0,1.464319102E1
1.303321328E0,5.140050411E0,-1.254000092E1,5.995050430E0,1.481932424E1
1.305820711E0,5.455950260E0,-1.256100082E1,6.262950420E0,1.505890710E1
1.308319790E0,5.460000038E0,-1.238205051E1,6.759000301E0,1.512649531E1
1.310819086E0,5.125050068E0,-1.278195095E1,7.222950459E0,1.555041548E1
1.313318242E0,4.735050201E0,-1.227405071E1,7.627950191E0,1.520719058E1
1.315817548E0,4.402050018E0,-1.244595051E1,7.491000175E0,1.517876187E1
1.318316704E0,4.375950336E0,-1.228800011E1,7.318950176E0,1.495696893E1
1.320816095E0,4.546050072E0,-1.203000069E1,7.068000317E0,1.467460787E1
1.323315405E0,4.783050060E0,-1.167105103E1,6.385050297E0,1.413718031E1
1.325814559E0,4.703999996E0,-1.138800049E1,5.803950310E0,1.361983885E1
1.328313865E0,4.618050098E0,-1.112205029E1,4.996950150E0,1.303824758E1
1.330813020E0,3.763050079E0,-1.098795033E1,4.063050270E0,1.230463229E1
1.333312336E0,1.917000055E0,-1.042305088E1,3.948000193E0,1.130935827E1
1.335811492E0,1.524000049E0,-1.048995018E1,3.115050077E0,1.104831064E1
1.338310798E0,1.423950076E0,-1.046895027E1,2.452050209E0,1.084615618E1
1.340809953E0,1.498050094E0,-1.016505051E1,1.956000090E0,1.045936624E1
1.343309254E0,1.933950067E0,-1.015995026E1,1.480050087E0,1.044774140E1
1.345808410E0,2.355000019E0,-9.886950493E0,9.070500135E-1,1.020394800E1
1.348307716E0,2.506050110E0,-9.492000580E0,4.620000124E-1,9.828113052E0
1.350806872E0,3.238950253E0,-9.468000412E0,-1.159500033E-1,1.000736104E1
1.353306177E0,3.849000216E0,-9.334050179E0,-5.590500236E-1,1.011196481E1
1.355805314E0,4.672950268E0,-9.199950218E0,-9.589500427E-1,1.036316233E1
1.358304620E0,5.428950310E0,-9.199950218E0,-1.230000019E0,1.075292916E1
1.360803776E0,6.109050274E0,-9.162000656E0,-1.254000068E0,1.108310730E1
1.363303081E0,6.672000408E0,-9.126000404E0,-1.206000090E0,1.136898892E1
1.365802237E0,6.897000313E0,-8.968050003E0,-8.029500246E-1,1.134192501E1
1.368301606E0,7.249050140E0,-8.980050087E0,-3.529500067E-1,1.154619423E1
1.370800685E0,7.078950405E0,-8.725950241E0,7.969500422E-1,1.126449625E1
1.373299990E0,7.327950478E0,-8.398050308E0,1.501050115E0,1.124629977E1
1.375799146E0,7.318050385E0,-8.065050125E0,1.957950115E0,1.106492041E1
1.378298452E0,7.266000271E0,-8.070000648E0,2.296050072E0,1.109916737E1
1.380797627E0,6.873000145E0,-8.070000648E0,2.425050020E0,1.087400152E1
1.383296933E0,6.352950096E0,-8.014950752E0,2.470950127E0,1.052164460E1
1.385796088E0,5.820000172E0,-7.993050575E0,2.641050100E0,1.023408057E1
1.388295471E0,5.149050236E0,-7.984050274E0,2.767950058E0,9.895419376E0
1.390794781E0,4.645950317E0,-7.909050465E0,3.175050259E0,9.706640910E0
1.393293939E0,4.299000263E0,-7.785000324E0,3.543000221E0,9.572903628E0
1.395793244E0,4.230000019E0,-7.830000401E0,3.907050133E0,9.719405701E0
1.398292323E0,4.270950317E0,-7.596000195E0,4.288050175E0,9.712240209E0
1.400791706E0,4.414050102E0,-7.402050495E0,4.611000061E0,9.774226895E0
1.403290785E0,4.759050369E0,-7.399050236E0,4.989000320E0,1.011358636E1
1.405790182E0,4.552950382E0,-7.323000431E0,5.262000084E0,1.010169973E1
1.408289338E0,4.642050266E0,-7.078950405E0,5.595000267E0,1.014712755E1
1.410788644E0,5.080050468E0,-6.604950428E0,5.842050076E0,1.017653340E1
1.413287800E0,4.924050331E0,-6.271950245E0,6.148050308E0,1.006887055E1
1.415787106E0,4.840050220E0,-6.043950081E0,6.349050522E0,1.001328424E1
1.418286270E0,4.948050022E0,-5.853000164E0,6.196050167E0,9.855549077E0
1.420785576E0,5.049000263E0,-5.701950073E0,5.976000309E0,9.680765362E0
1.423284732E0,5.140050411E0,-5.749950409E0,5.736000061E0,9.611646302E0
1.425784038E0,5.233050346E0,-5.725950241E0,5.382000446E0,9.441252613E0
1.428283193E0,4.885950089E0,-6.085050106E0,5.100000381E0,9.322571906E0
1.430782480E0,4.540950298E0,-6.379950523E0,4.513050079E0,9.038341624E0
1.433281636E0,4.198950291E0,-6.472950459E0,4.000950336E0,8.691252774E0
1.435780942E0,4.026000023E0,-6.633000374E0,3.622050285E0,8.562979529E0
1.438280098E0,3.823050261E0,-6.705000401E0,3.330000162E0,8.406048105E0
1.440779398E0,3.552000284E0,-6.892050266E0,2.986050129E0,8.308643588E0
1.443278554E0,3.496950150E0,-7.282050133E0,2.430000067E0,8.435746251E0
1.445777860E0,3.691050291E0,-7.531050205E0,1.906050086E0,8.600790451E0
1.448277016E0,3.637950182E0,-7.500000477E0,1.599000096E0,8.487725843E0
1.450776321E0,3.412950277E0,-7.474050522E0,1.366950035E0,8.329358511E0
1.453275482E0,3.361050129E0,-7.569000244E0,1.063050032E0,8.349640593E0
1.455774788E0,3.331950188E0,-7.684050560E0,9.120000601E-1,8.424860187E0
1.458274173E0,3.102000237E0,-7.600950241E0,1.008000016E0,8.271209952E0
1.460773251E0,2.733000040E0,-7.383000374E0,9.600000381E-1,7.930925785E0
1.463272634E0,2.191950083E0,-7.062000275E0,8.929500580E-1,7.448077124E0
1.465771713E0,1.612950087E0,-6.868050098E0,9.619500637E-1,7.120187361E0
1.468271096E0,8.400000334E-1,-6.892050266E0,1.027050018E0,7.018603043E0
1.470770175E0,7.605000585E-2,-7.033050537E0,1.021950006E0,7.107317727E0
1.473269557E0,-4.669500291E-1,-7.063950539E0,9.430500269E-1,7.141903310E0
1.475768626E0,-8.160000443E-1,-7.038000107E0,1.009950042E0,7.156766076E0
1.478267780E0,-1.072050095E0,-7.054950237E0,1.189950109E0,7.234472719E0
1.480767163E0,-9.910500646E-1,-7.027950287E0,1.501050115E0,7.254475647E0
1.483266470E0,-8.830500245E-1,-7.086000443E0,1.767000079E0,7.356185757E0
1.485765626E0,-1.129950047E0,-7.416000366E0,2.107050180E0,7.791887384E0
1.488264928E0,-1.396050096E0,-7.720050335E0,2.052000046E0,8.109182279E0
1.490764084E0,-1.068000078E0,-7.701000214E0,2.113950014E0,8.056972950E0
1.493263389E0,-4.759500325E-1,-7.344000340E0,2.107050180E0,7.655098293E0
1.495762545E0,3.795000166E-2,-7.135950565E0,1.906050086E0,7.386220793E0
1.498261622E0,5.260500312E-1,-6.949050426E0,1.827000141E0,7.204440296E0
1.500760995E0,1.177050114E0,-6.672000408E0,1.732950091E0,6.993150394E0
1.503260302E0,1.596000075E0,-6.411000252E0,1.471950054E0,6.768661421E0
1.505759458E0,1.753950119E0,-6.348000526E0,1.257000089E0,6.704737200E0
1.508258764E0,1.716000080E0,-6.478050232E0,1.221000075E0,6.811800956E0
1.510757920E0,1.860000134E0,-6.739050388E0,1.258950114E0,7.103474926E0
1.513257226E0,1.720950127E0,-7.146000385E0,1.444050074E0,7.490812470E0
1.515756381E0,1.752000093E0,-7.399050236E0,1.585050106E0,7.767099366E0
1.518255687E0,1.905000091E0,-7.294050217E0,1.726050138E0,7.733785812E0
1.520754843E0,2.293050051E0,-6.766950130E0,2.266950130E0,7.495915921E0
1.523254125E0,2.452950001E0,-6.268950462E0,2.233950138E0,7.092759465E0
1.525753281E0,1.644000053E0,-6.640050411E0,2.167050123E0,7.175591396E0
1.528252586E0,6.600000262E-1,-7.135950565E0,2.446950197E0,7.572645230E0
1.530751742E0,5.400000140E-2,-7.830000401E0,3.145950079E0,8.438532110E0
1.533251048E0,-3.105000220E-2,-8.245050430E0,3.895050287E0,9.118839698E0
1.535750204E0,3.030000031E-1,-8.138999939E0,3.976950169E0,9.063733318E0
1.538249509E0,8.200500607E-1,-7.725000381E0,3.469050169E0,8.507785968E0
1.540748665E0,1.144050002E0,-7.632000446E0,3.088050127E0,8.312179907E0
1.543247971E0,1.017000079E0,-7.588950157E0,2.932950258E0,8.199307950E0
1.545747147E0,7.390500307E-1,-7.440000534E0,2.538000107E0,7.895647373E0
1.548246529E0,5.190000534E-1,-7.537950516E0,2.929950237E0,8.103990833E0
1.550745839E0,6.580500603E-1,-7.359000206E0,2.695950031E0,7.864862395E0
1.553244993E0,7.630500197E-1,-7.308000565E0,3.151050091E0,7.994888008E0
1.555744299E0,9.499500394E-1,-7.240950108E0,3.486000061E0,8.092339585E0
1.558243458E0,1.006950021E0,-7.024050236E0,3.703950167E0,8.004403594E0
1.560742535E0,9.760500193E-1,-6.808050156E0,3.811950207E0,7.863407972E0
1.563241918E0,9.109500647E-1,-6.655050278E0,4.152000427E0,7.896748177E0
1.565740997E0,8.040000200E-1,-6.540000439E0,4.338000298E0,7.888996663E0
1.568240380E0,6.600000262E-1,-6.396000385E0,4.660950184E0,7.941591628E0
1.570739440E0,6.070500016E-1,-6.391050339E0,4.747950077E0,7.984802068E0
1.573238822E0,3.900000155E-1,-6.292950153E0,4.495950222E0,7.743829159E0
1.575738130E0,3.510000110E-1,-6.343950272E0,4.317000389E0,7.681497147E0
1.578237286E0,2.149500102E-1,-6.343950272E0,4.234950066E0,7.630642870E0
1.580736582E0,1.140000075E-1,-6.207000256E0,4.156050205E0,7.470783191E0
1.583235738E0,1.570500135E-1,-6.118950367E0,4.077000141E0,7.354464525E0
1.585735044E0,2.749500275E-1,-5.877000332E0,4.075050354E0,7.156868436E0
1.588234200E0,4.830000103E-1,-5.664000034E0,3.964950085E0,6.930729729E0
1.590733505E0,6.100500226E-1,-5.431050301E0,3.883050203E0,6.704218618E0
1.593232651E0,7.180500627E-1,-5.242050171E0,3.567000151E0,6.381079529E0
1.595731957E0,9.280500412E-1,-5.089050293E0,3.145950079E0,6.054478645E0
1.598231113E0,1.251000047E0,-4.950000286E0,2.788950205E0,5.817709789E0
1.600730419E0,1.483950019E0,-4.977000237E0,2.281949997E0,5.672736095E0
1.603229569E0,1.704000115E0,-5.115000248E0,1.606050134E0,5.625499174E0
1.605728875E0,2.142000198E0,-5.017050266E0,1.041000009E0,5.553614971E0
1.608228031E0,2.716950178E0,-4.900050163E0,2.560500205E-1,5.608731718E0
1.610727337E0,3.198000193E0,-4.840050220E0,-7.480500340E-1,5.849176884E0
1.613226493E0,3.705000162E0,-4.864050388E0,-1.713000059E0,6.349833193E0
1.615725789E0,4.066950321E0,-4.861950397E0,-2.440950155E0,6.792413727E0
1.618225174E0,4.326000214E0,-4.921050072E0,-2.641950130E0,7.064765541E0
1.620724253E0,4.608000278E0,-5.020050049E0,-2.203950167E0,7.161840922E0
1.623223635E0,5.017950058E0,-5.130000114E0,-1.366050124E0,7.304985756E0
1.625722714E0,5.334000111E0,-5.308950424E0,-4.710000157E-1,7.540447785E0
1.628221868E0,5.470050335E0,-5.379000187E0,7.129500508E-1,7.704764205E0
1.630721174E0,5.688000202E0,-5.308950424E0,1.972950101E0,8.026881898E0
1.633220330E0,5.992050171E0,-5.281050205E0,3.165000200E0,8.591355119E0
1.635719635E0,6.088050365E0,-5.388000488E0,3.967050076E0,9.046125846E0
1.638219020E0,6.018000126E0,-5.652000427E0,4.377000332E0,9.344493900E0
1.640718171E0,6.109050274E0,-5.982000351E0,4.726050377E0,9.769359017E0
1.643217477E0,6.061050415E0,-6.340950489E0,4.774050236E0,9.986768291E0
1.645716632E0,5.854950428E0,-6.679050446E0,4.779000282E0,1.008607967E1
1.648215938E0,5.701950073E0,-7.117050171E0,5.041950226E0,1.042045584E1
1.650715094E0,5.491950035E0,-7.627050400E0,5.133000374E0,1.070892646E1
1.653214400E0,5.185050011E0,-8.154000282E0,5.088000298E0,1.092063236E1
1.655713556E0,4.894950390E0,-8.616000175E0,5.044950008E0,1.111969060E1
1.658212861E0,4.630050182E0,-9.157050133E0,5.013000011E0,1.142011825E1
1.660712017E0,4.242000103E0,-9.676050186E0,4.899000168E0,1.164563071E1
1.663211323E0,3.688950062E0,-1.017195034E1,4.791000366E0,1.183345304E1
1.665710498E0,3.258000135E0,-1.060305023E1,4.687950134E0,1.204226372E1
1.668209803E0,2.899050236E0,-1.101705074E1,4.554000378E0,1.226861112E1
1.670708959E0,2.524950027E0,-1.143105030E1,4.354950428E0,1.249039138E1
1.673208265E0,2.191950083E0,-1.180500031E1,4.141950130E0,1.270111917E1
1.675707421E0,1.800000072E0,-1.181895065E1,3.972000122E0,1.259779265E1
1.678206755E0,1.488000035E0,-1.191705036E1,3.973950148E0,1.265000052E1
1.680705911E0,9.900000691E-1,-1.207095051E1,3.900000095E0,1.272391241E1
1.683205217E0,7.060500383E-1,-1.227405071E1,3.804000139E0,1.286939177E1
1.685704373E0,3.510000110E-1,-1.251300049E1,3.555000067E0,1.301293233E1
1.688203679E0,-1.390500069E-1,-1.264800072E1,2.986050129E0,1.299645153E1
1.690702847E0,-4.309500158E-1,-1.270695019E1,2.452050209E0,1.294854630E1
1.693202153E0,-4.090500176E-1,-1.261395073E1,2.148000002E0,1.280206932E1
1.695701309E0,-4.039500058E-1,-1.256895065E1,1.993950129E0,1.273253837E1
1.698200615E0,-6.049500108E-1,-1.272405052E1,1.792950034E0,1.286398445E1
1.700699763E0,-8.899500370E-1,-1.275495052E1,1.447950125E0,1.286768563E1
1.703199068E0,-9.739500284E-1,-1.276695061E1,6.900000572E-1,1.282262479E1
1.705698453E0,-1.150950074E0,-1.269795036E1,-1.549500078E-1,1.275094659E1
1.708197609E0,-1.398000121E0,-1.283700085E1,-7.290000319E-1,1.293346188E1
1.710696914E0,-1.636950135E0,-1.293495083E1,-1.273050070E0,1.310012272E1
1.713196078E0,-1.812000036E0,-1.315695095E1,-1.692000031E0,1.338848634E1
1.715695155E0,-1.795050144E0,-1.302105045E1,-1.809000134E0,1.326809864E1
1.718194538E0,-1.671000123E0,-1.284600067E1,-1.609950066E0,1.305388501E1
1.720693617E0,-1.996950150E0,-1.300200081E1,-1.552950025E0,1.324581023E1
1.723192927E0,-3.190950155E0,-1.299195099E1,-1.503000021E0,1.346224210E1
1.725692083E0,-5.490000248E0,-1.463205051E1,2.250000089E-1,1.562970345E1
1.728191389E0,-2.833950043E0,-1.672500038E1,1.735305023E1,2.426695826E1
1.730690774E0,-2.077950001E0,-1.556400108E1,1.178700066E1,1.963388373E1
1.733189919E0,-3.358950138E0,-1.750995064E1,4.876950264E0,1.848419761E1
1.735689225E0,-2.353049994E0,-1.986105156E1,3.238950253E0,2.026052842E1
1.738188381E0,-4.189500213E-1,-2.152305031E1,4.999500215E-1,2.153293207E1
1.740687687E0,-1.390500069E-1,-2.160195160E1,-1.024049997E0,2.162665777E1
1.743186843E0,-2.539499998E-1,-2.020395088E1,-1.737000108E0,2.028007128E1
1.745686158E0,-4.549500346E-1,-1.762995148E1,-2.017050028E0,1.775079321E1
1.748185314E0,-1.546050072E0,-1.500795078E1,-2.664000034E0,1.532076218E1
1.750684620E0,-1.917000055E0,-1.288005066E1,-3.382050276E0,1.345395326E1
1.753183776E0,-3.285000086E0,-1.150800037E1,-4.408950329E0,1.275398531E1
1.755683081E0,-5.584950447E0,-1.077000046E1,-4.741950035E0,1.302576952E1
1.758182251E0,-7.525050163E0,-1.002300072E1,-4.629000187E0,1.336093433E1
1.760681557E0,-8.977950096E0,-9.442049980E0,-3.790950298E0,1.356934781E1
1.763180713E0,-9.861000061E0,-9.016050339E0,-2.077050209E0,1.352193120E1
1.765680018E0,-1.007700062E1,-8.340000153E0,1.530000120E-1,1.308147366E1
1.768179179E0,-9.904950142E0,-8.149050713E0,2.157000065E0,1.300644894E1
1.770678485E0,-9.226950645E0,-8.416950226E0,3.448050261E0,1.295649335E1
1.773177641E0,-8.362950325E0,-8.833950043E0,4.075050354E0,1.282901582E1
1.775676947E0,-7.867050171E0,-9.435000420E0,3.958050251E0,1.290642759E1
1.778176102E0,-7.453050137E0,-9.904050827E0,3.294000149E0,1.282531154E1
1.780675413E0,-6.514050484E0,-1.078500080E1,2.338950157E0,1.281482672E1
1.783174569E0,-5.370000362E0,-1.137405014E1,1.635000110E0,1.268381433E1
1.785673875E0,-4.221000195E0,-1.180500031E1,1.147050023E0,1.258930493E1
1.788173030E0,-3.012000084E0,-1.203000069E1,4.189500213E-1,1.240840764E1
1.790672345E0,-1.909950137E0,-1.201995087E1,1.770000011E-1,1.217203588E1
1.793171501E0,-9.769500494E-1,-1.189800072E1,-1.039500013E-1,1.193849480E1
1.795670807E0,-2.820000052E-1,-1.163700008E1,-4.630500078E-1,1.164962275E1
1.798169963E0,2.869500220E-1,-1.126800060E1,-4.660500288E-1,1.128128452E1
1.800669268E0,7.699500322E-1,-1.087095070E1,-3.730500042E-1,1.090456595E1
1.803168653E0,9.310500622E-1,-1.059795094E1,-4.830000103E-1,1.064972804E1
1.805667809E0,1.000050068E0,-1.033995056E1,-5.190000534E-1,1.040115565E1
1.808167114E0,1.969950080E0,-8.773950577E0,-4.159500301E-1,9.001995694E0
1.810666270E0,3.715050220E0,-6.468000412E0,-5.430000424E-1,7.478734954E0
1.813165576E0,4.684950352E0,-5.673000336E0,-8.610000610E-1,7.407632126E0
1.815664732E0,4.030950069E0,-7.146000385E0,-1.198950052E0,8.291644059E0
1.818164038E0,3.274950266E0,-8.545949936E0,-1.087950110E0,9.216409008E0
1.820663193E0,3.090000153E0,-8.953050613E0,-5.310000181E-1,9.486157138E0
1.823162499E0,3.330000162E0,-8.683050156E0,-8.805000782E-2,9.300108273E0
1.825661655E0,3.667050123E0,-8.374050140E0,4.240500331E-1,9.151600450E0
1.828160976E0,3.733950138E0,-8.350049973E0,9.360000491E-1,9.194662271E0
1.830660132E0,3.307950258E0,-8.809950829E0,1.590000033E0,9.543891691E0
1.833159437E0,2.913000107E0,-9.607050896E0,1.915050149E0,1.022000067E1
1.835658593E0,2.712000132E0,-9.949050903E0,2.128050089E0,1.052934736E1
1.838157870E0,2.173050165E0,-1.048800087E1,2.230950117E0,1.094063287E1
1.840657026E0,1.528950095E0,-1.087605095E1,2.131050110E0,1.118783032E1
1.843156331E0,7.920000553E-1,-1.146000099E1,2.056950092E0,1.167004415E1
1.845655487E0,3.799500167E-1,-1.169505024E1,2.124000072E0,1.189243198E1
1.848154793E0,-1.905000024E-2,-1.169505024E1,2.478000164E0,1.195470819E1
1.850653925E0,-4.000500143E-1,-1.161795044E1,2.911050081E0,1.198378175E1
1.853153230E0,-6.940500140E-1,-1.132800007E1,3.571950197E0,1.189807208E1
1.855652386E0,-1.004999995E0,-1.102905083E1,4.273950100E0,1.187083134E1
1.858151692E0,-1.258950114E0,-1.090005016E1,4.884000301E0,1.201039166E1
1.860650848E0,-1.489050031E0,-1.087605095E1,5.503950119E0,1.228003343E1
1.863150144E0,-1.680000067E0,-1.082295036E1,6.178950310E0,1.257529649E1
1.865649299E0,-1.740000129E0,-1.060500050E1,6.625050545E0,1.262477448E1
1.868148682E0,-1.743000031E0,-1.038000011E1,7.036950111E0,1.266100779E1
1.870647761E0,-1.599000096E0,-1.012395000E1,7.233000278E0,1.254461869E1
1.873147144E0,-1.060050011E0,-9.645000458E0,7.177950382E0,1.206949508E1
1.875646222E0,-4.120500088E-1,-9.163949966E0,6.996000290E0,1.153654126E1
1.878145605E0,3.580500185E-1,-8.616000175E0,6.637050152E0,1.088182400E1
1.880644684E0,1.153050065E0,-8.149050713E0,6.196050167E0,1.030182458E1
1.883144067E0,1.539000034E0,-7.816050529E0,5.692950249E0,9.791263939E0
1.885643374E0,1.579050064E0,-7.924050331E0,5.158950329E0,9.586383116E0
1.888142530E0,1.801950097E0,-8.105999947E0,4.348050117E0,9.373355808E0
1.890641607E0,2.097000122E0,-8.047950745E0,3.655950069E0,9.084761505E0
1.893140990E0,2.310000181E0,-7.929000378E0,3.093000174E0,8.818832003E0
1.895640297E0,2.242950201E0,-8.386050224E0,2.301000118E0,8.980604964E0
1.898139453E0,2.311950207E0,-8.673000336E0,2.083050013E0,9.214398837E0
1.900638759E0,2.125050068E0,-8.914950371E0,2.083050013E0,9.398471964E0
1.903137915E0,1.924050093E0,-9.090000153E0,1.972950101E0,9.498557977E0
1.905637221E0,1.644000053E0,-9.175950050E0,1.558950067E0,9.451514207E0
1.908136376E0,1.471950054E0,-8.889000893E0,1.225950003E0,9.093070287E0
1.910635672E0,1.030950069E0,-8.403000832E0,1.099050045E0,8.537048203E0
1.913134828E0,5.329500437E-1,-7.741950512E0,1.132050037E0,7.842408480E0
1.915634134E0,1.860000044E-1,-7.564950466E0,1.057950020E0,7.640833057E0
1.918133289E0,-1.909500062E-1,-7.876050472E0,1.175999999E0,7.965651822E0
1.920632616E0,-3.229500055E-1,-8.142000198E0,1.053000093E0,8.216159269E0
1.923131772E0,-5.740500093E-1,-8.319000244E0,9.580500722E-1,8.393637973E0
1.925631078E0,-6.960000396E-1,-8.427000046E0,9.430500269E-1,8.508119015E0
1.928130234E0,-6.100500226E-1,-8.367000580E0,1.129950047E0,8.464965850E0
1.930629539E0,-4.669500291E-1,-8.235000610E0,1.192050099E0,8.333922295E0
1.933128680E0,-2.820000052E-1,-8.281050682E0,1.426950097E0,8.407824391E0
1.935627986E0,3.495000303E-2,-8.281050682E0,1.654050112E0,8.444696778E0
1.938127142E0,8.800500631E-1,-7.869000435E0,2.017950058E0,8.171155267E0
1.940626524E0,1.261050105E0,-7.651050568E0,2.053950071E0,8.021691408E0
1.943125603E0,1.575000048E0,-7.510050297E0,2.083050013E0,7.951136898E0
1.945624986E0,1.917000055E0,-7.380000114E0,2.005950212E0,7.884359654E0
1.948124065E0,2.266950130E0,-7.251000404E0,1.858050108E0,7.821024227E0
1.950623447E0,2.743050098E0,-6.934950352E0,1.546950102E0,7.616489667E0
1.953122531E0,3.310050249E0,-6.508950233E0,1.233000040E0,7.405616442E0
1.955621837E0,3.727050066E0,-6.463050365E0,9.360000491E-1,7.519176704E0
1.958120993E0,4.153050423E0,-6.331950188E0,6.220500469E-1,7.597918613E0
1.960620299E0,4.435950279E0,-6.403050423E0,4.789500237E-1,7.804236204E0
1.963119683E0,4.576950073E0,-6.523050308E0,4.120500088E-1,7.979250748E0
1.965618848E0,4.491000175E0,-6.790950298E0,5.749500394E-1,8.161902724E0
1.968118154E0,4.263000011E0,-7.231950283E0,6.630000472E-1,8.421035747E0
1.970617233E0,4.014000416E0,-7.414050579E0,7.399500608E-1,8.463325081E0
1.973116615E0,3.799050093E0,-7.468950272E0,1.080000043E0,8.448928918E0
1.975615694E0,3.504000187E0,-7.414050579E0,1.492050052E0,8.335009098E0
1.978115077E0,3.313050270E0,-7.251000404E0,1.860000134E0,8.186141304E0
1.980614233E0,2.962950230E0,-7.146000385E0,2.266950130E0,8.061231821E0
1.983113538E0,2.773950100E0,-6.775050163E0,2.497050047E0,7.735073549E0
1.985612694E0,2.740950108E0,-6.540000439E0,2.965950251E0,7.686434422E0
1.988112000E0,2.532000065E0,-6.447000504E0,3.208050251E0,7.633244804E0
1.990611171E0,2.619000196E0,-6.211950302E0,3.457050085E0,7.576191911E0
1.993110477E0,2.674050093E0,-5.998950481E0,3.946050167E0,7.662196989E0
1.995609632E0,2.607000113E0,-5.653950214E0,4.048950195E0,7.426816296E0
1.998108938E0,2.584950209E0,-5.464950085E0,4.389000416E0,7.470674110E0
2.000608099E0,2.602050066E0,-5.221050262E0,4.539000034E0,7.391383612E0
2.003107405E0,2.608950138E0,-5.011950016E0,4.555950165E0,7.258301846E0
2.005606560E0,2.841000080E0,-4.795050144E0,4.681050301E0,7.278462699E0
2.008105866E0,3.030000210E0,-4.440000057E0,4.666050434E0,7.118042458E0
2.010605022E0,3.229050159E0,-4.036050320E0,4.530000210E0,6.872944712E0
2.013104328E0,3.436950207E0,-3.745950222E0,4.671000004E0,6.903840295E0
2.015603484E0,3.622050285E0,-3.637950182E0,4.597050190E0,6.891066699E0
2.018102789E0,3.370050192E0,-3.540000200E0,5.191050053E0,7.129925691E0
2.020601945E0,3.042000055E0,-4.816050053E0,5.382000446E0,7.836710487E0
2.023101270E0,2.980050087E0,-5.563050270E0,5.614050388E0,8.446643629E0
2.025600426E0,2.832000017E0,-5.629950047E0,5.703000069E0,8.499457124E0
2.028099731E0,3.181050062E0,-5.977050304E0,5.751000404E0,8.883592488E0
2.030599116E0,3.459000111E0,-6.451050282E0,5.976000309E0,9.449513807E0
2.033098286E0,3.243000269E0,-7.033050537E0,5.623950481E0,9.571294041E0
2.035597592E0,3.034950256E0,-7.561950207E0,5.320050240E0,9.731235715E0
2.038096670E0,3.400950193E0,-7.347000122E0,4.882050037E0,9.454061856E0
2.040596053E0,2.899050236E0,-8.359950066E0,4.483950138E0,9.919630346E0
2.043095132E0,2.425050020E0,-8.959950447E0,4.987050056E0,1.053718406E1
2.045594515E0,8.040000200E-1,-1.009305000E1,5.278950214E0,1.141855463E1
2.048093594E0,-5.500500202E-1,-1.126395035E1,4.747950077E0,1.223610078E1
2.050592747E0,-1.891050100E0,-1.238400078E1,4.635000229E0,1.335749875E1
2.053092053E0,-3.088050127E0,-1.338000107E1,4.386000156E0,1.441518226E1
2.055591209E0,-3.945000172E0,-1.412700081E1,4.288050175E0,1.528144471E1
2.058090578E0,-4.759050369E0,-1.482105064E1,4.153950214E0,1.611109571E1
2.060589887E0,-5.260050297E0,-1.536705112E1,4.012950420E0,1.673075493E1
2.063089041E0,-5.662050247E0,-1.614495087E1,3.754050255E0,1.751602537E1
2.065588347E0,-6.313050270E0,-1.635105133E1,4.180050373E0,1.801899843E1
2.068087503E0,-6.459000111E0,-1.601895142E1,3.924000263E0,1.771223489E1
2.070586808E0,-6.318000317E0,-1.466295052E1,4.069950104E0,1.647676363E1
2.073085964E0,-5.956950188E0,-1.332000065E1,4.450950146E0,1.525511816E1
2.075585270E0,-5.868000507E0,-1.207995033E1,5.298000336E0,1.443701623E1
2.078084426E0,-5.893950462E0,-1.056495094E1,6.333000183E0,1.365517235E1
2.080583721E0,-5.935050488E0,-9.432000160E0,7.458000183E0,1.340929596E1
2.083082877E0,-5.635950089E0,-8.460000038E0,8.406000137E0,1.319076845E1
2.085582183E0,-5.394000053E0,-8.091000557E0,9.478950500E0,1.357976543E1
2.088081339E0,-5.154000282E0,-8.223000526E0,1.029300022E1,1.414663600E1
2.090580655E0,-5.173950195E0,-9.063000679E0,1.087200069E1,1.507010753E1
2.093079810E0,-5.140050411E0,-1.015500069E1,1.084305096E1,1.571992084E1
2.095579116E0,-5.001000404E0,-1.130205059E1,1.038600063E1,1.614358578E1
2.098078272E0,-4.692000389E0,-1.204905033E1,9.565050125E0,1.608367699E1
2.100577578E0,-4.198950291E0,-1.289205074E1,8.662050247E0,1.608935270E1
2.103076718E0,-3.505050182E0,-1.345200062E1,7.752000332E0,1.591650736E1
2.105576023E0,-3.079050064E0,-1.398105049E1,6.832950115E0,1.586315005E1
2.108075179E0,-2.344050169E0,-1.434300041E1,5.947050095E0,1.570298178E1
2.110574485E0,-1.642050028E0,-1.462005043E1,5.182950020E0,1.559824265E1
2.113073641E0,-1.033950090E0,-1.481400108E1,4.470000267E0,1.550821019E1
2.115572946E0,-4.570500255E-1,-1.461105061E1,4.264050007E0,1.522740349E1
2.118072102E0,-4.995000362E-2,-1.421295071E1,4.132050037E0,1.480149656E1
2.120571408E0,5.640000105E-1,-1.357200050E1,4.045950413E0,1.417346141E1
2.123070564E0,1.074000001E0,-1.326000023E1,3.799950123E0,1.383548709E1
2.125569932E0,1.759050131E0,-1.298295021E1,4.051050186E0,1.371357944E1
2.128069242E0,2.539950132E0,-1.282905102E1,3.943050146E0,1.365955860E1
2.130568396E0,3.399000168E0,-1.290405083E1,3.996000290E0,1.392967150E1
2.133067702E0,4.210950375E0,-1.306905079E1,4.611000061E0,1.448425052E1
2.135566857E0,4.984050274E0,-1.303305054E1,4.614000320E0,1.469660377E1
2.138066168E0,6.430050373E0,-1.307805061E1,4.729050159E0,1.532138607E1
2.140565324E0,7.435950279E0,-1.331805038E1,4.768950462E0,1.598144897E1
2.143064630E0,8.152050018E0,-1.375800037E1,5.131050110E0,1.679482566E1
2.145563709E0,8.803050041E0,-1.413705063E1,5.317950249E0,1.748229062E1
2.148063091E0,9.267000198E0,-1.445505047E1,4.981950283E0,1.787863544E1
2.150562227E0,9.736050606E0,-1.487400055E1,4.839000225E0,1.842396529E1
2.153061533E0,9.862950325E0,-1.620300102E1,7.033950329E0,2.023095372E1
2.155560689E0,8.857950211E0,-1.667700005E1,5.440050125E0,1.965145689E1
2.158059994E0,7.960050583E0,-1.634399986E1,4.459950447E0,1.871843730E1
2.160559136E0,6.937950134E0,-1.546095085E1,3.685050249E0,1.734231094E1
2.163058442E0,6.907050133E0,-1.533900070E1,3.436050177E0,1.716970369E1
2.165557598E0,6.660000324E0,-1.548705101E1,3.277950048E0,1.717408833E1
2.168056903E0,6.271950245E0,-1.563795090E1,3.105000257E0,1.713253906E1
2.170556059E0,5.757000446E0,-1.545105076E1,3.024000168E0,1.676372872E1
2.173055350E0,5.269050121E0,-1.527405071E1,2.775000095E0,1.639390557E1
2.175554506E0,4.736999989E0,-1.506795025E1,2.266950130E0,1.595685923E1
2.178053812E0,3.933000088E0,-1.497495079E1,1.981950045E0,1.560915651E1
2.180552967E0,3.112050056E0,-1.496805096E1,2.215050220E0,1.544777824E1
2.183052273E0,2.590050220E0,-1.501800060E1,2.239050150E0,1.540331288E1
2.185551429E0,1.644000053E0,-1.446000099E1,3.031050205E0,1.486545089E1
2.188050735E0,1.096050024E0,-1.383495045E1,2.794050217E0,1.415676150E1
2.190549891E0,2.479500175E-1,-1.375800037E1,3.033000231E0,1.409053384E1
2.193049196E0,-9.649500251E-1,-1.383705044E1,3.313950062E0,1.426104338E1
2.195548338E0,-5.347950459E0,-1.534605026E1,3.819000244E0,1.669390894E1
2.198047644E0,-7.885950565E0,-1.531200027E1,3.898050070E0,1.765900232E1
2.200546800E0,-6.694050312E0,-1.532895088E1,5.182950020E0,1.751142529E1
2.203046105E0,-5.374950409E0,-1.347795105E1,4.800000191E0,1.528349627E1
2.205545275E0,-4.924950123E0,-1.402395058E1,3.438000202E0,1.525602074E1
2.208044581E0,-5.101950169E0,-1.573605061E1,2.623950243E0,1.674927757E1
2.210543737E0,-5.770050049E0,-1.623600006E1,2.205000162E0,1.737133274E1
2.213043042E0,-6.172050476E0,-1.698300171E1,1.585050106E0,1.813915483E1
2.215542208E0,-6.655950546E0,-1.698600006E1,1.267050028E0,1.828746269E1
2.218041514E0,-7.063050270E0,-1.692600060E1,7.609500289E-1,1.835634005E1
2.220540899E0,-7.422000408E0,-1.661205101E1,7.249500155E-1,1.820911534E1
2.223040054E0,-8.546999931E0,-1.602600098E1,8.479500413E-1,1.818248977E1
2.225539360E0,-9.205050468E0,-1.520895100E1,1.198950052E0,1.781804214E1
2.228038511E0,-9.351000786E0,-1.412700081E1,9.100500345E-1,1.696589398E1
2.230537817E0,-9.418950081E0,-1.337805080E1,9.190500379E-1,1.638699231E1
2.233036973E0,-9.696000099E0,-1.266405106E1,1.369050026E0,1.600827614E1
2.235536278E0,-9.997950554E0,-1.179795074E1,1.554000020E0,1.554237991E1
2.238035444E0,-1.012695026E1,-1.059795094E1,1.458000064E0,1.473083331E1
2.240534521E0,-9.835050583E0,-8.745000839E0,1.398000121E0,1.323471435E1
2.243033904E0,-8.797950745E0,-6.789000511E0,1.137000084E0,1.117082067E1
2.245533211E0,-8.212050438E0,-5.884050369E0,1.192050099E0,1.017255153E1
2.248032362E0,-7.618050575E0,-5.532000065E0,1.414950013E0,9.520493833E0
2.250531668E0,-7.054950237E0,-4.917000294E0,2.350950003E0,8.914941427E0
2.253030824E0,-6.250950336E0,-4.396950245E0,2.449050188E0,8.025297402E0
2.255530129E0,-5.410950184E0,-3.724050283E0,2.422950029E0,7.001258405E0
2.258029285E0,-4.771050453E0,-3.700050116E0,1.908000112E0,6.331963180E0
2.260528600E0,-3.330000162E0,-3.601950169E0,1.128000021E0,5.033421316E0
2.263027756E0,-2.842050076E0,-4.135950089E0,2.539499998E-1,5.024721123E0
2.265527062E0,-2.611950159E0,-4.747050285E0,-4.060500264E-1,5.433382618E0
2.268026217E0,-1.171050072E0,-5.376000404E0,-2.910000086E-1,5.509756766E0
2.270525523E0,-7.180500627E-1,-6.874950409E0,-3.169500232E-1,6.919609551E0
2.273024679E0,-5.190000534E-1,-7.645950317E0,-6.259500384E-1,7.689065662E0
2.275523985E0,9.430500269E-1,-7.950000286E0,-7.009500265E-1,8.036366022E0
2.278023140E0,2.416950226E0,-8.512949944E0,-7.270500064E-1,8.879221072E0
2.280522446E0,3.685950279E0,-9.037050247E0,-1.789500117E-1,9.761481944E0
2.283021608E0,4.588950157E0,-9.676050186E0,7.090500593E-1,1.073252825E1
2.285520914E0,5.089050293E0,-1.017705059E1,1.549050093E0,1.148348152E1
2.288020070E0,5.365050316E0,-1.063605022E1,2.131050110E0,1.210168186E1
2.290519452E0,5.559000492E0,-1.089705086E1,2.599950075E0,1.250631617E1
2.293018762E0,5.371950150E0,-1.087305069E1,3.165000200E0,1.253388631E1
2.295517916E0,5.038950443E0,-1.045200062E1,3.217950106E0,1.204120182E1
2.298017221E0,4.564949989E0,-9.637950897E0,2.671950102E0,1.099400670E1
2.300516300E0,3.969000101E0,-8.878950119E0,1.791000128E0,9.889206160E0
2.303015452E0,3.619050264E0,-8.275950432E0,1.350000024E0,9.132983107E0
2.305514760E0,3.603000164E0,-7.866000175E0,1.405050039E0,8.765257244E0
2.308013916E0,3.411000252E0,-7.572000504E0,9.100500345E-1,8.354538013E0
2.310513298E0,3.102000237E0,-7.270050526E0,1.990500093E-1,7.906684578E0
2.313012377E0,2.875050068E0,-7.000050545E0,-2.959500253E-1,7.573256033E0
2.315511760E0,2.331000090E0,-6.046950340E0,-2.050500065E-1,6.483919751E0
2.318011054E0,2.764950037E0,-6.367950439E0,-6.190500259E-1,6.969861149E0
2.320510210E0,2.872050047E0,-6.082950115E0,2.130000144E-1,6.730254273E0
2.323009515E0,2.638050079E0,-6.174000263E0,1.510500014E-1,6.715683403E0
2.325508671E0,2.575050116E0,-6.220950127E0,7.695000619E-2,6.733277425E0
2.328007957E0,2.353049994E0,-6.183000088E0,1.770000011E-1,6.617980308E0
2.330507113E0,2.026950121E0,-5.962950230E0,2.149500102E-1,6.301706574E0
2.333006418E0,2.173050165E0,-6.135000229E0,-1.050000079E-3,6.508484918E0
2.335505574E0,1.785000086E0,-5.877000332E0,1.290000081E-1,6.143451734E0
2.338004880E0,2.994000196E0,-3.609000206E0,-9.300000668E-1,4.780566890E0
2.340504041E0,3.688950062E0,-2.448000193E0,1.161000013E0,4.577005411E0
2.343003346E0,4.423950195E0,-2.023950100E0,-8.269500136E-1,4.934729543E0
2.345502502E0,4.696950436E0,-1.038000107E0,-7.240500450E-1,4.864466680E0
2.348001808E0,4.879050255E0,-1.230000034E-1,-7.510500550E-1,4.938049876E0
2.350500964E0,4.098000050E0,-3.679500222E-1,-1.621950030E0,4.422636490E0
2.353000280E0,3.685950279E0,-9.570000172E-1,-1.861950040E0,4.238978231E0
2.355499435E0,3.460950136E0,-1.275000095E0,-3.840000033E-1,3.708268746E0
2.357998741E0,3.567000151E0,-1.474050045E0,5.460000038E-1,3.898003286E0
2.360498126E0,3.844050169E0,-1.548000097E0,9.430500269E-1,4.249984630E0
2.362997277E0,3.592950106E0,-2.047950029E0,1.489050031E0,4.395527247E0
2.365496353E0,3.301050186E0,-2.544000149E0,1.638000131E0,4.477936301E0
2.367995659E0,3.193050146E0,-3.004050255E0,2.017950058E0,4.826179608E0
2.370494815E0,3.081000090E0,-3.313050270E0,2.610000134E0,5.223118258E0
2.372994121E0,3.282000065E0,-3.781950235E0,3.213000059E0,5.949625315E0
2.375493282E0,3.081000090E0,-3.676050186E0,4.599000454E0,6.645051670E0
2.377992587E0,2.652000189E0,-3.949050188E0,5.928000450E0,7.600611273E0
2.380491743E0,2.056050062E0,-4.207950115E0,7.300050259E0,8.673230068E0
2.382991049E0,1.273050070E0,-4.585950375E0,8.563950539E0,9.797593896E0
2.385490433E0,2.050500065E-1,-5.214000225E0,1.018005085E1,1.143946149E1
2.387989574E0,-6.289500594E-1,-5.731050491E0,1.110405064E1,1.251161294E1
2.390488880E0,-1.105949998E0,-6.159000397E0,1.077105045E1,1.245680293E1
2.392988036E0,-1.591950059E0,-6.559050083E0,8.574000359E0,1.091187084E1
2.395487342E0,-2.185950041E0,-7.239000320E0,6.936000347E0,1.026107227E1
2.397986468E0,-2.404050112E0,-7.854000568E0,8.430000305E0,1.176986351E1
2.400485545E0,-2.346000195E0,-8.212950706E0,1.120695019E1,1.409084840E1
2.402984928E0,-2.272050142E0,-8.161050797E0,1.416195107E1,1.650229741E1
2.405484236E0,-2.455950022E0,-8.086950302E0,1.695300102E1,1.894293270E1
2.407983391E0,-2.620950222E0,-7.813950539E0,1.944795036E1,2.112226258E1
2.410482697E0,-2.842050076E0,-7.669950485E0,2.120100021E1,2.272416773E1
2.412981853E0,-3.190950155E0,-7.387050152E0,2.289795113E1,2.427069918E1
2.415481159E0,-4.093950272E0,-7.536000252E0,2.514900208E1,2.657111277E1
2.417980315E0,-4.678050041E0,-7.798950195E0,2.693205070E1,2.842609948E1
2.420479620E0,-4.611000061E0,-7.597950459E0,2.824905205E1,2.961417084E1
2.422978767E0,-4.893000126E0,-7.624050140E0,2.778195190E1,2.922164339E1
2.425478073E0,-7.744950294E0,-9.730950356E0,2.516100121E1,2.806691347E1
2.427977229E0,-1.191300011E1,-1.318395042E1,2.076705170E1,2.733142068E1
2.430476534E0,-1.449405098E1,-1.570995045E1,1.610805130E1,2.676470388E1
2.432975690E0,-1.432695103E1,-1.592805099E1,1.088400078E1,2.402968596E1
2.435475015E0,-1.333095074E1,-1.490295029E1,4.480050087E0,2.049104740E1
2.437974171E0,-1.128105068E1,-1.467300034E1,2.824950218E0,1.872269711E1
2.440473476E0,-9.000000000E0,-1.457700062E1,-5.260500312E-1,1.713959380E1
2.442972632E0,-7.795050144E0,-1.519500065E1,-3.676950216E0,1.746913891E1
2.445471938E0,-7.362000465E0,-1.577400112E1,-6.961050510E0,1.874765016E1
2.447971094E0,-7.113000393E0,-1.628205109E1,-9.906000137E0,2.034278253E1
2.450470400E0,-6.739050388E0,-1.668900108E1,-1.283700085E1,2.210715151E1
2.452969555E0,-6.510000229E0,-1.679895020E1,-1.555395031E1,2.380147476E1
2.455468923E0,-5.997000217E0,-1.626000023E1,-1.830300140E1,2.520617939E1
2.457968233E0,-5.131050110E0,-1.508205032E1,-2.105595016E1,2.640357844E1
2.460467387E0,-5.188050270E0,-1.430700111E1,-2.280105019E1,2.741339155E1
2.462966464E0,-5.748000145E0,-1.465095043E1,-2.400300026E1,2.870250644E1
2.465465846E0,-6.313050270E0,-1.465605068E1,-2.441505051E1,2.916760389E1
2.467964921E0,-6.775050163E0,-1.418205070E1,-2.330205154E1,2.810724948E1
2.470464304E0,-6.478050232E0,-1.326300049E1,-2.111100006E1,2.575939907E1
2.472963383E0,-5.839050293E0,-1.212795067E1,-1.839795113E1,2.279619050E1
2.475462765E0,-5.089950085E0,-1.140300083E1,-1.489305115E1,1.943550854E1
2.477961844E0,-4.515000343E0,-1.134495068E1,-1.109895039E1,1.650090402E1
2.480461226E0,-3.742050171E0,-1.147905064E1,-7.471050262E0,1.419817365E1
2.482960534E0,-2.844000101E0,-1.148400021E1,-4.048050404E0,1.250429164E1
2.485459689E0,-1.969950080E0,-1.141905022E1,-9.280500412E-1,1.162483067E1
2.487958995E0,-1.045950055E0,-1.140000057E1,1.894050121E0,1.160351026E1
2.490458151E0,-3.469500244E-1,-1.149795055E1,4.450950146E0,1.233426927E1
2.492957466E0,1.260000020E-1,-1.166805077E1,6.831000328E0,1.352116305E1
2.495456621E0,3.780000210E-1,-1.187400055E1,8.704950333E0,1.472789643E1
2.497955927E0,5.740500093E-1,-1.200105095E1,1.032405090E1,1.584111058E1
2.500455083E0,6.169500351E-1,-1.209195042E1,1.149900055E1,1.669799107E1
2.502954389E0,3.679500222E-1,-1.225005054E1,1.234395027E1,1.739460358E1
2.505453560E0,-2.029500157E-1,-1.236300087E1,1.269195080E1,1.771921540E1
2.507952865E0,-9.450000525E-1,-1.243005085E1,1.258200073E1,1.771174558E1
2.510452021E0,-3.154950142E0,-1.154895020E1,1.175805092E1,1.678045656E1
2.512951327E0,-5.214000225E0,-1.024395084E1,9.828000069E0,1.512329040E1
2.515450483E0,-4.137000084E0,-1.087305069E1,1.003905010E1,1.536621385E1
2.517949797E0,-2.866050243E0,-1.144305038E1,9.687000275E0,1.526419406E1
2.520448953E0,-2.479950190E0,-1.178805065E1,9.084000587E0,1.508732441E1
2.522948259E0,-2.638050079E0,-1.183605099E1,8.332050323E0,1.471307153E1
2.525447415E0,-2.691000223E0,-1.160805035E1,7.507950306E0,1.408394948E1
2.527946725E0,-2.671950102E0,-1.147905064E1,6.553050518E0,1.348519158E1
2.530445881E0,-2.659950018E0,-1.135500050E1,5.641050339E0,1.295503066E1
2.532945187E0,-2.740950108E0,-1.141905022E1,4.822050095E0,1.269486835E1
2.535444343E0,-2.845950127E0,-1.150995064E1,3.964950085E0,1.250196884E1
2.537943649E0,-2.812950134E0,-1.151295090E1,3.277950048E0,1.229657202E1
2.540442804E0,-2.760000229E0,-1.151295090E1,2.731950045E0,1.215027533E1
2.542942110E0,-2.842050076E0,-1.149795055E1,2.241000175E0,1.205413611E1
2.545441266E0,-2.902050257E0,-1.144095039E1,1.945950150E0,1.196260689E1
2.547940572E0,-2.929950237E0,-1.131600094E1,1.615950108E0,1.180032967E1
2.550439728E0,-2.779050112E0,-1.109400082E1,1.410000086E0,1.152337077E1
2.552939110E0,-2.977950096E0,-1.100505066E1,1.546950102E0,1.150531970E1
2.555438420E0,-3.133950233E0,-1.086900043E1,1.855050087E0,1.146289777E1
2.557937574E0,-3.454950094E0,-1.074900055E1,2.313000202E0,1.152508841E1
2.560436874E0,-3.514050245E0,-1.046595097E1,2.983050108E0,1.143605118E1
2.562935953E0,-3.751050234E0,-1.030800056E1,3.627000093E0,1.155337107E1
2.565435336E0,-3.832950115E0,-9.978000641E0,4.137000084E0,1.146153450E1
2.567934415E0,-3.771000147E0,-9.649950027E0,4.693050385E0,1.137394828E1
2.570433798E0,-3.688950062E0,-9.391050339E0,5.301000118E0,1.139740239E1
2.572932857E0,-3.768000126E0,-9.178050041E0,5.689050198E0,1.143677051E1
2.575432240E0,-3.832950115E0,-8.986950874E0,6.085950375E0,1.151067264E1
2.577931396E0,-3.880950212E0,-8.884050369E0,6.543000221E0,1.169610950E1
2.580430702E0,-3.847050190E0,-8.802000046E0,6.850050449E0,1.179822830E1
2.582929857E0,-4.141950130E0,-8.758950233E0,7.374000549E0,1.217583033E1
2.585429192E0,-4.269000053E0,-8.728050232E0,7.563000202E0,1.231268429E1
2.587928348E0,-4.129950047E0,-8.613000870E0,7.654050350E0,1.224029240E1
2.590427654E0,-3.937950134E0,-8.494050026E0,7.639950275E0,1.208408777E1
2.592926810E0,-3.766050100E0,-8.364000320E0,7.503000259E0,1.185051255E1
2.595426115E0,-3.498000145E0,-8.185050011E0,7.381050587E0,1.156334538E1
2.597925280E0,-3.457050085E0,-8.020050049E0,7.101000309E0,1.125595858E1
2.600424586E0,-3.094950199E0,-7.692000389E0,6.910050392E0,1.079325637E1
2.602923742E0,-2.916000128E0,-7.315950394E0,6.643950462E0,1.030379855E1
2.605423047E0,-2.454000235E0,-6.829950333E0,6.153000355E0,9.514712400E0
2.607922203E0,-2.143050194E0,-6.376950264E0,5.662050247E0,8.793006983E0
2.610421509E0,-1.807050109E0,-6.001050472E0,4.920000076E0,7.967712195E0
2.612920665E0,-1.780950069E0,-5.805000305E0,3.994050264E0,7.267891662E0
2.615419970E0,-1.786050081E0,-5.769000053E0,3.115050077E0,6.795209599E0
2.617919126E0,-1.884000063E0,-5.857950211E0,2.334000111E0,6.581230388E0
2.620418432E0,-1.836000085E0,-5.865000248E0,1.807950139E0,6.406075860E0
2.622917574E0,-1.843050122E0,-5.938950062E0,1.489050031E0,6.394156049E0
2.625416956E0,-1.969950080E0,-6.066000462E0,1.447950125E0,6.540154775E0
2.627916035E0,-2.092050076E0,-6.147000313E0,1.731000066E0,6.720018422E0
2.630415341E0,-2.020050049E0,-6.210000515E0,1.978050113E0,6.823297652E0
2.632914497E0,-2.122950077E0,-6.343950272E0,2.212050200E0,7.045976736E0
2.635413793E0,-2.097000122E0,-6.444000244E0,2.397000074E0,7.188056623E0
2.637912949E0,-2.358000040E0,-6.661950111E0,2.617050171E0,7.535960129E0
2.640412254E0,-2.152050018E0,-6.661950111E0,2.926050186E0,7.587797326E0
2.642911410E0,-2.028000116E0,-6.673950195E0,3.189000130E0,7.669688228E0
2.645410721E0,-2.085000038E0,-6.648000240E0,3.541050196E0,7.815508227E0
2.647910105E0,-2.178000212E0,-6.660000324E0,3.910050154E0,8.024199739E0
2.650409261E0,-2.212050200E0,-6.592950344E0,4.183050156E0,8.115298450E0
2.652908567E0,-2.169000149E0,-6.475050449E0,4.221000195E0,8.027931403E0
2.655407729E0,-2.194950104E0,-6.187950134E0,4.171050072E0,7.778572589E0
2.657907034E0,-2.128050089E0,-5.872050285E0,4.019999981E0,7.427649129E0
2.660406190E0,-2.097000122E0,-5.422050476E0,3.742050171E0,6.913680667E0
2.662905496E0,-2.161950111E0,-4.986000061E0,3.393000126E0,6.406767886E0
2.665404657E0,-2.262000084E0,-4.651050091E0,3.013950109E0,5.986051001E0
2.667903963E0,-2.566050053E0,-4.392000198E0,2.860950232E0,5.836035884E0
2.670403042E0,-2.884950161E0,-4.258049965E0,2.746050119E0,5.830498966E0
2.672902424E0,-3.160050154E0,-4.177050114E0,2.749050140E0,5.915314134E0
2.675401580E0,-3.435000181E0,-4.171950340E0,2.935050249E0,6.149708599E0
2.677900881E0,-3.720000267E0,-4.276950359E0,3.304050207E0,6.561055870E0
2.680400037E0,-3.877950191E0,-4.320000172E0,3.784950256E0,6.930133304E0
2.682899342E0,-3.945000172E0,-4.380000114E0,4.269000053E0,7.278172079E0
2.685398498E0,-3.948000193E0,-4.399950027E0,4.767000198E0,7.594113290E0
2.687897809E0,-3.925950289E0,-4.500000000E0,5.125950336E0,7.870098635E0
2.690396965E0,-3.832950115E0,-4.579050064E0,5.373000145E0,8.032953170E0
2.692896270E0,-3.711000204E0,-4.687050343E0,5.478000164E0,8.108541745E0
2.695395426E0,-3.607950211E0,-4.789950371E0,5.422950268E0,8.085129491E0
2.697894732E0,-3.510000229E0,-4.909050465E0,5.262000084E0,8.006717364E0
2.700393883E0,-3.511950254E0,-5.058000088E0,4.966050148E0,7.910677187E0
2.702893188E0,-3.541050196E0,-5.190000057E0,4.639950275E0,7.810523391E0
2.705392344E0,-3.619950056E0,-5.368950367E0,4.216050148E0,7.726884579E0
2.707891650E0,-3.736950159E0,-5.560950279E0,3.816000223E0,7.710435928E0
2.710390806E0,-3.895050287E0,-5.793000221E0,3.418950081E0,7.772997360E0
2.712890107E0,-4.102950096E0,-5.998950481E0,2.863050222E0,7.811444357E0
2.715389262E0,-4.336050034E0,-6.175950527E0,2.389050007E0,7.915254560E0
2.717888568E0,-4.542000294E0,-6.403050423E0,1.924950123E0,8.082960742E0
2.720387953E0,-4.723050117E0,-6.580950260E0,1.654050112E0,8.267526263E0
2.722887032E0,-4.858050346E0,-6.805950165E0,1.390950084E0,8.476812664E0
2.725386199E0,-4.897950172E0,-6.991950512E0,1.171050072E0,8.616765410E0
2.727885505E0,-4.945950031E0,-7.183950424E0,1.123050094E0,8.793907375E0
2.730384661E0,-4.929000378E0,-7.392000198E0,9.960000515E-1,8.940286783E0
2.732883967E0,-4.870050430E0,-7.573950291E0,1.045950055E0,9.065104838E0
2.735383118E0,-4.813950062E0,-7.794000149E0,1.108050108E0,9.227585196E0
2.737882423E0,-4.776000023E0,-7.990950584E0,1.207050085E0,9.387355185E0
2.740381808E0,-4.822050095E0,-8.233050346E0,1.468050122E0,9.653520409E0
2.742880964E0,-4.768950462E0,-8.470050812E0,1.546950102E0,9.842647199E0
2.745380255E0,-4.813950062E0,-8.737950325E0,1.551000118E0,1.009611274E1
2.747879411E0,-4.876950264E0,-9.031949997E0,1.578000069E0,1.038512633E1
2.750378717E0,-4.992000103E0,-9.319950104E0,1.566000104E0,1.068802560E1
2.752877873E0,-5.065950394E0,-9.609000206E0,1.462950110E0,1.096070077E1
2.755377179E0,-5.097000122E0,-9.817950249E0,1.189950109E0,1.112598484E1
2.757876363E0,-5.265000343E0,-1.009095001E1,8.359500170E-1,1.141255069E1
2.760375669E0,-5.466000080E0,-1.036095047E1,6.100500226E-1,1.173024350E1
2.762874825E0,-5.590050220E0,-1.062195015E1,5.269500017E-1,1.201466449E1
2.765373902E0,-5.578050137E0,-1.084905052E1,4.410000145E-1,1.220700707E1
2.767873280E0,-5.542050362E0,-1.109805012E1,4.410000145E-1,1.241271605E1
2.770372587E0,-5.446950436E0,-1.133805084E1,4.120500088E-1,1.258532682E1
2.772871743E0,-5.245050430E0,-1.154895020E1,3.850500286E-1,1.269003815E1
2.775371049E0,-5.037000179E0,-1.178805065E1,4.260000288E-1,1.282618357E1
2.777870181E0,-4.800000191E0,-1.195800018E1,5.340000391E-1,1.289646953E1
2.780369486E0,-4.573050022E0,-1.211805058E1,6.460500360E-1,1.296831974E1
2.782868642E0,-4.410000324E0,-1.228800011E1,8.520000577E-1,1.308315534E1
2.785367948E0,-4.273050308E0,-1.244895077E1,1.081950068E0,1.320628449E1
2.787867104E0,-4.228050232E0,-1.258500099E1,1.384050012E0,1.334819288E1
2.790366423E0,-4.186950207E0,-1.274295044E1,1.675950050E0,1.351747560E1
2.792865579E0,-4.161000252E0,-1.288500023E1,2.023050070E0,1.369050348E1
2.795364885E0,-4.135050297E0,-1.301400089E1,2.458950043E0,1.387477191E1
2.797864041E0,-4.105950356E0,-1.306905079E1,2.916000128E0,1.400578358E1
2.800363347E0,-4.000050068E0,-1.315005016E1,3.282000065E0,1.413137446E1
2.802862502E0,-3.760950089E0,-1.320795059E1,3.553050280E0,1.418516375E1
2.805361808E0,-3.510000229E0,-1.321005058E1,3.808950186E0,1.418920856E1
2.807860964E0,-3.249000072E0,-1.319295025E1,4.089000225E0,1.418907540E1
2.810360270E0,-2.949000120E0,-1.317405033E1,4.300050259E0,1.416836745E1
2.812859425E0,-2.617050171E0,-1.315695095E1,4.471950054E0,1.414046135E1
2.815358755E0,-2.365050077E0,-1.312905025E1,4.645050049E0,1.412593050E1
2.817858140E0,-2.095050097E0,-1.315005016E1,4.788000107E0,1.415054767E1
2.820357296E0,-1.872000098E0,-1.316205025E1,4.812000275E0,1.413857481E1
2.822856601E0,-1.627950072E0,-1.316700077E1,4.903050423E0,1.414425799E1
2.825355680E0,-1.435950041E0,-1.322700024E1,5.085000038E0,1.424333926E1
2.827854820E0,-1.326000094E0,-1.328400040E1,5.209950447E0,1.433061501E1
2.830354126E0,-1.266000032E0,-1.338300037E1,5.238000393E0,1.442720012E1
2.832853282E0,-1.330950022E0,-1.343505096E1,5.215050220E0,1.447303600E1
2.835352664E0,-1.381050110E0,-1.348605061E1,5.209950447E0,1.452323807E1
2.837851727E0,-1.450950027E0,-1.349700069E1,5.233950138E0,1.454883218E1
2.840351033E0,-1.513050079E0,-1.349700069E1,5.245950222E0,1.455947602E1
2.842850418E0,-1.635000110E0,-1.349505043E1,5.262000084E0,1.457663392E1
2.845349573E0,-1.744950056E0,-1.346895027E1,5.265000343E0,1.456632077E1
2.847848879E0,-1.888950109E0,-1.346400070E1,5.212050438E0,1.456066335E1
2.850348021E0,-1.992000103E0,-1.340400028E1,5.136000156E0,1.449185239E1
2.852847327E0,-2.134950161E0,-1.333905029E1,5.041950226E0,1.441906852E1
2.855346482E0,-2.241000175E0,-1.327995110E1,4.851000309E0,1.431472622E1
2.857845788E0,-2.431950092E0,-1.316700077E1,4.639950275E0,1.417086550E1
2.860344944E0,-2.623950243E0,-1.306905079E1,4.411950111E0,1.404102942E1
2.862844250E0,-2.845950127E0,-1.293705082E1,4.219050407E0,1.390205389E1
2.865343406E0,-3.019050121E0,-1.281000042E1,4.048950195E0,1.376970487E1
2.867842711E0,-3.136050224E0,-1.269105053E1,3.891000271E0,1.363955489E1
2.870341852E0,-3.214950085E0,-1.251795101E1,3.718050241E0,1.344837905E1
2.872841158E0,-3.310950041E0,-1.232700062E1,3.511950254E0,1.323824494E1
2.875340314E0,-3.328050137E0,-1.209195042E1,3.322950125E0,1.297432773E1
2.877839619E0,-3.400050163E0,-1.189605045E1,3.117000103E0,1.275899867E1
2.880338775E0,-3.457050085E0,-1.168500042E1,2.892000198E0,1.252414050E1
2.882838101E0,-3.526050091E0,-1.144095039E1,2.658000231E0,1.226349625E1
2.885337257E0,-3.622050285E0,-1.118895054E1,2.506950140E0,1.202483519E1
2.887836562E0,-3.634050131E0,-1.095195007E1,2.185950041E0,1.174435645E1
2.890335718E0,-3.675000191E0,-1.067505074E1,1.933950067E0,1.145436587E1
2.892835019E0,-3.711000204E0,-1.039695072E1,1.666050076E0,1.116440010E1
2.895334175E0,-3.814050198E0,-1.013400078E1,1.402950048E0,1.091848064E1
2.897833481E0,-3.862050295E0,-9.841950417E0,1.175999999E0,1.063778156E1
2.900332636E0,-3.877950191E0,-9.592950821E0,9.430500269E-1,1.039002149E1
2.902831942E0,-3.883050203E0,-9.310050011E0,8.020500541E-1,1.011920918E1
2.905331093E0,-3.883050203E0,-9.042000771E0,6.150000095E-1,9.859720170E0
2.907830399E0,-3.916950226E0,-8.794950485E0,5.239500403E-1,9.642000661E0
2.910329555E0,-3.955050230E0,-8.536950111E0,3.660000265E-1,9.415725970E0
2.912828860E0,-3.925950289E0,-8.315999985E0,2.230500132E-1,9.198841923E0
2.915328264E0,-3.967050076E0,-8.101050377E0,1.650000066E-1,9.021736447E0
2.917827420E0,-3.981000185E0,-7.900050163E0,1.270500124E-1,8.847332748E0
2.920326725E0,-4.012050152E0,-7.660050392E0,7.395000011E-2,8.647449742E0
2.922825881E0,-4.096050262E0,-7.432950497E0,1.200000010E-2,8.486844221E0
2.925324958E0,-4.113000393E0,-7.177050114E0,-3.705000132E-2,8.272133538E0
2.927824355E0,-4.041000366E0,-6.949050426E0,-6.105000153E-2,8.038825343E0
2.930323663E0,-3.928950071E0,-6.661950111E0,6.900000572E-2,7.734532239E0
2.932822818E0,-3.715950251E0,-6.280950069E0,3.349500299E-1,7.305532942E0
2.935322124E0,-3.400050163E0,-5.740050316E0,6.870000362E-1,6.706749421E0
2.937821266E0,-3.121950150E0,-5.260950089E0,8.359500170E-1,6.174381022E0
2.940320343E0,-3.013950109E0,-4.948050022E0,7.090500593E-1,5.836938090E0
2.942819725E0,-2.818050146E0,-4.732050419E0,6.700500250E-1,5.548213661E0
2.945319033E0,-2.632950068E0,-4.555050373E0,6.660000086E-1,5.303250510E0
2.947818189E0,-2.563950062E0,-4.455000401E0,5.599500537E-1,5.170533101E0
2.950317471E0,-2.530050039E0,-4.335000038E0,4.549500346E-1,5.039876791E0
2.952816627E0,-2.518050194E0,-4.275000095E0,4.549500346E-1,4.982286837E0
2.955315932E0,-2.538000107E0,-4.252950191E0,4.429500103E-1,4.972447545E0
2.957815088E0,-2.617050171E0,-4.255949974E0,3.589500189E-1,5.009082440E0
2.960314394E0,-2.727000237E0,-4.270050049E0,3.210000098E-1,5.076701559E0
2.962813550E0,-2.920950174E0,-4.297049999E0,2.749500275E-1,5.203093900E0
2.965312855E0,-3.115050077E0,-4.372950077E0,2.250000089E-1,5.373718858E0
2.967812011E0,-3.265050173E0,-4.431000233E0,1.270500124E-1,5.505493384E0
2.970311317E0,-3.364050150E0,-4.513950348E0,4.305000231E-2,5.629781031E0
2.972810473E0,-3.510000229E0,-4.572000027E0,-5.205000192E-2,5.764199429E0
2.975309778E0,-3.627000093E0,-4.689000130E0,-1.309500039E-1,5.929502492E0
2.977808934E0,-3.724950075E0,-4.789950371E0,-2.029500157E-1,6.071249157E0
2.980308240E0,-3.871050119E0,-4.917000294E0,-2.770500183E-1,6.264078354E0
2.982807396E0,-3.981000185E0,-5.032050133E0,-3.799500167E-1,6.427616434E0
2.985306716E0,-4.161000252E0,-5.179950237E0,-4.710000157E-1,6.660904486E0
2.987805871E0,-4.278000355E0,-5.347950459E0,-5.640000105E-1,6.871677899E0
2.990305254E0,-4.390950203E0,-5.527050495E0,-6.739500165E-1,7.091046431E0
2.992804333E0,-4.438950062E0,-5.733000278E0,-7.630500197E-1,7.290666305E0
2.995303716E0,-4.530000210E0,-5.989050388E0,-8.419500589E-1,7.556355362E0
2.997802771E0,-4.675950050E0,-6.271950245E0,-8.490000367E-1,7.869095870E0
3.000302076E0,-4.813950062E0,-6.595050335E0,-8.080500364E-1,8.204983180E0
3.002801232E0,-4.972050190E0,-6.934950352E0,-7.390500307E-1,8.565104461E0
3.005300538E0,-5.056050301E0,-7.263000488E0,-6.049500108E-1,8.870219008E0
3.007799694E0,-5.119050026E0,-7.584000587E0,-4.420500100E-1,9.160630234E0
3.010298999E0,-5.301000118E0,-7.969050407E0,-2.260500044E-1,9.573790537E0
3.012798155E0,-5.422950268E0,-8.352000237E0,1.695000008E-2,9.958141637E0
3.015297538E0,-5.538000107E0,-8.743050575E0,2.970000207E-1,1.035367507E1
3.017796847E0,-5.644950390E0,-9.118050575E0,6.030000448E-1,1.074094597E1
3.020296026E0,-5.707950115E0,-9.525000572E0,8.760000467E-1,1.113883775E1
3.022795332E0,-5.782050133E0,-9.937050819E0,1.116000056E0,1.155086745E1
3.025294488E0,-5.812950134E0,-1.039500046E1,1.345950007E0,1.198574175E1
3.027793794E0,-5.791050434E0,-1.085205078E1,1.575000048E0,1.240096353E1
3.030292949E0,-5.734050274E0,-1.126095009E1,1.639950037E0,1.274275345E1
3.032792265E0,-5.691000462E0,-1.173105049E1,1.633050084E0,1.314046744E1
3.035291421E0,-5.596950054E0,-1.212600040E1,1.618050098E0,1.345302278E1
3.037790727E0,-5.490000248E0,-1.246995068E1,1.590000033E0,1.371742952E1
3.040289806E0,-5.332050323E0,-1.279605103E1,1.558950067E0,1.394991067E1
3.042789188E0,-5.140050411E0,-1.308105087E1,1.542000055E0,1.413901603E1
3.045288339E0,-4.933950424E0,-1.328205109E1,1.482000113E0,1.424615991E1
3.047787645E0,-4.600950241E0,-1.348995018E1,1.456050038E0,1.432716234E1
3.050286801E0,-4.194000244E0,-1.359795094E1,1.357050061E0,1.429459662E1
3.052786106E0,-3.768000126E0,-1.369395065E1,1.243050098E0,1.425718356E1
3.055285262E0,-3.378000259E0,-1.373700047E1,1.140000105E0,1.419209878E1
3.057784573E0,-2.940000057E0,-1.376100063E1,1.065000057E0,1.411180229E1
3.060283729E0,-2.494050026E0,-1.374405098E1,1.009950042E0,1.400497133E1
3.062783034E0,-2.104050159E0,-1.367505074E1,1.003050089E0,1.387227988E1
3.065282190E0,-1.726050138E0,-1.355700111E1,1.055999994E0,1.370717565E1
3.067781491E0,-1.350000024E0,-1.339500046E1,1.125000000E0,1.350978025E1
3.070280647E0,-1.033950090E0,-1.319805050E1,1.258950114E0,1.329821586E1
3.072779953E0,-7.420500517E-1,-1.297605038E1,1.369050026E0,1.306915528E1
3.075279108E0,-4.789500237E-1,-1.271505070E1,1.480050087E0,1.280985775E1
3.077778428E0,-2.370000184E-1,-1.246995068E1,1.554000020E0,1.256864173E1
3.080277584E0,1.950000064E-3,-1.218795013E1,1.611000061E0,1.229396004E1
3.082776890E0,2.479500175E-1,-1.189095020E1,1.639950037E0,1.200606564E1
3.085276045E0,4.710000157E-1,-1.161300087E1,1.681050062E0,1.174349009E1
3.087775351E0,6.360000372E-1,-1.133595085E1,1.695000052E0,1.147960378E1
3.090274746E0,7.579500079E-1,-1.107195091E1,1.681050062E0,1.122446055E1
3.092773825E0,8.040000200E-1,-1.080195045E1,1.663950086E0,1.095889043E1
3.095272979E0,8.730000257E-1,-1.055505085E1,1.603950024E0,1.071185713E1
3.097772284E0,9.019500613E-1,-1.031100082E1,1.543950081E0,1.046489531E1
3.100271440E0,9.160500169E-1,-1.009500027E1,1.519950032E0,1.024980127E1
3.102770722E0,9.469500184E-1,-9.910950661E0,1.507950068E0,1.006963608E1
3.105269878E0,9.520500302E-1,-9.724050522E0,1.522950053E0,9.888525405E0
3.107769183E0,1.018950105E0,-9.568950653E0,1.537050128E0,9.745029452E0
3.110268339E0,1.053000093E0,-9.407999992E0,1.549050093E0,9.592644538E0
3.112767630E0,1.062000036E0,-9.288000107E0,1.597050071E0,9.483952709E0
3.115267015E0,1.066950083E0,-9.157050133E0,1.609050035E0,9.358364795E0
3.117766170E0,1.062000036E0,-9.043950081E0,1.582950115E0,9.242651579E0
3.120265476E0,1.004999995E0,-8.989050865E0,1.585050106E0,9.182888668E0
3.122764632E0,9.330000281E-1,-8.925000191E0,1.525050044E0,9.102301637E0
3.125263939E0,8.640000224E-1,-8.872050285E0,1.471950054E0,9.034733492E0
3.127763095E0,8.059500456E-1,-8.836050034E0,1.393050075E0,8.981421056E0
3.130262400E0,7.030500174E-1,-8.836050034E0,1.305000067E0,8.959524803E0
3.132761556E0,6.030000448E-1,-8.838000298E0,1.225950003E0,8.942975552E0
3.135260862E0,5.089499950E-1,-8.848050117E0,1.156050086E0,8.937755467E0
3.137760032E0,4.110000134E-1,-8.874000549E0,1.111050010E0,8.952722429E0
3.140259109E0,2.890500128E-1,-8.878950119E0,1.068000078E0,8.947621432E0
3.142758491E0,1.759500057E-1,-8.905050278E0,1.036949992E0,8.966947314E0
3.145257799E0,4.005000368E-2,-8.965050697E0,1.021950006E0,9.023198980E0
3.147756955E0,-7.905000448E-2,-9.019950867E0,1.006049991E0,9.076227142E0
3.150256289E0,-2.299500108E-1,-9.065999985E0,9.700500369E-1,9.120648541E0
3.152755445E0,-3.780000210E-1,-9.094950676E0,9.649500251E-1,9.153804693E0
3.155254751E0,-5.430000424E-1,-9.138000488E0,9.390000701E-1,9.202153177E0
3.157753907E0,-6.730500460E-1,-9.138000488E0,9.430500269E-1,9.211155880E0
3.160253189E0,-7.750500441E-1,-9.138000488E0,9.289500713E-1,9.217738537E0
3.162752344E0,-8.590500355E-1,-9.097050667E0,9.150000215E-1,9.183219634E0
3.165251650E0,-8.500500321E-1,-9.037050247E0,9.289500713E-1,9.124352605E0
3.167750806E0,-8.140500188E-1,-8.962950706E0,1.000950098E0,9.055333450E0
3.170250112E0,-7.900500298E-1,-8.865000725E0,1.105949998E0,8.968586416E0
3.172749257E0,-7.710000277E-1,-8.773950577E0,1.249950051E0,8.896011741E0
3.175248563E0,-7.710000277E-1,-8.659049988E0,1.453050017E0,8.813906176E0
3.177747719E0,-7.350000143E-1,-8.565000534E0,1.663950086E0,8.756037292E0
3.180247025E0,-6.750000119E-1,-8.479050636E0,1.884000063E0,8.712025077E0
3.182746181E0,-6.580500603E-1,-8.410050392E0,2.059050083E0,8.683413196E0
3.185245495E0,-6.390000582E-1,-8.314050674E0,2.230950117E0,8.631853689E0
3.187744651E0,-6.250500083E-1,-8.260950089E0,2.410950184E0,8.628248065E0
3.190243957E0,-6.409500241E-1,-8.230050087E0,2.569050074E0,8.645493604E0
3.192743341E0,-6.750000119E-1,-8.191950798E0,2.749050140E0,8.667234828E0
3.195242420E0,-7.369500399E-1,-8.134050369E0,2.964000225E0,8.688565365E0
3.197741803E0,-8.470500112E-1,-8.113050461E0,3.145950079E0,8.742773210E0
3.200240882E0,-9.220500588E-1,-8.113050461E0,3.325950146E0,8.816672188E0
3.202740036E0,-1.033950090E0,-8.113050461E0,3.498000145E0,8.895315935E0
3.205239341E0,-1.180050015E0,-8.098950386E0,3.654000282E0,8.963104008E0
3.207738493E0,-1.329000115E0,-8.105999947E0,3.828000069E0,9.062398191E0
3.210237799E0,-1.530000091E0,-8.103000641E0,3.994050264E0,9.162530064E0
3.212736955E0,-1.744950056E0,-8.083950043E0,4.111050129E0,9.235574273E0
3.215236261E0,-1.975050092E0,-8.103000641E0,4.258950233E0,9.364726336E0
3.217735640E0,-2.209950209E0,-8.098950386E0,4.360050201E0,9.459752377E0
3.220234796E0,-2.439000130E0,-8.122050285E0,4.429050446E0,9.567283330E0
3.222734102E0,-2.674050093E0,-8.122050285E0,4.522950172E0,9.673433878E0
3.225233258E0,-2.904000044E0,-8.158050537E0,4.543950081E0,9.779288684E0
3.227732563E0,-3.117000103E0,-8.197050095E0,4.563000202E0,9.885762021E0
3.230231738E0,-3.330000162E0,-8.218050003E0,4.555950165E0,9.969048542E0
3.232731044E0,-3.478950262E0,-8.247000694E0,4.506000042E0,1.002098557E1
3.235230200E0,-3.655950069E0,-8.272950172E0,4.444050312E0,1.007756214E1
3.237729277E0,-3.811050177E0,-8.292000771E0,4.321950436E0,1.009755593E1
3.240228649E0,-3.933000088E0,-8.260950089E0,4.174950123E0,1.005693763E1
3.242727957E0,-4.041000366E0,-8.230050087E0,4.017000198E0,1.000997997E1
3.245227113E0,-4.153950214E0,-8.175000191E0,3.844950199E0,9.943317984E0
3.247726418E0,-4.204050064E0,-8.125050545E0,3.682050228E0,9.861438900E0
3.250225565E0,-4.256999969E0,-8.070000648E0,3.519000053E0,9.779075651E0
3.252724871E0,-4.278000355E0,-7.972050190E0,3.349050045E0,9.647331624E0
3.255224027E0,-4.273050308E0,-7.890000343E0,3.169950247E0,9.516283357E0
3.257723333E0,-4.228050232E0,-7.789950371E0,2.989950180E0,9.354118752E0
3.260222478E0,-4.170000076E0,-7.699050426E0,2.824950218E0,9.200251184E0
3.262721784E0,-4.084050179E0,-7.585950375E0,2.662050009E0,9.017351008E0
3.265220940E0,-3.985950232E0,-7.489950180E0,2.509050131E0,8.847739005E0
3.267720246E0,-3.874050140E0,-7.419000149E0,2.356050014E0,8.694872016E0
3.270219402E0,-3.747000217E0,-7.330050468E0,2.215050220E0,8.525027741E0
3.272718693E0,-3.655950069E0,-7.282050133E0,2.111999989E0,8.417527487E0
3.275217849E0,-3.535950184E0,-7.227000237E0,1.999050140E0,8.290276086E0
3.277717155E0,-3.426000118E0,-7.186050415E0,1.903050065E0,8.185254848E0
3.280216311E0,-3.319950104E0,-7.177050114E0,1.852950096E0,8.121917328E0
3.282715616E0,-3.232050180E0,-7.240950108E0,1.819950104E0,8.135706805E0
3.285214786E0,-3.186000109E0,-7.324950218E0,1.800000072E0,8.188131206E0
3.287714092E0,-3.157950163E0,-7.432950497E0,1.804950118E0,8.275218864E0
3.290213477E0,-3.157950163E0,-7.536000252E0,1.816950083E0,8.370499186E0
3.292712632E0,-3.162000179E0,-7.663050175E0,1.843950033E0,8.492392763E0
3.295211709E0,-3.129000187E0,-7.747050285E0,1.906050086E0,8.569740791E0
3.297711097E0,-3.088050127E0,-7.810950279E0,1.969950080E0,8.627149075E0
3.300210176E0,-3.040050030E0,-7.852050304E0,2.029950142E0,8.661252551E0
3.302709482E0,-2.959050179E0,-7.857000351E0,2.100000143E0,8.654388082E0
3.305208637E0,-2.866050243E0,-7.857000351E0,2.185950041E0,8.644366726E0
3.307707948E0,-2.776950121E0,-7.869000435E0,2.253000021E0,8.643415350E0
3.310207104E0,-2.668950081E0,-7.852050304E0,2.325000048E0,8.612990987E0
3.312706487E0,-2.518050194E0,-7.837950230E0,2.382000208E0,8.570178853E0
3.315205566E0,-2.410950184E0,-7.825950146E0,2.442000151E0,8.545264256E0
3.317704948E0,-2.320050001E0,-7.809000492E0,2.527950048E0,8.529575144E0
3.320204270E0,-2.230950117E0,-7.798950195E0,2.590950012E0,8.515502601E0
3.322703426E0,-2.260050058E0,-7.723050594E0,2.482950211E0,8.421305035E0
3.325202731E0,-2.166000128E0,-7.713000298E0,2.443950176E0,8.375847575E0
3.327701887E0,-2.076000214E0,-7.725000381E0,2.607000113E0,8.413195431E0
3.330201179E0,-1.996950150E0,-7.735050201E0,2.848950148E0,8.481469711E0
3.332700335E0,-1.929000139E0,-7.726950169E0,3.055050135E0,8.529954969E0
3.335199640E0,-1.846050143E0,-7.692000389E0,3.093000174E0,8.493610610E0
3.337698796E0,-1.780950069E0,-7.644000530E0,3.151050091E0,8.457638201E0
3.340198102E0,-1.690050125E0,-7.564950466E0,3.201000214E0,8.386366755E0
3.342697277E0,-1.587000132E0,-7.537950516E0,3.217950106E0,8.348321405E0
3.345196583E0,-1.465050101E0,-7.492950439E0,3.253950119E0,8.299329459E0
3.347695738E0,-1.314000010E0,-7.450050354E0,3.306000233E0,8.255875716E0
3.350195044E0,-1.147050023E0,-7.431000233E0,3.370950222E0,8.240072428E0
3.352694200E0,-9.930000305E-1,-7.414050579E0,3.406950235E0,8.219580583E0
3.355193511E0,-7.750500441E-1,-7.419000149E0,3.438000202E0,8.213532198E0
3.357692667E0,-5.700000525E-1,-7.456950188E0,3.484050274E0,8.250431048E0
3.360191972E0,-3.330000043E-1,-7.504950523E0,3.510000229E0,8.291879942E0
3.362691128E0,-1.069500074E-1,-7.564950466E0,3.559950113E0,8.361408893E0
3.365190424E0,1.549500078E-1,-7.632000446E0,3.595950127E0,8.438145390E0
3.367689580E0,4.369500279E-1,-7.725000381E0,3.651000261E0,8.555487077E0
3.370188885E0,7.219500542E-1,-7.804050446E0,3.735000134E0,8.681857015E0
3.372688041E0,1.029000044E0,-7.864050388E0,3.820950270E0,8.803510127E0
3.375187347E0,1.369050026E0,-7.950000286E0,3.912000179E0,8.965519947E0
3.377686513E0,1.720950127E0,-8.047950745E0,4.017000198E0,9.157918493E0
3.380185818E0,2.089050055E0,-8.158050537E0,4.077000141E0,9.356273235E0
3.382684974E0,2.451000214E0,-8.230050087E0,4.189949989E0,9.554936284E0
3.385184280E0,2.875050068E0,-8.311950684E0,4.285950184E0,9.783854355E0
3.387683436E0,3.265050173E0,-8.379000664E0,4.438950062E0,1.002858327E1
3.390182731E0,3.612000227E0,-8.431050301E0,4.602000237E0,1.026194723E1
3.392682115E0,3.945000172E0,-8.473950386E0,4.828950405E0,1.052091363E1
3.395181271E0,4.219950199E0,-8.482049942E0,5.205000401E0,1.080949490E1
3.397680577E0,4.444950104E0,-8.509950638E0,5.583000183E0,1.110615741E1
3.400179738E0,4.584000111E0,-8.647050858E0,5.385000229E0,1.117062098E1
3.402678814E0,4.644000053E0,-8.806950569E0,5.056950092E0,1.116699866E1
3.405178197E0,4.680000305E0,-8.914950371E0,5.059050083E0,1.126821773E1
3.407677505E0,4.669950008E0,-8.994000435E0,5.289000034E0,1.143127282E1
3.410176661E0,4.723050117E0,-9.070950508E0,5.638050079E0,1.167805439E1
3.412675932E0,4.788000107E0,-9.138000488E0,6.052950382E0,1.196102865E1
3.415175088E0,4.783050060E0,-9.229050636E0,6.415950298E0,1.221545586E1
3.417674394E0,4.668000221E0,-9.336000443E0,6.687000275E0,1.239625359E1
3.420173550E0,4.495950222E0,-9.436950684E0,6.916950226E0,1.253450466E1
3.422672855E0,4.291950226E0,-9.559050560E0,7.168050289E0,1.269555943E1
3.425172011E0,4.029000282E0,-9.688050270E0,7.435950279E0,1.286019121E1
3.427671317E0,3.640950203E0,-9.838950157E0,7.693050385E0,1.300939979E1
3.430170473E0,3.163950205E0,-1.000695038E1,7.945950508E0,1.316388112E1
3.432669779E0,2.626050234E0,-1.017705059E1,8.146950722E0,1.329816922E1
3.435168934E0,2.104050159E0,-1.034205055E1,8.356050491E0,1.346137499E1
3.437668240E0,1.599000096E0,-1.050495052E1,8.554050446E0,1.364120837E1
3.440167396E0,1.141050100E0,-1.062705040E1,8.679000854E0,1.376812447E1
3.442666702E0,6.910500526E-1,-1.078005028E1,8.727000237E0,1.388695673E1
3.445165858E0,3.340500295E-1,-1.091700077E1,8.707950592E0,1.396856824E1
3.447665173E0,1.800000109E-2,-1.102695084E1,8.665050507E0,1.402416019E1
3.450164329E0,-3.160500228E-1,-1.112700081E1,8.602050781E0,1.406788229E1
3.452663635E0,-6.079500318E-1,-1.123695087E1,8.466000557E0,1.408232345E1
3.455162791E0,-8.710500598E-1,-1.130895042E1,8.281949997E0,1.404427939E1
3.457662096E0,-1.108050108E0,-1.138305092E1,8.071050644E0,1.399798135E1
3.460161252E0,-1.305000067E0,-1.143795013E1,7.791000366E0,1.390069837E1
3.462660558E0,-1.453050017E0,-1.147905064E1,7.386000156E0,1.372708841E1
3.465159714E0,-1.578000069E0,-1.149795055E1,6.993000507E0,1.354972351E1
3.467659096E0,-1.687950134E0,-1.151505089E1,6.591000080E0,1.337485905E1
3.470158160E0,-1.759050131E0,-1.155795097E1,6.163050175E0,1.321603857E1
3.472657543E0,-1.837950110E0,-1.156500053E1,5.710050106E0,1.302812228E1
3.475156622E0,-1.824000120E0,-1.153695011E1,5.242950439E0,1.280299667E1
3.477655928E0,-1.815000057E0,-1.151700020E1,4.723950386E0,1.257979436E1
3.480155083E0,-1.800000072E0,-1.147395039E1,4.216050148E0,1.235583330E1
3.482654399E0,-1.815000057E0,-1.140300083E1,3.697050095E0,1.212397759E1
3.485153555E0,-1.774050117E0,-1.133805084E1,3.369000196E0,1.196030154E1
3.487652861E0,-1.657050133E0,-1.119195080E1,2.971050024E0,1.169755171E1
3.490152016E0,-1.558050036E0,-1.105095005E1,2.587950230E0,1.145637392E1
3.492651322E0,-1.455000043E0,-1.091895008E1,2.254950047E0,1.124390038E1
3.495150487E0,-1.333050013E0,-1.073505020E1,1.927050114E0,1.098780448E1
3.497649870E0,-1.225950003E0,-1.053795052E1,1.642050028E0,1.073534735E1
3.500149179E0,-1.077000022E0,-1.036095047E1,1.354950070E0,1.050452823E1
3.502648333E0,-9.019500613E-1,-1.016700077E1,1.111050010E0,1.026722215E1
3.505147611E0,-7.630500197E-1,-9.978000641E0,8.910000324E-1,1.004672201E1
3.507646767E0,-6.100500226E-1,-9.805950165E0,6.970500350E-1,9.849603973E0
3.510146072E0,-4.810500145E-1,-9.624000549E0,6.030000448E-1,9.654864305E0
3.512645228E0,-3.709500134E-1,-9.523050308E0,5.200500488E-1,9.544450908E0
3.515144534E0,-2.340000123E-1,-9.448950768E0,5.119500160E-1,9.465702268E0
3.517643613E0,-1.290000081E-1,-9.420000076E0,6.010500193E-1,9.440037265E0
3.520142996E0,-4.800000042E-2,-9.448950768E0,7.330500484E-1,9.477464692E0
3.522642151E0,7.095000148E-2,-9.514050484E0,9.000000358E-1,9.556787670E0
3.525141457E0,2.149500102E-1,-9.661950111E0,1.129950047E0,9.730173203E0
3.527640613E0,3.580500185E-1,-9.850950241E0,1.365000010E0,9.951514734E0
3.530139910E0,5.070000291E-1,-1.008795071E1,1.695000052E0,1.024191504E1
3.532639065E0,6.120000482E-1,-1.031100082E1,2.121000051E0,1.054466326E1
3.535138371E0,7.729500532E-1,-1.066995049E1,2.533050060E0,1.099370901E1
3.537637527E0,8.590500355E-1,-1.102395058E1,2.908950090E0,1.143361027E1
3.540136813E0,9.210000634E-1,-1.142400074E1,3.313950062E0,1.193056156E1
3.542635969E0,9.780000448E-1,-1.187700081E1,3.751950264E0,1.249386902E1
3.545135274E0,9.690000415E-1,-1.240305042E1,4.186950207E0,1.312650650E1
3.547634430E0,9.550500512E-1,-1.297995090E1,4.531949997E0,1.378150271E1
3.550133736E0,9.400500655E-1,-1.355295086E1,4.858050346E0,1.442798753E1
3.552632887E0,8.250000477E-1,-1.418505096E1,5.260050297E0,1.515138360E1
3.555132192E0,7.180500627E-1,-1.483605099E1,5.617050171E0,1.588002700E1
3.557631348E0,5.740500093E-1,-1.545105076E1,5.929950237E0,1.655985546E1
3.560130654E0,4.690500200E-1,-1.615995026E1,6.286950111E0,1.734617370E1
3.562629820E0,2.220000178E-1,-1.682805061E1,6.598050117E0,1.807669319E1
3.565129125E0,-2.100000158E-2,-1.738095093E1,6.984000206E0,1.873163514E1
3.567628281E0,-9.795000404E-2,-1.809195137E1,8.013000488E0,1.978728065E1
3.570127587E0,-1.549500078E-1,-1.881705093E1,9.949950218E0,2.128630839E1
3.572626743E0,-8.805000782E-2,-1.944495010E1,1.180305099E1,2.274699651E1
3.575126049E0,-2.509500086E-1,-1.982100105E1,1.218195057E1,2.326660651E1
3.577625204E0,-5.839500427E-1,-2.015805054E1,1.174095058E1,2.333533629E1
3.580124510E0,-1.117950082E0,-2.022795105E1,1.093200016E1,2.302017471E1
3.582623666E0,-1.740000129E0,-2.013195038E1,9.880950928E0,2.249347056E1
3.585122972E0,-2.467950106E0,-1.985595131E1,8.703000069E0,2.181952773E1
3.587622128E0,-3.262950182E0,-1.948800087E1,7.501050472E0,2.113515507E1
3.590121433E0,-3.996000290E0,-1.903995132E1,6.358950138E0,2.046763327E1
3.592620589E0,-4.453050137E0,-1.848705101E1,5.266950130E0,1.973173774E1
3.595119895E0,-4.774050236E0,-1.784100151E1,4.207050323E0,1.894180992E1
3.597619060E0,-4.948950291E0,-1.714605141E1,3.178950071E0,1.812691125E1
3.600118365E0,-5.023050308E0,-1.635900116E1,2.180999994E0,1.725122356E1
3.602617750E0,-5.023050308E0,-1.555200100E1,1.294950008E0,1.639428757E1
3.605116906E0,-5.017950058E0,-1.474695110E1,4.810500145E-1,1.558472967E1
3.607616212E0,-5.121000290E0,-1.393305111E1,-4.590000212E-1,1.485143893E1
3.610115386E0,-5.406000137E0,-1.317705059E1,-1.528950095E0,1.432470552E1
3.612614692E0,-5.509050369E0,-1.215195084E1,-2.617950201E0,1.359680876E1
3.615113848E0,-5.557050228E0,-1.103400040E1,-4.024050236E0,1.299318869E1
3.617612925E0,-5.559000492E0,-9.814950943E0,-5.077050209E0,1.236980951E1
3.620112231E0,-5.611950397E0,-8.709000587E0,-5.869950294E0,1.190785434E1
3.622611395E0,-5.563950062E0,-7.600950241E0,-6.325050354E0,1.134628780E1
3.625110701E0,-5.419950485E0,-6.576000214E0,-6.310050488E0,1.060360218E1
3.627610086E0,-5.061000347E0,-5.589000225E0,-5.908050060E0,9.578919748E0
3.630109242E0,-4.668000221E0,-4.857000351E0,-5.178000450E0,8.496609155E0
3.632608547E0,-4.225950241E0,-4.255949974E0,-4.420950413E0,7.450944113E0
3.635107698E0,-3.924000263E0,-3.846000195E0,-3.796050072E0,6.678285087E0
3.637607004E0,-3.699000120E0,-3.451050282E0,-3.435000181E0,6.114865181E0
3.640106160E0,-3.511950254E0,-3.073050261E0,-3.126000166E0,5.616877205E0
3.642605465E0,-3.382950068E0,-2.791050196E0,-3.094950199E0,5.367776922E0
3.645104621E0,-3.328050137E0,-2.551050186E0,-3.349050045E0,5.366554851E0
3.647603928E0,-3.246000051E0,-2.400000095E0,-3.595050097E0,5.405636132E0
3.650103084E0,-3.198000193E0,-2.299950123E0,-3.961050272E0,5.586313190E0
3.652602389E0,-3.256050110E0,-2.296950102E0,-4.279950142E0,5.847718812E0
3.655101545E0,-3.402000189E0,-2.395950079E0,-4.492950439E0,6.123788510E0
3.657600860E0,-3.694050074E0,-2.592000008E0,-4.768050194E0,6.564965547E0
3.660100016E0,-3.886050224E0,-2.791050196E0,-4.878000259E0,6.832732548E0
3.662599322E0,-4.033950329E0,-3.031950235E0,-4.785000324E0,6.954258090E0
3.665098477E0,-4.129950047E0,-3.363000154E0,-4.629000187E0,7.056479303E0
3.667597783E0,-4.269000053E0,-3.703050137E0,-4.309050083E0,7.106676747E0
3.670096953E0,-4.414950371E0,-4.093050003E0,-3.909000158E0,7.178100539E0
3.672596259E0,-4.561050415E0,-4.476000309E0,-3.559050083E0,7.314683667E0
3.675095415E0,-4.837950230E0,-4.938000202E0,-3.046950102E0,7.554701407E0
3.677594720E0,-5.217000484E0,-5.308950424E0,-2.833950043E0,7.964503846E0
3.680093852E0,-5.667000294E0,-5.740050316E0,-2.557950020E0,8.462043386E0
3.682593158E0,-6.142950058E0,-6.217050076E0,-2.520000219E0,9.096040246E0
3.685092314E0,-6.529050350E0,-6.609000206E0,-2.436000109E0,9.604242746E0
3.687591619E0,-7.161000252E0,-7.150050163E0,-2.197050095E0,1.035520019E1
3.690090795E0,-7.467000484E0,-7.548000336E0,-1.869000077E0,1.078061068E1
3.692590101E0,-7.719000340E0,-7.894950390E0,-1.701000094E0,1.117168784E1
3.695089257E0,-7.885950565E0,-8.236949921E0,-1.086000085E0,1.145490971E1
3.697588562E0,-8.037000656E0,-8.664000511E0,-6.600000262E-1,1.183612624E1
3.700087708E0,-7.939050198E0,-8.946000099E0,4.305000231E-2,1.196082310E1
3.702587014E0,-8.020050049E0,-9.307950020E0,6.580500603E-1,1.230415240E1
3.705086399E0,-8.154000282E0,-9.595050812E0,1.377000093E0,1.266684057E1
3.707585554E0,-8.224050522E0,-9.763050079E0,1.972950101E0,1.291683730E1
3.710084860E0,-8.350950241E0,-9.910950661E0,2.518950224E0,1.320266727E1
3.712584025E0,-8.650050163E0,-1.010205078E1,2.883000135E0,1.360832420E1
3.715083102E0,-9.004050255E0,-1.027005005E1,3.115050077E0,1.400893950E1
3.717582485E0,-9.567000389E0,-1.059105015E1,3.262950182E0,1.464051514E1
3.720081563E0,-9.829950333E0,-1.062900066E1,3.654000282E0,1.493168767E1
3.722580946E0,-1.020105076E1,-1.079205036E1,4.041000366E0,1.539023949E1
3.725080021E0,-1.052895069E1,-1.090200043E1,4.494000435E0,1.580849316E1
3.727579404E0,-1.076895046E1,-1.093095016E1,4.762050152E0,1.606652069E1
3.730078483E0,-1.090500069E1,-1.079205036E1,5.470950127E0,1.628860603E1
3.732577865E0,-1.136505032E1,-1.103100014E1,5.892000198E0,1.689860938E1
3.735077182E0,-1.169505024E1,-1.130205059E1,6.097950459E0,1.736938535E1
3.737576338E0,-1.192005062E1,-1.144995022E1,6.427950382E0,1.773435967E1
3.740075643E0,-1.163595009E1,-1.108695030E1,7.554000378E0,1.775890546E1
3.742574799E0,-1.130805016E1,-1.055505085E1,9.493050575E0,1.814935553E1
3.745074105E0,-1.128600025E1,-1.025595093E1,1.079505062E1,1.868398911E1
3.747573261E0,-1.123800087E1,-9.961050034E0,1.169805050E1,1.903574445E1
3.750072567E0,-1.093605042E1,-9.616050720E0,1.234695053E1,1.909221877E1
3.752571722E0,-1.049100018E1,-9.312000275E0,1.265595055E1,1.889305476E1
3.755071028E0,-1.006005001E1,-9.094950676E0,1.266300106E1,1.855463095E1
3.757570184E0,-9.643950462E0,-8.890950203E0,1.255305099E1,1.815582180E1
3.760069496E0,-9.169950485E0,-8.680050850E0,1.236405087E1,1.767204087E1
3.762568651E0,-8.587950706E0,-8.527050018E0,1.224405098E1,1.721569818E1
3.765067957E0,-8.077950478E0,-8.484000206E0,1.203105068E1,1.679219235E1
3.767567113E0,-7.594050407E0,-8.467050552E0,1.152600098E1,1.619287637E1
3.770066419E0,-7.096050262E0,-8.455050468E0,1.087005043E1,1.549192706E1
3.772565580E0,-6.607950211E0,-8.460000038E0,1.026405048E1,1.485218297E1
3.775064885E0,-6.069000244E0,-8.500950813E0,9.651000023E0,1.422113674E1
3.777564041E0,-5.422950268E0,-8.506050110E0,9.139050484E0,1.361188899E1
3.780063347E0,-4.644000053E0,-8.414999962E0,8.779950142E0,1.301792938E1
3.782562503E0,-3.808950186E0,-8.271000862E0,8.605050087E0,1.252854516E1
3.785061885E0,-3.004050255E0,-8.138999939E0,8.533050537E0,1.216883681E1
3.787560964E0,-2.176050186E0,-7.914000511E0,8.690999985E0,1.195408212E1
3.790060347E0,-1.477050066E0,-7.777950287E0,8.884950638E0,1.190044266E1
3.792559426E0,-9.100500345E-1,-7.644000530E0,8.956950188E0,1.181041455E1
3.795058731E0,-3.450000286E-1,-7.525950432E0,9.024000168E0,1.175548952E1
3.797557872E0,1.309500039E-1,-7.447050571E0,9.024000168E0,1.170078156E1
3.800057178E0,5.500500202E-1,-7.359000206E0,8.995050430E0,1.163479142E1
3.802556334E0,7.650000453E-1,-7.383000374E0,8.854050636E0,1.155370643E1
3.805055640E0,1.029000044E0,-7.359000206E0,8.695950508E0,1.143823764E1
3.807554795E0,1.186950088E0,-7.452000141E0,8.289000511E0,1.120931247E1
3.810054101E0,1.345050097E0,-7.581000328E0,7.879050255E0,1.101635868E1
3.812553486E0,1.402050018E0,-7.747050285E0,6.832950115E0,1.042457384E1
3.815052642E0,1.435950041E0,-7.945050240E0,4.740000248E0,9.362338286E0
3.817551947E0,1.480950117E0,-8.359950066E0,1.570950031E0,8.634226216E0
3.820051017E0,1.588950038E0,-8.761950493E0,-1.591050029E0,9.045881873E0
3.822550400E0,1.600950122E0,-9.151950836E0,-4.012050152E0,1.012016758E1
3.825049479E0,1.678050041E0,-9.340950012E0,-5.761950493E0,1.110266961E1
3.827548633E0,1.515000105E0,-9.517950058E0,-7.117050171E0,1.198077634E1
3.830047933E0,1.004999995E0,-9.778950691E0,-8.130000114E0,1.275675521E1
3.832547318E0,5.640000105E-1,-9.916050911E0,-9.186000824E0,1.352881269E1
3.835046397E0,5.400000140E-2,-9.885000229E0,-9.801000595E0,1.392033614E1
3.837545780E0,-4.240500331E-1,-9.979950905E0,-1.039695072E1,1.441789939E1
3.840044939E0,-7.950000167E-1,-9.952050209E0,-1.061700058E1,1.457381315E1
3.842544245E0,-9.240000248E-1,-9.778950691E0,-1.036395073E1,1.427911508E1
3.845043401E0,-1.141950011E0,-9.561000824E0,-9.802950859E0,1.374098367E1
3.847542707E0,-1.177950025E0,-9.280950546E0,-8.974950790E0,1.296431066E1
3.850041862E0,-1.288050056E0,-9.061050415E0,-7.909050465E0,1.209606493E1
3.852541164E0,-1.462950110E0,-8.929050446E0,-6.973050117E0,1.142329168E1
3.855040320E0,-1.446000099E0,-8.737950325E0,-5.673000336E0,1.051787169E1
3.857539626E0,-1.453050017E0,-8.503050804E0,-4.531050205E0,9.743902878E0
3.860038782E0,-1.513050079E0,-8.282999992E0,-3.279000044E0,9.035997494E0
3.862538087E0,-1.671000123E0,-8.209050179E0,-2.034000158E0,8.620783195E0
3.865037252E0,-1.828950047E0,-8.221050262E0,-1.090950012E0,8.492402347E0
3.867536558E0,-1.872000098E0,-8.089050293E0,1.560000032E-1,8.304303403E0
3.870035714E0,-1.900950074E0,-8.026950836E0,1.602000117E0,8.403092008E0
3.872535019E0,-1.900950074E0,-8.017050743E0,2.863050222E0,8.722601125E0
3.875034166E0,-1.891050100E0,-7.960050583E0,3.876000166E0,9.053278580E0
3.877533472E0,-1.861950040E0,-7.914000511E0,4.860000134E0,9.471951401E0
3.880032628E0,-1.816950083E0,-7.885050297E0,5.515950203E0,9.792907251E0
3.882531933E0,-1.828950047E0,-7.945050240E0,6.148050308E0,1.021114118E1
3.885031089E0,-1.624950051E0,-7.912050247E0,6.649050236E0,1.046187702E1
3.887530404E0,-1.534050107E0,-7.981050491E0,6.639000416E0,1.049413185E1
3.890029560E0,-1.300050020E0,-8.034000397E0,6.478950500E0,1.040250412E1
3.892528866E0,-1.206000090E0,-8.122050285E0,6.415950298E0,1.042048729E1
3.895028021E0,-1.024049997E0,-8.185050011E0,6.381000519E0,1.042884892E1
3.897527308E0,-9.330000281E-1,-8.233050346E0,6.280050278E0,1.039676096E1
3.900026464E0,-8.880000710E-1,-8.302050591E0,6.009000301E0,1.028691755E1
3.902525770E0,-7.660500407E-1,-8.374050140E0,5.971050262E0,1.031334037E1
3.905024926E0,-8.160000443E-1,-8.460000038E0,6.079050064E0,1.044951226E1
3.907524231E0,-9.070500135E-1,-8.508000374E0,6.318000317E0,1.063606779E1
3.910023416E0,-1.156050086E0,-8.625000000E0,6.487950325E0,1.085451870E1
3.912522722E0,-1.426950097E0,-8.824049950E0,6.330000401E0,1.095303379E1
3.915021878E0,-1.764000058E0,-8.983950615E0,5.776950359E0,1.082572031E1
3.917521260E0,-2.226000071E0,-9.162000656E0,4.932000160E0,1.064058071E1
3.920020584E0,-2.533050060E0,-9.364950180E0,3.876000166E0,1.044710543E1
3.922519738E0,-2.712000132E0,-9.583050728E0,2.868000031E0,1.036413190E1
3.925019043E0,-2.830050230E0,-9.778950691E0,1.870050073E0,1.035056270E1
3.927518199E0,-2.983050108E0,-9.913050652E0,8.740500212E-1,1.038899055E1
3.930017505E0,-3.265050173E0,-9.982950211E0,-1.330500096E-1,1.050416821E1
3.932516656E0,-3.445050240E0,-1.001205063E1,-7.720500231E-1,1.061628891E1
3.935015962E0,-3.616950274E0,-1.002600002E1,-1.102950096E0,1.071538635E1
3.937515117E0,-3.720000267E0,-1.002105045E1,-1.339950085E0,1.077289749E1
3.940014423E0,-3.852000237E0,-9.954000473E0,-1.309050083E0,1.075330848E1
3.942513502E0,-3.969000101E0,-9.873000145E0,-1.155000091E0,1.070341622E1
3.945012649E0,-3.955050230E0,-9.777000427E0,-1.081050038E0,1.060192571E1
3.947512034E0,-3.960000277E0,-9.633000374E0,-9.930000305E-1,1.046242551E1
3.950011341E0,-3.993000269E0,-9.463050842E0,-8.680500388E-1,1.030761336E1
3.952510497E0,-4.102950096E0,-9.291000366E0,-5.899500251E-1,1.017373719E1
3.955009808E0,-4.173000336E0,-9.102000237E0,-2.860500216E-1,1.001709363E1
3.957508964E0,-4.225950241E0,-8.850000381E0,1.960500032E-1,9.809158873E0
3.960008269E0,-4.209000111E0,-8.605950356E0,9.340500236E-1,9.625513643E0
3.962507425E0,-4.144050121E0,-8.368950844E0,1.855050087E0,9.521223685E0
3.965006731E0,-4.005000114E0,-8.110950470E0,2.764950037E0,9.458990017E0
3.967505887E0,-3.790050268E0,-7.870950222E0,3.642000198E0,9.464697770E0
3.970005192E0,-3.541050196E0,-7.608000278E0,4.389000416E0,9.470165224E0
3.972504348E0,-3.328050137E0,-7.399050236E0,5.004000187E0,9.532149809E0
3.975003654E0,-3.118950129E0,-7.255950451E0,5.406000137E0,9.570867481E0
3.977502810E0,-2.929950237E0,-7.147950172E0,5.595000267E0,9.538439498E0
3.980002101E0,-2.800950050E0,-7.095000267E0,5.611950397E0,9.469864690E0
3.982501256E0,-2.752950191E0,-7.086000443E0,5.428050041E0,9.340977694E0
3.985000562E0,-2.764950037E0,-7.134000301E0,5.092050076E0,9.190641054E0
3.987499718E0,-2.830050230E0,-7.186050415E0,4.762050152E0,9.073347041E0
3.989999024E0,-2.980950117E0,-7.234050274E0,4.398000240E0,8.975519655E0
3.992498190E0,-3.141000032E0,-7.299000263E0,4.149000168E0,8.964122290E0
3.994997495E0,-3.322950125E0,-7.348950386E0,3.985950232E0,8.996492014E0
3.997496651E0,-3.478950262E0,-7.384950161E0,3.900000095E0,9.047131288E0
3.999995957E0,-3.619950056E0,-7.390050411E0,3.862050295E0,9.090231899E0
4.002495113E0,-3.660000086E0,-7.378050327E0,3.895050287E0,9.110578686E0
4.004994403E0,-3.679950237E0,-7.344000340E0,3.948000193E0,9.113894900E0
4.007493559E0,-3.631950140E0,-7.294050217E0,4.041000366E0,9.095268789E0
4.009992865E0,-3.574050188E0,-7.255950451E0,4.116000175E0,9.075467434E0
4.012492021E0,-3.519000053E0,-7.213050365E0,4.210950375E0,9.063308447E0
4.014991321E0,-3.426000118E0,-7.155000210E0,4.281000137E0,9.014347840E0
4.017490477E0,-3.376050234E0,-7.111950397E0,4.333050251E0,8.986260519E0
4.019989783E0,-3.340050220E0,-7.062000275E0,4.381050110E0,8.956639069E0
4.022489168E0,-3.319950104E0,-7.030950546E0,4.414950371E0,8.941371318E0
4.024988323E0,-3.330000162E0,-6.990000248E0,4.429050446E0,8.919949125E0
4.027487634E0,-3.334950209E0,-6.973050117E0,4.446000099E0,8.916963481E0
4.029986790E0,-3.361050129E0,-6.925050259E0,4.422000408E0,8.877334435E0
4.032486096E0,-3.406950235E0,-6.933000565E0,4.420050144E0,8.900036517E0
4.034985252E0,-3.466950178E0,-6.933000565E0,4.378950119E0,8.902889672E0
4.037484548E0,-3.517050266E0,-6.928050518E0,4.336050034E0,8.897688264E0
4.039983704E0,-3.562050104E0,-6.922950268E0,4.254000187E0,8.871976045E0
4.042482781E0,-3.591000080E0,-6.933000565E0,4.173000336E0,8.853005716E0
4.044982164E0,-3.651000261E0,-6.918000221E0,4.101000309E0,8.832142068E0
4.047481243E0,-3.687000275E0,-6.930000305E0,4.009950161E0,8.814679549E0
4.049980620E0,-3.700950146E0,-6.921000481E0,3.940950155E0,8.782275773E0
4.052479928E0,-3.711000204E0,-6.904050350E0,3.883050203E0,8.747314596E0
4.054979084E0,-3.711000204E0,-6.894000530E0,3.840000153E0,8.720342138E0
4.057478389E0,-3.706050158E0,-6.868050098E0,3.796950102E0,8.678810402E0
4.059977545E0,-3.651000261E0,-6.832050323E0,3.736950159E0,8.600669219E0
4.062476856E0,-3.615000248E0,-6.787050247E0,3.747000217E0,8.554080224E0
4.064976012E0,-3.523950100E0,-6.751050472E0,3.748950243E0,8.488199733E0
4.067475318E0,-3.426000118E0,-6.721950531E0,3.706050158E0,8.405766088E0
4.069974473E0,-3.309000254E0,-6.717000484E0,3.618000269E0,8.316099094E0
4.072473793E0,-3.160050154E0,-6.696000099E0,3.526950121E0,8.201323763E0
4.074972949E0,-3.024000168E0,-6.718950272E0,3.418950081E0,8.122689790E0
4.077472255E0,-2.904000044E0,-6.745950222E0,3.309000254E0,8.055466674E0
4.079971410E0,-2.736000061E0,-6.796050549E0,3.109950066E0,7.958881128E0
4.082470716E0,-2.562000036E0,-6.886950493E0,2.880000114E0,7.892295733E0
4.084969872E0,-2.503950119E0,-7.000050545E0,2.658000231E0,7.895279543E0
4.087469178E0,-2.418000221E0,-7.138050556E0,2.401050091E0,7.909711269E0
4.089968334E0,-2.371950150E0,-7.306050301E0,2.136000156E0,7.972892522E0
4.092467639E0,-2.386950016E0,-7.507050514E0,1.942050099E0,8.113254365E0
4.094966790E0,-2.415000200E0,-7.701000214E0,1.783950090E0,8.265597872E0
4.097466096E0,-2.509050131E0,-7.890000343E0,1.638000131E0,8.439815306E0
4.099965252E0,-2.562000036E0,-8.083950043E0,1.507950068E0,8.613245955E0
4.102464557E0,-2.614050150E0,-8.260950089E0,1.345950007E0,8.768588026E0
4.104963703E0,-2.719950199E0,-8.447999954E0,1.231050014E0,8.960039980E0
4.107463009E0,-2.818050146E0,-8.604000092E0,1.129950047E0,9.123980015E0
4.109962165E0,-2.860950232E0,-8.794950485E0,1.020000100E0,9.304654237E0
4.112461470E0,-3.009000063E0,-8.947950363E0,1.006049991E0,9.493789215E0
4.114960622E0,-3.081000090E0,-9.087000847E0,1.006049991E0,9.647708667E0
4.117459928E0,-3.153000116E0,-9.187950134E0,1.081950068E0,9.773968148E0
4.119959084E0,-3.246000051E0,-9.316950798E0,1.231050014E0,9.942714551E0
4.122458390E0,-3.292050123E0,-9.384000778E0,1.357050061E0,1.003686452E1
4.124957545E0,-3.340050220E0,-9.436950684E0,1.558950067E0,1.013125357E1
4.127456841E0,-3.306000233E0,-9.469950676E0,1.804950118E0,1.019153807E1
4.129955997E0,-3.297000170E0,-9.460950851E0,2.194950104E0,1.025658847E1
4.132455380E0,-3.109950066E0,-9.427050591E0,2.533050060E0,1.024487261E1
4.134954689E0,-3.004050255E0,-9.411000252E0,2.815950155E0,1.027233269E1
4.137453838E0,-2.856000185E0,-9.351000786E0,3.168000221E0,1.027784891E1
4.139953144E0,-2.752950191E0,-9.292950630E0,3.577050209E0,1.033116423E1
4.142452300E0,-2.583000183E0,-9.243000031E0,3.895050287E0,1.035743000E1
4.144951377E0,-2.490000010E0,-9.199950218E0,4.149000168E0,1.039487309E1
4.147450687E0,-2.398950100E0,-9.181050301E0,4.294950008E0,1.041600892E1
4.149949843E0,-2.326950073E0,-9.162000656E0,4.401000023E0,1.042716423E1
4.152449149E0,-2.254950047E0,-9.139950752E0,4.360050201E0,1.037465841E1
4.154948305E0,-2.164050102E0,-9.058950424E0,4.405050278E0,1.030301721E1
4.157447687E0,-2.077950001E0,-9.054000854E0,4.494000435E0,1.031934337E1
