"Time (s)","Acceleration x (m/s^2)","Acceleration y (m/s^2)","Acceleration z (m/s^2)","Absolute acceleration (m/s^2)"
8.308392000E-3,-6.274950504E0,2.611950159E0,4.894050121E0,8.375500824E0
1.080777500E-2,-6.277050495E0,2.635950089E0,5.041950226E0,8.471768285E0
1.330715900E-2,-6.246000290E0,2.683950186E0,5.230950356E0,8.577817312E0
1.580646900E-2,-6.136050224E0,2.691000223E0,5.446950436E0,8.634921170E0
1.830585200E-2,-5.977950096E0,2.739000082E0,5.695950508E0,8.699532228E0
2.080522600E-2,-5.806050301E0,2.773050070E0,5.899050236E0,8.729193575E0
2.330438200E-2,-5.611950397E0,2.818050146E0,6.127050400E0,8.773604760E0
2.580376500E-2,-5.418000221E0,2.859000206E0,6.349050522E0,8.822644224E0
2.830314900E-2,-5.236050129E0,2.872950077E0,6.514950275E0,8.838248706E0
3.080253400E-2,-5.104050159E0,2.880000114E0,6.643950462E0,8.859334424E0
3.330183900E-2,-5.004000187E0,2.880000114E0,6.775950432E0,8.902130239E0
3.580122100E-2,-4.885950089E0,2.875050068E0,6.868950367E0,8.906228175E0
3.830060600E-2,-4.747050285E0,2.860950232E0,6.948000431E0,8.887869971E0
4.079976200E-2,-4.635000229E0,2.818050146E0,7.036950111E0,8.885004255E0
4.329915400E-2,-4.554000378E0,2.770050049E0,7.125000477E0,8.898186810E0
4.579853900E-2,-4.525050163E0,2.703000069E0,7.216050148E0,8.936087963E0
4.829784900E-2,-4.453050137E0,2.605050087E0,7.309050560E0,8.946404952E0
5.079723100E-2,-4.390950203E0,2.446950197E0,7.393050194E0,8.940089492E0
5.329661600E-2,-4.348050117E0,2.338950157E0,7.446000576E0,8.934156493E0
5.579600000E-2,-4.293000221E0,2.253000021E0,7.543950558E0,8.967555409E0
5.829515500E-2,-4.230000019E0,2.169000149E0,7.719000340E0,9.065342136E0
6.079453800E-2,-4.177950382E0,2.100000143E0,7.915050507E0,9.193111253E0
6.329392300E-2,-4.081950188E0,2.041949987E0,8.134950638E0,9.327877517E0
6.579323200E-2,-3.961950302E0,1.957950115E0,8.406000137E0,9.496918298E0
6.829262500E-2,-3.876000166E0,1.906050086E0,8.632950783E0,9.653198612E0
7.079178100E-2,-3.795000076E0,1.846050143E0,8.794050217E0,9.754242458E0
7.329116300E-2,-3.735000134E0,1.819950104E0,8.929950714E0,9.849185963E0
7.579054800E-2,-3.687000275E0,1.831950068E0,9.021000862E0,9.916071230E0
7.828985800E-2,-3.682050228E0,1.855950117E0,8.880000114E0,9.790630559E0
8.078924000E-2,-3.711000204E0,1.816950083E0,8.983050346E0,9.887771419E0
8.328862500E-2,-3.670050144E0,1.812000036E0,9.199050903E0,1.006852272E1
8.578778100E-2,-3.586050272E0,1.819950104E0,9.385050774E0,1.021034539E1
8.828716400E-2,-3.493050098E0,1.822050095E0,9.495000839E0,1.027989817E1
9.078655300E-2,-3.376050234E0,1.828950047E0,9.687000275E0,1.042020862E1
9.328593800E-2,-3.322950125E0,1.804950118E0,9.823050499E0,1.052578565E1
9.578524700E-2,-3.318000078E0,1.780950069E0,9.931050301E0,1.062104834E1
9.828463000E-2,-3.210000038E0,1.792950034E0,1.002900028E1,1.068174221E1
1.007840150E-1,-3.105000257E0,1.810050130E0,1.010400009E1,1.072418416E1
1.032831460E-1,-3.052050114E0,1.822050095E0,1.011495018E1,1.072133824E1
1.057825280E-1,-2.985000134E0,1.828950047E0,1.010805035E1,1.069710082E1
1.082819130E-1,-2.941950083E0,1.851000071E0,1.011105061E1,1.069180134E1
1.107812970E-1,-2.904000044E0,1.887000084E0,1.012500095E1,1.070091724E1
1.132806070E-1,-2.884950161E0,1.932000041E0,1.017300034E1,1.074920915E1
1.157799810E-1,-2.893950224E0,1.969950080E0,1.016805077E1,1.075383223E1
1.182791370E-1,-2.920950174E0,2.017950058E0,1.015905094E1,1.076152352E1
1.207785190E-1,-2.968950033E0,2.047049999E0,1.020900059E1,1.082722361E1
1.232779040E-1,-3.004050255E0,2.076000214E0,1.036005020E1,1.098475011E1
1.257772140E-1,-3.049950123E0,2.089950085E0,1.053195095E1,1.116208215E1
1.282765910E-1,-3.040050030E0,2.128050089E0,1.070205021E1,1.132715234E1
1.307759760E-1,-2.977950096E0,2.149950027E0,1.084095097E1,1.144625221E1
1.332751320E-1,-2.932950258E0,2.149950027E0,1.093905067E1,1.152767591E1
1.357745140E-1,-2.920950174E0,2.136000156E0,1.096095085E1,1.154282852E1
1.382738990E-1,-2.656950235E0,2.029950142E0,1.090095043E1,1.140222796E1
1.407732680E-1,-1.852950096E0,2.059050083E0,1.022805023E1,1.059651466E1
1.432725780E-1,-2.494050026E0,2.083050013E0,1.065405083E1,1.113858976E1
1.457719610E-1,-2.902050257E0,1.812000036E0,1.115205097E1,1.166505382E1
1.482713450E-1,-3.025950193E0,1.707000136E0,1.115700054E1,1.168541335E1
1.507705010E-1,-3.004050255E0,1.659000039E0,1.076205063E1,1.129594320E1
1.532698890E-1,-3.043050051E0,1.591950059E0,1.044795036E1,1.099791459E1
1.557692740E-1,-3.040050030E0,1.518000126E0,1.011105061E1,1.066675081E1
1.582685830E-1,-3.012000084E0,1.465050101E0,9.744000435E0,1.030359456E1
1.607679660E-1,-3.021000147E0,1.410000086E0,9.390000343E0,9.964268592E0
1.632673500E-1,-3.028050184E0,1.348050117E0,8.929950714E0,9.525247860E0
1.657664960E-1,-3.024000168E0,1.281000018E0,8.499000549E0,9.111451498E0
1.682658790E-1,-2.985000134E0,1.231050014E0,8.133000374E0,8.750508843E0
1.707651890E-1,-2.908950090E0,1.209000111E0,7.798050404E0,8.410306891E0
1.732646480E-1,-2.863050222E0,1.159050107E0,7.531950474E0,8.140683735E0
1.757639680E-1,-2.842050076E0,1.141950011E0,7.305000305E0,7.921131732E0
1.782633500E-1,-2.833950043E0,1.144050002E0,7.068000317E0,7.700438411E0
1.807625060E-1,-2.787000179E0,1.129950047E0,6.898050308E0,7.525108316E0
1.832618890E-1,-2.794050217E0,1.108950019E0,6.655950546E0,7.303298189E0
1.857612740E-1,-2.719950199E0,1.093950033E0,6.505050182E0,7.135161781E0
1.882606630E-1,-2.731950045E0,1.051050067E0,6.349050522E0,6.991330333E0
1.907599730E-1,-2.740950108E0,1.051050067E0,6.190950394E0,6.851669907E0
1.932593560E-1,-2.643000126E0,1.077000022E0,6.057000160E0,6.695717262E0
1.957585110E-1,-2.515950203E0,1.111050010E0,5.832000256E0,6.447996939E0
1.982581450E-1,-2.410950184E0,1.140000105E0,5.623950481E0,6.224234896E0
2.007573010E-1,-2.425050020E0,1.125000000E0,5.533050060E0,6.145008997E0
2.032566830E-1,-2.461050034E0,1.161000013E0,5.440050125E0,6.082666657E0
2.057559930E-1,-2.539950132E0,1.207050085E0,5.443950176E0,6.127390154E0
2.082553760E-1,-2.562000036E0,1.204050064E0,5.443950176E0,6.135973783E0
2.107547550E-1,-2.688000202E0,1.207050085E0,5.527950287E0,6.264227755E0
2.132539110E-1,-2.767050028E0,1.168050051E0,5.796000481E0,6.527980419E0
2.157532940E-1,-2.799000025E0,1.120950103E0,6.031050205E0,6.742736599E0
2.182526780E-1,-2.638050079E0,1.093950033E0,6.139050484E0,6.770817952E0
2.207520630E-1,-2.491950035E0,1.087050080E0,6.181950092E0,6.753369514E0
2.232513680E-1,-2.241000175E0,1.233000040E0,6.208050251E0,6.714332342E0
2.257507500E-1,-1.723950028E0,1.621050119E0,6.232050419E0,6.666202788E0
2.282499060E-1,-1.458000064E0,1.759950042E0,6.631950378E0,7.014695586E0
2.307492890E-1,-1.372050047E0,1.750050068E0,6.922050476E0,7.270486873E0
2.332486730E-1,-1.518000126E0,1.923000097E0,7.779000282E0,8.155678951E0
2.357480630E-1,-2.085000038E0,2.224050045E0,9.447000504E0,9.926703495E0
2.382473730E-1,-2.812950134E0,2.314950228E0,1.081695080E1,1.141394356E1
2.407467550E-1,-3.040050030E0,1.824000120E0,1.119000053E1,1.173818523E1
2.432461400E-1,-3.013950109E0,1.578000069E0,1.134405041E1,1.184320308E1
2.457455150E-1,-2.881950140E0,1.495950103E0,1.121895027E1,1.167939847E1
2.482446700E-1,-2.752950191E0,1.438950062E0,1.116405010E1,1.158815459E1
2.507440530E-1,-2.671950102E0,1.140000105E0,1.106400013E1,1.143901291E1
2.532433630E-1,-2.562000036E0,8.569500446E-1,1.090800095E1,1.123755722E1
2.557427450E-1,-2.511000156E0,6.559500098E-1,1.073295021E1,1.104226482E1
2.582421300E-1,-2.443950176E0,4.480500221E-1,1.063005066E1,1.091657539E1
2.607415150E-1,-2.358000040E0,3.520500064E-1,1.051995087E1,1.078672655E1
2.632406700E-1,-2.335950136E0,3.060000241E-1,1.047195053E1,1.073368748E1
2.657400530E-1,-2.334000111E0,2.629500031E-1,1.062495041E1,1.088146453E1
2.682393580E-1,-2.293050051E0,2.040000111E-1,1.069695091E1,1.094186700E1
2.707387400E-1,-2.241000175E0,1.369500011E-1,1.073100090E1,1.096335794E1
2.732381250E-1,-2.121000051E0,6.195000187E-2,1.068495083E1,1.089360607E1
2.757372810E-1,-2.083050013E0,1.950000064E-3,1.054605007E1,1.074980341E1
2.782366630E-1,-2.065950155E0,-3.195000067E-2,1.041195011E1,1.061498356E1
2.807360290E-1,-1.932000041E0,-1.605000161E-2,1.018005085E1,1.036177191E1
2.832354140E-1,-1.768950105E0,-1.050000079E-3,9.936000824E0,1.009223949E1
2.857347230E-1,-1.707000136E0,6.495000422E-2,9.802050591E0,9.949787121E0
2.882341060E-1,-1.639950037E0,9.300000221E-2,9.723000526E0,9.860771996E0
2.907334960E-1,-1.714050055E0,1.219500080E-1,9.739950180E0,9.890372536E0
2.932326510E-1,-1.714050055E0,1.270500124E-1,9.766050339E0,9.916140807E0
2.957320340E-1,-1.695000052E0,1.050000042E-1,9.808950424E0,9.954876122E0
2.982314190E-1,-1.803000093E0,8.595000207E-2,9.924000740E0,1.008682246E1
3.007307280E-1,-1.933950067E0,8.595000207E-2,1.004100037E1,1.022591016E1
3.032301160E-1,-1.989000082E0,1.030500084E-1,1.011300087E1,1.030725605E1
3.057295010E-1,-2.110949993E0,8.400000632E-2,1.015605068E1,1.037345320E1
3.082288850E-1,-2.158950090E0,8.100000024E-2,1.012005043E1,1.034809389E1
3.107280410E-1,-2.250000000E0,1.030500084E-1,1.005105019E1,1.030032665E1
3.132273470E-1,-2.437050104E0,1.480500102E-1,1.003200054E1,1.032483254E1
3.157267310E-1,-2.607000113E0,2.110500038E-1,9.952950478E0,1.029088018E1
3.182261160E-1,-2.775000095E0,2.590500116E-1,9.852000237E0,1.023863473E1
3.207255010E-1,-3.004050255E0,3.040500283E-1,9.747000694E0,1.020395937E1
3.232246420E-1,-3.229950190E0,2.850000262E-1,9.591000557E0,1.012428244E1
3.257240240E-1,-3.454950094E0,2.560500205E-1,9.445050240E0,1.006037851E1
3.282234090E-1,-3.727950096E0,2.200500071E-1,9.297000885E0,1.001899493E1
3.307227180E-1,-3.886050224E0,1.009500027E-1,9.100049973E0,9.895579152E0
3.332220870E-1,-3.886050224E0,4.095000029E-2,8.908950806E0,9.719694836E0
3.357214720E-1,-3.874050140E0,-7.304999977E-2,8.751000404E0,9.570454998E0
3.382208560E-1,-3.751050234E0,-1.740000099E-1,8.701050758E0,9.476757787E0
3.407200120E-1,-3.720000267E0,-3.079500198E-1,8.638050079E0,9.410055493E0
3.432193950E-1,-3.691950083E0,-4.800000191E-1,8.662050247E0,9.428255932E0
3.457187790E-1,-3.682050228E0,-5.950500369E-1,8.799000740E0,9.556881942E0
3.482180890E-1,-3.649050236E0,-7.339500189E-1,8.947050095E0,9.690405340E0
3.507174720E-1,-3.649050236E0,-8.389500380E-1,9.121950150E0,9.860495896E0
3.532168560E-1,-3.700950146E0,-9.229500294E-1,9.340050697E0,1.008887584E1
3.557160070E-1,-3.756000280E0,-1.002000093E0,9.538050652E0,1.029980352E1
3.582153900E-1,-3.840000153E0,-1.057050109E0,9.723000526E0,1.050712593E1
3.607147740E-1,-3.928950071E0,-1.110000014E0,9.913950920E0,1.072171495E1
3.632140840E-1,-4.019999981E0,-1.090950012E0,1.002195072E1,1.085311329E1
3.657134670E-1,-4.101000309E0,-9.949500561E-1,1.014900017E1,1.099137542E1
3.682126090E-1,-4.174950123E0,-7.990500331E-1,1.023795033E1,1.108531986E1
3.707119910E-1,-4.056000233E0,-3.319500089E-1,1.037595081E1,1.114547819E1
3.732113760E-1,-4.132050037E0,-8.295000345E-2,1.060395050E1,1.138088241E1
3.757107610E-1,-4.039050102E0,6.229500175E-1,9.799050331E0,1.061712672E1
3.782100700E-1,-4.170000076E0,1.039050102E0,1.032105064E1,1.118000949E1
3.807094480E-1,-3.651000261E0,1.279050112E0,1.175805092E1,1.237810702E1
3.832088320E-1,-3.610050201E0,1.422000051E0,1.221300030E1,1.281452000E1
3.857082170E-1,-3.361050129E0,1.834050059E0,1.261305046E1,1.318140507E1
3.882073730E-1,-3.474000216E0,2.073000193E0,1.304400063E1,1.365693815E1
3.907067560E-1,-3.091050148E0,1.936950088E0,1.271805096E1,1.323084226E1
3.932060790E-1,-1.419000030E0,1.698000073E0,1.056105042E1,1.079039161E1
3.957054620E-1,3.580500185E-1,1.188000083E0,7.636950493E0,7.737089688E0
3.982048460E-1,2.278950214E0,1.294950008E0,4.984950066E0,5.632072155E0
4.007042310E-1,4.105050087E0,2.053950071E0,3.760950089E0,5.934213737E0
4.032033870E-1,5.833950043E0,3.277950048E0,4.669050217E0,8.159654377E0
4.057027700E-1,7.048050404E0,4.048950195E0,6.658050537E0,1.050707615E1
4.082021540E-1,7.315950394E0,4.693050385E0,8.068050385E0,1.185922801E1
4.107014640E-1,6.700950146E0,5.035050392E0,1.054395008E1,1.346957121E1
4.132008380E-1,5.476950169E0,5.197950363E0,1.708305168E1,1.867742825E1
4.156999930E-1,3.781950235E0,5.260050297E0,2.409795189E1,2.495360820E1
4.181996070E-1,2.740950108E0,5.236050129E0,2.202195168E1,2.280121453E1
4.206987630E-1,2.595000029E0,5.097000122E0,1.541400051E1,1.644095031E1
4.231981450E-1,2.785950184E0,5.028000355E0,1.217400074E1,1.346286002E1
4.256974590E-1,3.226950169E0,4.887000084E0,1.081695080E1,1.230050413E1
4.281968420E-1,3.559050083E0,4.525050163E0,1.011495018E1,1.163851939E1
4.306962260E-1,3.682050228E0,4.039050102E0,9.603000641E0,1.104939098E1
4.331956110E-1,3.691050291E0,3.508050203E0,9.400050163E0,1.069070678E1
4.356947480E-1,3.454050064E0,2.932950258E0,9.277950287E0,1.032535813E1
4.381941300E-1,2.980050087E0,2.401050091E0,8.872950554E0,9.663073610E0
4.406934400E-1,2.626050234E0,2.064000130E0,8.407950401E0,9.047091594E0
4.431929000E-1,2.178000212E0,1.828950047E0,7.728000164E0,8.234727059E0
4.456922090E-1,1.642050028E0,1.732950091E0,7.075050354E0,7.466979431E0
4.481915780E-1,1.168050051E0,1.723950028E0,6.780000210E0,7.092583977E0
4.506907340E-1,6.700500250E-1,1.708950043E0,6.430950165E0,6.687794652E0
4.531901160E-1,8.805000782E-2,1.618950129E0,6.145950317E0,6.356214095E0
4.556895010E-1,-7.630500197E-1,1.188000083E0,5.599950314E0,5.775208485E0
4.581888250E-1,-1.518000126E0,5.100000501E-1,4.213950157E0,4.507970759E0
4.606882070E-1,-2.274000168E0,4.480500221E-1,4.482000351E0,5.045805459E0
4.631875920E-1,-2.581050158E0,6.060000062E-1,5.248050213E0,5.879718272E0
4.656867480E-1,-2.506050110E0,9.790500402E-1,7.459950447E0,7.930301811E0
4.681861400E-1,-2.209950209E0,1.554000020E0,8.599950790E0,9.014319141E0
4.706855250E-1,-1.927050114E0,1.944000125E0,6.972000122E0,7.490089741E0
4.731849100E-1,-1.696950078E0,2.325000048E0,6.234000206E0,6.866441827E0
4.756842190E-1,-1.690050125E0,2.593050241E0,6.067050457E0,6.810967643E0
4.781833730E-1,-1.885950089E0,2.695950031E0,6.129000187E0,6.956263192E0
4.806829770E-1,-2.346000195E0,2.586000204E0,5.554950237E0,6.561142134E0
4.831821320E-1,-3.079050064E0,2.212050200E0,3.321000099E0,5.040114785E0
4.856815150E-1,-4.137000084E0,1.968000054E0,2.686050177E0,5.310617616E0
4.881809000E-1,-5.008050442E0,1.864950061E0,3.603000164E0,6.445170140E0
4.906802090E-1,-5.644950390E0,1.896000147E0,4.192049980E0,7.282414744E0
4.931796020E-1,-6.124050140E0,1.972950101E0,4.434000015E0,7.813890091E0
4.956789870E-1,-6.592950344E0,2.032950163E0,4.515000343E0,8.245308284E0
4.981781420E-1,-6.847050190E0,2.125950098E0,4.492050171E0,8.460512683E0
5.006775250E-1,-6.862050533E0,2.169000149E0,4.618050098E0,8.550946490E0
5.031769100E-1,-6.526050091E0,2.179050207E0,4.924950123E0,8.461248330E0
5.056763170E-1,-5.944950104E0,2.164050102E0,5.434950352E0,8.340517364E0
5.081756270E-1,-5.119050026E0,2.128050089E0,6.031050205E0,8.191876276E0
5.106750100E-1,-4.285050392E0,2.016000032E0,6.631950378E0,8.149152030E0
5.131741650E-1,-3.546000242E0,1.858050108E0,7.204050541E0,8.241651055E0
5.156735430E-1,-2.944950104E0,1.585050106E0,7.458000183E0,8.173547680E0
5.181729280E-1,-2.551950216E0,1.237950087E0,7.423950195E0,7.947327024E0
5.206722370E-1,-2.320050001E0,8.520000577E-1,7.153950214E0,7.568853267E0
5.231716200E-1,-2.257050037E0,4.450500309E-1,6.715950489E0,7.099037637E0
5.256710050E-1,-2.346000195E0,5.700000376E-2,6.141000271E0,6.574104520E0
5.281703890E-1,-2.728950024E0,-3.750000298E-1,5.382000446E0,6.045967421E0
5.306695450E-1,-3.001950026E0,-6.859500408E-1,4.626000404E0,5.557167548E0
5.331689280E-1,-3.154950142E0,-8.700000644E-1,3.924000263E0,5.109636834E0
5.356683120E-1,-3.451950073E0,-1.033050060E0,3.199050188E0,4.818409887E0
5.381676220E-1,-3.534000158E0,-1.162950039E0,2.467950106E0,4.464570263E0
5.406670090E-1,-3.775050163E0,-1.234050035E0,1.780950069E0,4.352661987E0
5.431663930E-1,-4.138950348E0,-1.267950058E0,1.201950073E0,4.492581809E0
5.456655490E-1,-4.249050140E0,-1.273050070E0,7.110000253E-1,4.492282784E0
5.481649320E-1,-4.182000160E0,-1.303950071E0,3.139500022E-1,4.391807798E0
5.506643400E-1,-3.961950302E0,-1.390050054E0,-1.020000055E-1,4.199963494E0
5.531637250E-1,-3.783000231E0,-1.455000043E0,-4.519500136E-1,4.078280849E0
5.556630350E-1,-3.523950100E0,-1.546050072E0,-7.840500474E-1,3.927241985E0
5.581624170E-1,-3.366000175E0,-1.708050132E0,-1.038000107E0,3.914694963E0
5.606615730E-1,-3.127050161E0,-1.890000105E0,-1.177050114E0,3.838748504E0
5.631609560E-1,-3.103050232E0,-2.368950129E0,-8.710500598E-1,3.999946707E0
5.656603400E-1,-3.343950272E0,-2.920050144E0,-2.939999998E-1,4.449172087E0
5.681596500E-1,-3.742050171E0,-3.562050104E0,6.610500216E-1,5.208466910E0
5.706590330E-1,-4.060050011E0,-4.279950142E0,2.167050123E0,6.284750237E0
5.731583930E-1,-4.429050446E0,-4.890000343E0,3.325950146E0,7.388540829E0
5.756575490E-1,-4.855050087E0,-5.139000416E0,3.217950106E0,7.767627662E0
5.781569320E-1,-5.098950386E0,-5.155950069E0,2.974050045E0,7.837607405E0
5.806563160E-1,-4.939050198E0,-5.173050404E0,3.397050142E0,7.917993243E0
5.831557010E-1,-4.479000092E0,-5.439000130E0,3.996000290E0,8.100134724E0
5.856550260E-1,-3.889950275E0,-5.908050060E0,4.518000126E0,8.393395844E0
5.881544080E-1,-3.289050102E0,-6.463050365E0,4.939050198E0,8.774000653E0
5.906537930E-1,-2.698050022E0,-6.952050209E0,5.410950184E0,9.213514960E0
5.931529490E-1,-2.200050116E0,-7.356000423E0,6.061950207E0,9.782545837E0
5.956523310E-1,-1.848000050E0,-7.704000473E0,6.673050404E0,1.035839414E1
5.981517210E-1,-1.494000077E0,-8.067000389E0,7.318950176E0,1.099434233E1
6.006511060E-1,-1.221000075E0,-8.419050217E0,7.792950153E0,1.153695453E1
6.031504150E-1,-9.670500755E-1,-8.656050682E0,8.257950783E0,1.200233937E1
6.056497980E-1,-7.900500298E-1,-8.850000381E0,8.719950676E0,1.244926607E1
6.081491880E-1,-6.559500098E-1,-9.034950256E0,9.133950233E0,1.286427780E1
6.106483440E-1,-5.700000525E-1,-9.223950386E0,9.471000671E0,1.323276292E1
6.131477260E-1,-4.999500215E-1,-9.412950516E0,9.772950172E0,1.357807580E1
6.156470360E-1,-4.429500103E-1,-9.645000458E0,9.957000732E0,1.386953864E1
6.181464180E-1,-4.549500346E-1,-9.898950577E0,9.997950554E0,1.407676161E1
6.206458120E-1,-5.479500294E-1,-1.023705006E1,1.017300034E1,1.444255445E1
6.231449680E-1,-1.039050102E0,-1.073205090E1,1.018500042E1,1.483208600E1
6.256443510E-1,-1.357050061E0,-1.129995060E1,9.558000565E0,1.486222874E1
6.281437350E-1,-1.342950106E0,-1.168005085E1,8.916000366E0,1.475541139E1
6.306431200E-1,-1.153950095E0,-1.184505081E1,8.832000732E0,1.482029239E1
6.331424250E-1,-8.659500480E-1,-1.181700039E1,8.983050346E0,1.486897983E1
6.356418070E-1,-5.700000525E-1,-1.163505077E1,8.988000870E0,1.471337712E1
6.381411920E-1,-3.160500228E-1,-1.144995022E1,8.727000237E0,1.440006183E1
6.406403480E-1,-6.900000572E-2,-1.124505043E1,8.302950859E0,1.397837305E1
6.431397300E-1,1.840500087E-1,-1.108905029E1,7.798050404E0,1.355767314E1
6.456391200E-1,4.710000157E-1,-1.094295025E1,7.150950432E0,1.308075278E1
6.481384300E-1,8.350500464E-1,-1.085205078E1,6.418950081E0,1.263595010E1
6.506378120E-1,1.246950030E0,-1.079700089E1,5.659950256E0,1.225418905E1
6.531371970E-1,1.749000072E0,-1.067505074E1,4.966050148E0,1.190283006E1
6.556365810E-1,2.358000040E0,-1.049295044E1,4.357050419E0,1.160370895E1
6.581357370E-1,3.090000153E0,-1.027995014E1,3.826050282E0,1.139579469E1
6.606351200E-1,3.844050169E0,-1.003500080E1,3.436050177E0,1.128203898E1
6.631345050E-1,4.663050175E0,-9.778950691E0,3.172050238E0,1.128865875E1
6.656338140E-1,5.566050053E0,-9.469950676E0,2.964000225E0,1.137744155E1
6.681331970E-1,6.484950542E0,-9.190050125E0,2.902050257E0,1.161608800E1
6.706325710E-1,7.021050453E0,-8.494050026E0,3.012000084E0,1.142436781E1
6.731317270E-1,8.113050461E0,-8.506050110E0,3.421050072E0,1.224246952E1
6.756311100E-1,9.190950394E0,-8.302050591E0,3.658050060E0,1.291429221E1
6.781304200E-1,1.039005089E1,-8.041049957E0,4.033950329E0,1.374352201E1
6.806298020E-1,1.156605053E1,-7.723050594E0,4.675950050E0,1.467254389E1
6.831291680E-1,1.283700085E1,-7.428000450E0,5.332050323E0,1.576053749E1
6.856285520E-1,1.378500080E1,-7.014000416E0,5.643000126E0,1.646407906E1
6.881279370E-1,1.457295036E1,-6.813000202E0,6.394950390E0,1.731136172E1
6.906270930E-1,1.529595089E1,-6.577950478E0,7.053000450E0,1.808259830E1
6.931264760E-1,1.606005096E1,-6.145050526E0,7.153950214E0,1.862433587E1
6.956257570E-1,1.646700096E1,-5.877000332E0,7.108050346E0,1.887394059E1
6.981251400E-1,1.657395172E1,-5.652000427E0,7.195050240E0,1.893171235E1
7.006245250E-1,1.648800087E1,-5.479050159E0,7.005000114E0,1.873350448E1
7.031236800E-1,1.658400154E1,-5.637000084E0,7.690050602E0,1.912960416E1
7.056230630E-1,1.625100136E1,-5.628000259E0,7.483950138E0,1.875577089E1
7.081224670E-1,1.603800011E1,-5.721000195E0,7.848000526E0,1.874935740E1
7.106218510E-1,1.550895119E1,-5.776050091E0,7.441050529E0,1.814551059E1
7.131211610E-1,1.514295101E1,-5.581950188E0,7.068000317E0,1.761884678E1
7.156205440E-1,1.473795033E1,-5.326050282E0,6.048000336E0,1.679738966E1
7.181199280E-1,1.472595024E1,-5.395050049E0,5.890050411E0,1.675269738E1
7.206190880E-1,1.480500031E1,-5.509950161E0,5.926050186E0,1.687203768E1
7.231184710E-1,1.515000057E1,-5.841000080E0,5.791950226E0,1.723909762E1
7.256178550E-1,1.576695061E1,-6.406050205E0,6.541050434E0,1.823237646E1
7.281171650E-1,1.612905121E1,-6.813000202E0,6.756000519E0,1.876717367E1
7.306165480E-1,1.644300079E1,-7.261050224E0,7.432050228E0,1.945071968E1
7.331159090E-1,1.619805145E1,-7.243950367E0,6.960000515E0,1.906025433E1
7.356152940E-1,1.590900040E1,-7.252950191E0,7.141950130E0,1.888674222E1
7.381144500E-1,1.530795097E1,-7.095000267E0,7.501050472E0,1.846451055E1
7.406138320E-1,1.487400055E1,-6.928050518E0,7.432050228E0,1.801302714E1
7.431131420E-1,1.455405045E1,-6.672000408E0,6.799950123E0,1.739469159E1
7.456125250E-1,1.469205093E1,-6.561000347E0,6.835050106E0,1.748201922E1
7.481119090E-1,1.504905033E1,-6.532950401E0,7.329000473E0,1.796851704E1
7.506112940E-1,1.312905025E1,-3.949050188E0,6.223050117E0,1.505633789E1
7.531106780E-1,1.030905056E1,-1.215000033E0,4.843050003E0,1.145460090E1
7.556098340E-1,1.507095051E1,-4.549950123E0,8.881950378E0,1.807552594E1
7.581091550E-1,1.580295086E1,-5.302050114E0,2.317950010E0,1.682907851E1
7.606085400E-1,1.926105118E1,-7.146000385E0,1.791000128E0,2.062185965E1
7.631079240E-1,2.228205109E1,-7.492950439E0,3.318000078E0,2.374117165E1
7.656073090E-1,2.401995087E1,-6.691050529E0,9.687000275E0,2.675006862E1
7.681064650E-1,2.425500107E1,-5.577000141E0,1.021395016E1,2.690228216E1
7.706058560E-1,2.426205063E1,-4.327950001E0,7.378950119E0,2.572600157E1
7.731052410E-1,2.253795052E1,-3.219000101E0,6.241950512E0,2.360684480E1
7.756045510E-1,2.230395126E1,-2.503050089E0,8.143050194E0,2.387552655E1
7.781039330E-1,2.380695152E1,-1.653000116E0,1.231095028E1,2.685261341E1
7.806033180E-1,2.476995087E1,-1.030950069E0,1.339800072E1,2.818013036E1
7.831026930E-1,2.404905128E1,-1.135950089E0,9.388050079E0,2.584149250E1
7.856018480E-1,2.553300095E1,-4.390500188E-1,1.155900097E1,2.803100793E1
7.881012310E-1,2.588805199E1,-3.580500185E-1,1.100400066E1,2.813196520E1
7.906006160E-1,2.612205124E1,-7.270500064E-1,1.180800056E1,2.867610573E1
7.930999250E-1,2.624700165E1,-9.300000668E-1,1.112100029E1,2.852098601E1
7.955993030E-1,2.655105209E1,-8.080500364E-1,1.149195099E1,2.894263723E1
7.980986880E-1,2.697195053E1,-5.710500479E-1,1.008405018E1,2.880104654E1
8.005978430E-1,2.781705093E1,5.505000427E-2,1.015605068E1,2.961311734E1
8.030972260E-1,2.748195076E1,2.470500171E-1,1.048695087E1,2.941589349E1
8.055966070E-1,2.697195053E1,2.629500031E-1,9.948000908E0,2.874922573E1
8.080959160E-1,2.627295113E1,3.090000153E-1,8.716950417E0,2.768300321E1
8.105952990E-1,2.582805061E1,1.905000024E-2,8.383950233E0,2.715472671E1
8.130946840E-1,2.569095039E1,-1.900500059E-1,8.229000092E0,2.697735149E1
8.155940680E-1,2.541900063E1,-4.950000346E-1,8.011050224E0,2.665609768E1
8.180932240E-1,2.502600098E1,-6.430500150E-1,7.590000153E0,2.615955543E1
8.205926070E-1,2.445600128E1,-8.800500631E-1,7.081950188E0,2.547595936E1
8.230919160E-1,2.388405037E1,-1.143000007E0,6.358950138E0,2.474248488E1
8.255912990E-1,2.340000153E1,-1.443000078E0,5.787000179E0,2.414811984E1
8.280906840E-1,2.273700142E1,-1.888050079E0,4.884000301E0,2.333215433E1
8.305898690E-1,2.227695084E1,-2.350050211E0,4.518000126E0,2.285164326E1
8.330892510E-1,2.179800034E1,-2.836050034E0,4.384050369E0,2.241463576E1
8.355886360E-1,2.134095192E1,-3.135000229E0,4.201950073E0,2.197545994E1
8.380880200E-1,2.072805023E1,-3.370050192E0,3.771000147E0,2.133611368E1
8.405873300E-1,2.006700134E1,-3.559050083E0,3.301950216E0,2.064592588E1
8.430866930E-1,1.939005089E1,-3.751050234E0,2.968950033E0,1.997145752E1
8.455860770E-1,1.878195000E1,-3.925050259E0,2.775000095E0,1.938732294E1
8.480852330E-1,1.819799995E1,-4.201050282E0,2.574000120E0,1.885315630E1
8.505846160E-1,1.763505173E1,-4.573950291E0,2.298000097E0,1.836292120E1
8.530840100E-1,1.709399986E1,-4.999950409E0,1.906050086E0,1.791193352E1
8.555833950E-1,1.665600014E1,-5.476950169E0,1.705050111E0,1.761608695E1
8.580827050E-1,1.628700066E1,-5.776050091E0,1.285950065E0,1.732867025E1
8.605820870E-1,1.578900051E1,-5.901000500E0,5.670000315E-1,1.686522556E1
8.630814720E-1,1.538700104E1,-6.268950462E0,8.670000434E-1,1.663764496E1
8.655806330E-1,1.489605045E1,-6.657000542E0,8.760000467E-1,1.633938039E1
8.680800150E-1,1.432095051E1,-6.973050117E0,9.859500527E-1,1.595885801E1
8.705793250E-1,1.370595074E1,-7.330050468E0,1.144050002E0,1.558497917E1
8.730787850E-1,1.308105087E1,-7.726950169E0,1.590000033E0,1.527572424E1
8.755780940E-1,1.247805023E1,-8.017050743E0,1.743000031E0,1.493361608E1
8.780774810E-1,1.187700081E1,-8.131950378E0,1.767000079E0,1.450220861E1
8.805768660E-1,1.125900078E1,-8.130000114E0,1.240050077E0,1.394273017E1
8.830760210E-1,1.075395012E1,-8.275950432E0,1.450950027E0,1.364712624E1
8.855753270E-1,1.035405064E1,-8.395050049E0,2.148000002E0,1.350174559E1
8.880747120E-1,1.025400066E1,-8.845950127E0,3.667950153E0,1.403029656E1
8.905741110E-1,1.049505043E1,-8.599050522E0,3.639000177E0,1.404749357E1
8.930734960E-1,1.033995056E1,-7.953000546E0,2.977950096E0,1.338032070E1
8.955726520E-1,9.865950584E0,-8.105999947E0,3.238950253E0,1.317326895E1
8.980720350E-1,9.504000664E0,-8.008049965E0,2.962050200E0,1.277609621E1
9.005714090E-1,9.601950645E0,-7.849950314E0,3.250950098E0,1.282138263E1
9.030707190E-1,9.162000656E0,-7.921050549E0,3.553050280E0,1.262178530E1
9.055701010E-1,8.623050690E0,-8.395050049E0,4.726050377E0,1.292940140E1
9.080694860E-1,7.998000145E0,-8.568000793E0,4.305000305E0,1.248645953E1
9.105688710E-1,7.560000420E0,-8.203949928E0,3.285000086E0,1.162968728E1
9.130680130E-1,7.363950253E0,-8.287950516E0,3.907050133E0,1.175512347E1
9.155673950E-1,6.850950241E0,-8.676000595E0,4.470000267E0,1.192432002E1
9.180667800E-1,6.283950329E0,-9.265050888E0,5.725050449E0,1.257399707E1
9.205660900E-1,6.106950283E0,-9.051000595E0,4.543950081E0,1.182636613E1
9.230654910E-1,5.592000484E0,-9.106950760E0,5.923050404E0,1.221841019E1
9.255648760E-1,4.990950108E0,-9.424950600E0,6.366000175E0,1.242035567E1
9.280642600E-1,4.696950436E0,-8.944050789E0,5.422950268E0,1.146585267E1
9.305634160E-1,4.206000328E0,-8.761950493E0,5.334000111E0,1.108664838E1
9.330627990E-1,3.375000238E0,-9.085050583E0,5.911050320E0,1.135206090E1
9.355621680E-1,2.616000175E0,-9.358050346E0,6.333000183E0,1.159842466E1
9.380614780E-1,1.957950115E0,-9.463050842E0,7.137000561E0,1.201331249E1
9.405608610E-1,1.419000030E0,-9.352950096E0,7.276050568E0,1.193449406E1
9.430602450E-1,6.150000095E-1,-9.754950523E0,8.332050323E0,1.284368901E1
9.455594010E-1,5.310000181E-1,-9.303000450E0,8.578050613E0,1.266533579E1
9.480587700E-1,4.920000136E-1,-8.865000725E0,8.590050697E0,1.235391731E1
9.505580800E-1,4.900500178E-1,-8.500950813E0,8.550000191E0,1.206684785E1
9.530574620E-1,5.140500069E-1,-8.251950264E0,8.575950623E0,1.191242459E1
9.555568470E-1,5.449500084E-1,-8.113050461E0,8.723999977E0,1.192588504E1
9.580562310E-1,6.240000129E-1,-8.043000221E0,8.995050430E0,1.208263882E1
9.605553870E-1,7.560000420E-1,-8.043000221E0,9.357000351E0,1.236183013E1
9.630547700E-1,8.680500388E-1,-8.058000565E0,9.826050758E0,1.273719582E1
9.655541550E-1,9.810000658E-1,-8.062950134E0,1.031700039E1,1.313065204E1
9.680534640E-1,1.081050038E0,-8.062950134E0,1.083105087E1,1.354590333E1
9.705528470E-1,1.168050051E0,-8.046000481E0,1.137195015E1,1.397940324E1
9.730522260E-1,1.225050092E0,-7.987950325E0,1.194000053E1,1.441775679E1
9.755516110E-1,1.258950114E0,-7.866000175E0,1.246395016E1,1.479219279E1
9.780507670E-1,1.255950093E0,-7.714950562E0,1.296900082E1,1.514241906E1
9.805501500E-1,1.275000095E0,-7.504950523E0,1.344300079E1,1.544875975E1
9.830495340E-1,1.306050062E0,-7.291950226E0,1.380495071E1,1.566700256E1
9.855488300E-1,1.266000032E0,-7.027950287E0,1.419495106E1,1.588998039E1
9.880482130E-1,1.321050048E0,-6.814950466E0,1.450395107E1,1.607959327E1
9.905475970E-1,1.444950104E0,-6.616950512E0,1.465005112E1,1.613988577E1
9.930467530E-1,1.636950135E0,-6.379950523E0,1.469595051E1,1.610448185E1
9.955461360E-1,1.816050053E0,-6.130950451E0,1.471995068E1,1.604878622E1
9.980455250E-1,2.037000179E0,-5.866950512E0,1.461705112E1,1.588170840E1
1.000544835E0,2.302050114E0,-5.581950188E0,1.438395023E1,1.559985984E1
1.003044218E0,2.611050129E0,-5.283000469E0,1.409205055E1,1.527460525E1
1.005543373E0,2.914950132E0,-4.966950417E0,1.364895058E1,1.481422906E1
1.008042756E0,3.226950169E0,-4.612950325E0,1.319205093E1,1.434303754E1
1.010542141E0,3.519000053E0,-4.258049965E0,1.275900078E1,1.390346905E1
1.013041525E0,3.825000286E0,-3.892050266E0,1.232295036E1,1.347715801E1
1.015540835E0,4.129050255E0,-3.517950058E0,1.178895092E1,1.297707180E1
1.018040218E0,4.423950195E0,-3.109050035E0,1.129605007E1,1.252350888E1
1.020539602E0,4.744950294E0,-2.661000013E0,1.075995064E1,1.205703165E1
1.023038758E0,5.026950359E0,-2.230050087E0,1.022295094E1,1.160827632E1
1.025538141E0,5.367000103E0,-1.771050096E0,9.708000183E0,1.123327985E1
1.028037525E0,5.628000259E0,-1.360950112E0,9.213000298E0,1.088144966E1
1.030536910E0,5.905950069E0,-9.900000691E-1,8.767950058E0,1.061778200E1
1.033036220E0,6.175950527E0,-6.529500484E-1,8.337000847E0,1.039587860E1
1.035535602E0,6.456000328E0,-3.799500167E-1,8.047050476E0,1.032372625E1
1.038034987E0,6.660000324E0,-1.860000044E-1,7.810050488E0,1.026582140E1
1.040534143E0,6.760050297E0,4.305000231E-2,7.603950500E0,1.017448753E1
1.043033525E0,6.837000370E0,3.300000131E-1,7.486950397E0,1.014435312E1
1.045532905E0,7.066950321E0,6.580500603E-1,7.350000381E0,1.021750079E1
1.048032215E0,7.287000179E0,9.409500360E-1,7.123050213E0,1.023345508E1
1.050531597E0,7.584000587E0,1.204050064E0,6.811050415E0,1.026436599E1
1.053030753E0,7.953000546E0,1.425000072E0,6.474000454E0,1.035343058E1
1.055530367E0,8.331000328E0,1.635000110E0,6.127050400E0,1.046993498E1
1.058029517E0,8.692950249E0,1.791000128E0,5.776950359E0,1.059000571E1
1.060528900E0,9.067950249E0,1.927050114E0,5.440050125E0,1.074873896E1
1.063028210E0,9.406050682E0,2.038050175E0,5.112000465E0,1.089770557E1
1.065527592E0,9.739050865E0,2.128050089E0,4.800000191E0,1.106425374E1
1.068026996E0,1.007205009E1,2.236050129E0,4.531949997E0,1.126874811E1
1.070526152E0,1.037100029E1,2.329950094E0,4.278000355E0,1.145808018E1
1.073025534E0,1.066305065E1,2.416050196E0,4.065000057E0,1.166456914E1
1.075524919E0,1.093605042E1,2.509050131E0,3.868950129E0,1.186850059E1
1.078024229E0,1.118505096E1,2.599950075E0,3.667950153E0,1.205483155E1
1.080523616E0,1.143600082E1,2.689050198E0,3.496050119E0,1.225705806E1
1.083023001E0,1.163700008E1,2.767950058E0,3.333000183E0,1.241733501E1
1.085522386E0,1.180995083E1,2.830050230E0,3.201000214E0,1.255908139E1
1.088021541E0,1.199400043E1,2.904000044E0,3.093000174E0,1.272226052E1
1.090520924E0,1.213800049E1,2.956950188E0,3.012000084E0,1.285094373E1
1.093020309E0,1.228395081E1,3.000000238E0,2.952000141E0,1.298498185E1
1.095519618E0,1.243695068E1,3.028950214E0,2.892000198E0,1.312310736E1
1.098019001E0,1.256205082E1,3.052950144E0,2.815950155E0,1.323084278E1
1.100518386E0,1.271505070E1,3.019050121E0,2.752950191E0,1.335537018E1
1.103017793E0,1.285095024E1,2.968950033E0,2.683950186E0,1.345976133E1
1.105516949E0,1.297800064E1,2.872950077E0,2.581050158E0,1.354046390E1
1.108016332E0,1.316295052E1,2.751000166E0,2.449050188E0,1.366854473E1
1.110515641E0,1.333005047E1,2.578950167E0,2.320050001E0,1.377402851E1
1.113015024E0,1.350000095E1,2.385000229E0,2.218950033E0,1.388747605E1
1.115514399E0,1.364400101E1,2.133000135E0,2.100000143E0,1.396848072E1
1.118013783E0,1.378005028E1,1.875000119E0,2.016000032E0,1.405239009E1
1.120512939E0,1.390005112E1,1.645050049E0,1.879050136E0,1.412262157E1
1.123012322E0,1.399305058E1,1.408050060E0,1.765050054E0,1.417404216E1
1.125511706E0,1.407000065E1,1.200000048E0,1.627950072E0,1.421461008E1
1.128011091E0,1.407000065E1,9.600000381E-1,1.498950124E0,1.418214969E1
1.130510401E0,1.401495075E1,7.159500122E-1,1.434000015E0,1.410630303E1
1.133009783E0,1.391895103E1,4.600500166E-1,1.366950035E0,1.399347692E1
1.135508939E0,1.381395054E1,2.230500132E-1,1.357050061E0,1.388223922E1
1.138008333E0,1.366995049E1,-2.805000171E-2,1.381050110E0,1.373956449E1
1.140507717E0,1.356705093E1,-2.809500098E-1,1.422000051E0,1.364426209E1
1.143007027E0,1.339500046E1,-5.040000081E-1,1.522950053E0,1.349071644E1
1.145506410E0,1.324605083E1,-7.459500432E-1,1.626000047E0,1.336630766E1
1.148005803E0,1.307895088E1,-1.004999995E0,1.776000142E0,1.323718844E1
1.150505188E0,1.296600056E1,-1.243950009E0,1.920000076E0,1.316628202E1
1.153004344E0,1.282305050E1,-1.498050094E0,2.064000130E0,1.307420647E1
1.155503726E0,1.269600105E1,-1.756050110E0,2.182950020E0,1.300143936E1
1.158003111E0,1.251600075E1,-2.065050125E0,2.251049995E0,1.288339756E1
1.160502421E0,1.233195019E1,-2.367000103E0,2.298000097E0,1.276559789E1
1.163001803E0,1.210005093E1,-2.709000111E0,2.302950144E0,1.261164119E1
1.165501188E0,1.193400097E1,-3.076050043E0,2.251049995E0,1.252795630E1
1.168000573E0,1.173600101E1,-3.430050135E0,2.149950027E0,1.241455794E1
1.170499728E0,1.159695053E1,-3.777000189E0,1.981950045E0,1.235650104E1
1.172999135E0,1.149405098E1,-4.102950096E0,1.800000072E0,1.233642605E1
1.175498520E0,1.143195057E1,-4.443000317E0,1.594950080E0,1.236825013E1
1.177997829E0,1.138095093E1,-4.785000324E0,1.362000108E0,1.242084202E1
1.180497212E0,1.132395077E1,-5.131950378E0,1.129950047E0,1.248381203E1
1.182996597E0,1.130205059E1,-5.452950478E0,9.190500379E-1,1.258235548E1
1.185495758E0,1.125705051E1,-5.779050350E0,6.319500208E-1,1.266956866E1
1.187995140E0,1.121100044E1,-6.099000454E0,4.210500121E-1,1.276955835E1
1.190494525E0,1.113495064E1,-6.427050114E0,1.990500093E-1,1.285821604E1
1.192993834E0,1.104405022E1,-6.801000118E0,-4.695000127E-2,1.297022945E1
1.195493217E0,1.093095016E1,-7.159950256E0,-2.839500010E-1,1.307024050E1
1.197992612E0,1.082805061E1,-7.519050121E0,-4.399500191E-1,1.319000951E1
1.200491768E0,1.074195004E1,-7.840050220E0,-5.500500202E-1,1.331008764E1
1.202991150E0,1.061295033E1,-8.137050629E0,-5.879999995E-1,1.338626354E1
1.205490535E0,1.049100018E1,-8.395050049E0,-5.430000424E-1,1.344740864E1
1.207989819E0,1.035900021E1,-8.620050430E0,-4.300500154E-1,1.348328957E1
1.210489202E0,1.023405075E1,-8.793000221E0,-1.710000038E-1,1.349377222E1
1.212988587E0,1.016700077E1,-8.932050705E0,1.030500084E-1,1.353366372E1
1.215487971E0,1.016505051E1,-9.055950165E0,4.429500103E-1,1.362111192E1
1.217987127E0,1.017000008E1,-9.114000320E0,8.740500212E-1,1.368421963E1
1.220486525E0,1.022505093E1,-9.123000145E0,1.321950078E0,1.376692958E1
1.222985909E0,1.031295013E1,-9.085050583E0,1.717050076E0,1.385075253E1
1.225485219E0,1.042395020E1,-9.025050163E0,2.104050159E0,1.394766271E1
1.227984602E0,1.055805016E1,-8.959950447E0,2.478000164E0,1.406746672E1
1.230483986E0,1.073205090E1,-8.932050705E0,2.860950232E0,1.425284121E1
1.232983151E0,1.092195034E1,-8.914950371E0,3.201000214E0,1.445723838E1
1.235482534E0,1.114695072E1,-8.958000183E0,3.438000202E0,1.470782523E1
1.237981918E0,1.138605022E1,-9.078000069E0,3.613050222E0,1.500354481E1
1.240481303E0,1.159905052E1,-9.238050461E0,3.748950243E0,1.529490691E1
1.242980628E0,1.175205040E1,-9.484950066E0,3.787950277E0,1.556995612E1
1.245480010E0,1.181205082E1,-9.751049995E0,3.855000257E0,1.579457336E1
1.247979395E0,1.180005074E1,-1.002600002E1,3.888000250E0,1.596491214E1
1.250478551E0,1.168995094E1,-1.027500057E1,3.916950226E0,1.604908374E1
1.252977934E0,1.148205090E1,-1.047105026E1,3.843000174E0,1.600778051E1
1.255477228E0,1.120695019E1,-1.060800076E1,3.766050100E0,1.588422318E1
1.257976611E0,1.088595009E1,-1.070295048E1,3.610050201E0,1.568724070E1
1.260475995E0,1.048605061E1,-1.078695011E1,3.409050226E0,1.542521227E1
1.262975380E0,1.010295010E1,-1.088805008E1,3.196050167E0,1.519322125E1
1.265474546E0,9.661950111E0,-1.106295013E1,2.976000071E0,1.498661810E1
1.267973929E0,9.174000740E0,-1.127595043E1,2.791950226E0,1.480217328E1
1.270473313E0,8.620950699E0,-1.159200096E1,2.662050009E0,1.468951284E1
1.272972623E0,8.034000397E0,-1.190100098E1,2.535000086E0,1.458098803E1
1.275472006E0,7.455000401E0,-1.220700073E1,2.361000061E0,1.449697276E1
1.277971390E0,6.808050156E0,-1.241805077E1,2.131050110E0,1.432127461E1
1.280470546E0,6.109050274E0,-1.249905014E1,1.851000071E0,1.403470523E1
1.282969929E0,5.335950375E0,-1.252305031E1,1.534950018E0,1.369873085E1
1.285469313E0,4.603050232E0,-1.244400024E1,1.210950017E0,1.332319832E1
1.287968698E0,3.913950205E0,-1.230300045E1,9.340500236E-1,1.294431442E1
1.290468008E0,3.301050186E0,-1.215405083E1,6.870000362E-1,1.261308261E1
1.292967390E0,2.791050196E0,-1.199895096E1,4.570500255E-1,1.232776054E1
1.295466775E0,2.322000027E0,-1.184805012E1,2.610000074E-1,1.207626170E1
1.297965931E0,1.873950124E0,-1.174005032E1,9.795000404E-2,1.188907333E1
1.300465303E0,1.459950089E0,-1.163205051E1,-4.695000127E-2,1.172340640E1
1.302964613E0,1.108050108E0,-1.152195072E1,-1.120500043E-1,1.157565025E1
1.305464072E0,8.640000224E-1,-1.147395039E1,-1.020000055E-1,1.150688653E1
1.307963382E0,7.080000043E-1,-1.140705013E1,-2.100000158E-2,1.142901998E1
1.310462765E0,6.790500283E-1,-1.131900024E1,1.170000061E-1,1.133995434E1
1.312961936E0,7.890000343E-1,-1.123695087E1,3.210000098E-1,1.126918928E1
1.315461318E0,9.550500512E-1,-1.114605045E1,6.010500193E-1,1.120302738E1
1.317960703E0,1.234950066E0,-1.104795074E1,9.430500269E-1,1.115668681E1
1.320460088E0,1.575000048E0,-1.093305016E1,1.314000010E0,1.112379463E1
1.322959397E0,1.969950080E0,-1.081095028E1,1.720950127E0,1.112290513E1
1.325458759E0,2.410050154E0,-1.069605064E1,2.136000156E0,1.117033293E1
1.327957915E0,2.803050041E0,-1.054500008E1,2.550000191E0,1.120520491E1
1.330457528E0,3.198000193E0,-1.039905071E1,2.968950033E0,1.127750528E1
1.332956684E0,3.612000227E0,-1.032495022E1,3.357000113E0,1.144205368E1
1.335456067E0,4.018949986E0,-1.029405022E1,3.840000153E0,1.169893286E1
1.337955362E0,4.431000233E0,-1.030395031E1,4.396049976E0,1.204700836E1
1.340454745E0,4.795050144E0,-1.028700066E1,4.863000393E0,1.234761763E1
1.342954130E0,4.990950108E0,-1.009800053E1,5.373000145E0,1.247991699E1
1.345453285E0,4.632000446E0,-9.430050850E0,6.205950260E0,1.220225823E1
1.347952668E0,4.366050243E0,-8.532000542E0,6.402000427E0,1.152575540E1
1.350452048E0,4.498050213E0,-8.539050102E0,6.129000187E0,1.143295568E1
1.352951432E0,4.744950294E0,-8.383049965E0,5.977950096E0,1.133692936E1
1.355450742E0,5.094000340E0,-8.476950645E0,5.875050068E0,1.150320586E1
1.357950125E0,5.404950142E0,-8.580000877E0,5.758050442E0,1.166126262E1
1.360449285E0,5.626050472E0,-8.512949944E0,5.100000381E0,1.140757488E1
1.362948668E0,5.851050377E0,-8.659049988E0,5.056950092E0,1.160976664E1
1.365448053E0,6.006000519E0,-8.782950401E0,4.918050289E0,1.172175237E1
1.367947437E0,6.025050163E0,-8.838000298E0,4.788000107E0,1.171906241E1
1.370446747E0,5.937000275E0,-8.974950790E0,4.720950127E0,1.175096098E1
1.372946115E0,5.791050434E0,-9.286050797E0,5.049000263E0,1.205236110E1
1.375445270E0,5.554050446E0,-9.585000038E0,5.133000374E0,1.220931591E1
1.377944884E0,5.235000134E0,-9.906000137E0,5.325000286E0,1.240522846E1
1.380444040E0,4.870950222E0,-1.008600044E1,5.143050194E0,1.232495543E1
1.382943422E0,4.548000336E0,-1.027995014E1,4.839000225E0,1.223836611E1
1.385442723E0,4.249050140E0,-1.044705009E1,4.647000313E0,1.219794633E1
1.387942106E0,4.114950180E0,-1.063395023E1,4.420050144E0,1.222908647E1
1.390441490E0,4.108050346E0,-1.084905052E1,4.149000168E0,1.232039680E1
1.392940646E0,4.141050339E0,-1.114605045E1,3.997950077E0,1.254457426E1
1.395440029E0,4.282050133E0,-1.140495014E1,3.903000116E0,1.279227310E1
1.397939432E0,4.512000084E0,-1.162500095E1,3.802050114E0,1.303665513E1
1.400438742E0,4.777950287E0,-1.178295040E1,3.775950193E0,1.326365443E1
1.402938125E0,5.025000095E0,-1.186005020E1,3.709050179E0,1.340404678E1
1.405437509E0,5.293050289E0,-1.198695087E1,3.724950075E0,1.362272461E1
1.407936899E0,5.539050102E0,-1.210905075E1,3.666000128E0,1.381121801E1
1.410436055E0,5.757000446E0,-1.229100037E1,3.565050125E0,1.403286594E1
1.412935437E0,5.926950455E0,-1.238700104E1,3.619950056E0,1.420107654E1
1.415434822E0,6.102000237E0,-1.249005032E1,3.651000261E0,1.437238904E1
1.417934132E0,6.325050354E0,-1.254495049E1,3.519000053E0,1.448328022E1
1.420433490E0,6.523050308E0,-1.254495049E1,3.417000055E0,1.454654108E1
1.422932875E0,6.697950363E0,-1.254705048E1,3.402000189E0,1.462411091E1
1.425432260E0,6.883050442E0,-1.255200100E1,3.417000055E0,1.471750665E1
1.427931415E0,7.036050320E0,-1.259700012E1,3.510000229E0,1.484959655E1
1.430430793E0,7.177050114E0,-1.263600063E1,3.649050236E0,1.498312811E1
1.432930178E0,7.278000355E0,-1.266195107E1,3.802050114E0,1.509138426E1
1.435429487E0,7.419000149E0,-1.264305019E1,3.948000193E0,1.518140267E1
1.437928870E0,7.609950542E0,-1.260900021E1,3.961950302E0,1.525107484E1
1.440428031E0,7.812000275E0,-1.249395084E1,3.880950212E0,1.523771408E1
1.442927413E0,8.041049957E0,-1.237905025E1,3.759000063E0,1.523251296E1
1.445426798E0,8.299950600E0,-1.224300098E1,3.567000151E0,1.521524706E1
1.447926108E0,8.575050354E0,-1.219305038E1,3.445050240E0,1.529935742E1
1.450425490E0,8.866950035E0,-1.209900093E1,3.277950048E0,1.535426921E1
1.452924860E0,9.219000816E0,-1.200795078E1,3.100050211E0,1.545286929E1
1.455424245E0,9.604950905E0,-1.176405048E1,2.977950096E0,1.547630939E1
1.457923400E0,9.942000389E0,-1.154400063E1,2.791950226E0,1.548878008E1
1.460422783E0,1.030200005E1,-1.132800007E1,2.497050047E0,1.551418865E1
1.462922183E0,1.070895004E1,-1.116795063E1,2.326950073E0,1.564670665E1
1.465421492E0,1.113495064E1,-1.096395016E1,2.131050110E0,1.577138876E1
1.467920875E0,1.152300072E1,-1.072995090E1,1.870050073E0,1.585586577E1
1.470420260E0,1.192995071E1,-1.045695019E1,1.618050098E0,1.594646097E1
1.472919416E0,1.237005043E1,-1.023900032E1,1.350000024E0,1.611452063E1
1.475418798E0,1.292295074E1,-1.002795029E1,1.084950089E0,1.639327788E1
1.477918183E0,1.353795052E1,-9.753000259E0,8.620500565E-1,1.670749079E1
1.480417567E0,1.424205112E1,-9.403050423E0,6.940500140E-1,1.708025418E1
1.482916877E0,1.495605087E1,-8.898000717E0,5.530500412E-1,1.741159783E1
1.485416269E0,1.532700062E1,-8.212950706E0,5.119500160E-1,1.739630996E1
1.487915653E0,1.683300018E1,-7.593000412E0,-1.605000161E-2,1.846628842E1
1.490414809E0,1.835805130E1,-6.817950249E0,-2.380500138E-1,1.958466648E1
1.492914192E0,1.954305077E1,-5.949000359E0,-4.060500264E-1,2.043248186E1
1.495413501E0,2.062095070E1,-5.038950443E0,-7.840500474E-1,2.124216005E1
1.497912856E0,2.147505188E1,-4.098000050E0,-1.279950023E0,2.189999383E1
1.500412241E0,2.146305084E1,-2.743050098E0,-1.801950097E0,2.171252863E1
1.502911625E0,2.227995110E1,-2.146950006E0,-2.520000219E0,2.252456473E1
1.505410781E0,2.334000206E1,-1.789950132E0,-3.042000055E0,2.360536765E1
1.507910164E0,2.467200089E1,-1.573950052E0,-3.925950289E0,2.503194024E1
1.510409572E0,2.569905090E1,-1.306050062E0,-4.651050091E0,2.614917305E1
1.512908882E0,2.680005074E1,-1.063950062E0,-5.536950111E0,2.738672170E1
1.515408265E0,2.778195190E1,-8.350500464E-1,-6.523050308E0,2.854968206E1
1.517907649E0,2.854305077E1,-5.950500369E-1,-7.309050560E0,2.947001954E1
1.520407034E0,2.905305099E1,-3.580500185E-1,-7.966950417E0,3.012773259E1
1.522906210E0,2.942400169E1,-1.690500081E-1,-8.620950699E0,3.066139665E1
1.525405592E0,2.962500191E1,-1.605000161E-2,-9.183000565E0,3.101561695E1
1.527904977E0,2.974500084E1,-4.005000368E-2,-9.451050758E0,3.121039954E1
1.530404287E0,2.952000046E1,2.205000073E-2,-1.021995068E1,3.123905096E1
1.532903669E0,2.920605087E1,-7.995000482E-2,-1.071495056E1,3.110964425E1
1.535403063E0,2.878005219E1,-3.889500201E-1,-1.088100052E1,3.077074679E1
1.537902219E0,2.826495171E1,-7.600500584E-1,-1.110600090E1,3.037809123E1
1.540401602E0,2.772900200E1,-1.165050030E0,-1.135005093E1,2.998463856E1
1.542900911E0,2.722605133E1,-1.603050113E0,-1.151295090E1,2.960364300E1
1.545400366E0,2.677800179E1,-1.996050119E0,-1.149795055E1,2.921041702E1
1.547899675E0,2.630895042E1,-2.296950102E0,-1.137105083E1,2.875304591E1
1.550399058E0,2.583300209E1,-2.530050039E0,-1.119705009E1,2.826869436E1
1.552898214E0,2.538495064E1,-2.752050161E0,-1.108695030E1,2.783684547E1
1.555397597E0,2.495895195E1,-2.961000204E0,-1.099995041E1,2.743566499E1
1.557897005E0,2.455200195E1,-3.162000179E0,-1.088100052E1,2.704062162E1
1.560396315E0,2.413500023E1,-3.423000097E0,-1.069905090E1,2.662113551E1
1.562895697E0,2.366595078E1,-3.775050163E0,-1.051695061E1,2.617125293E1
1.565395082E0,2.304600143E1,-4.330049992E0,-1.096005058E1,2.588416937E1
1.567894482E0,2.223705101E1,-5.158050060E0,-1.212600040E1,2.584824566E1
1.570393866E0,2.115000153E1,-5.934000492E0,-1.278600025E1,2.541685915E1
1.572893022E0,1.977795029E1,-6.798000336E0,-1.289700031E1,2.457056660E1
1.575392405E0,1.816604996E1,-7.540950298E0,-1.282200050E1,2.347924614E1
1.577891715E0,1.656000137E1,-8.314050674E0,-1.228800011E1,2.223402867E1
1.580391073E0,1.482405090E1,-9.025050163E0,-1.119195080E1,2.065099945E1
1.582890458E0,1.330905056E1,-9.600000381E0,-9.576000214E0,1.899975300E1
1.585389614E0,1.207605076E1,-1.006200027E1,-8.029050827E0,1.765051015E1
1.587888996E0,1.164000034E1,-1.027995014E1,-6.763050556E0,1.693829495E1
1.590388381E0,1.185495090E1,-1.017195034E1,-5.932050228E0,1.670920868E1
1.592887745E0,1.025805092E1,-1.162005043E1,-4.078950405E0,1.602782010E1
1.595387055E0,9.669000626E0,-1.193895054E1,-7.840500474E-1,1.538320017E1
1.597886438E0,9.655050278E0,-1.144605064E1,1.258950114E0,1.502720954E1
1.600385594E0,9.142950058E0,-1.081395054E1,2.209950209E0,1.433244368E1
1.602884981E0,8.629950523E0,-9.846000671E0,1.908000112E0,1.323103321E1
1.605384366E0,8.322000504E0,-9.660000801E0,2.274000168E0,1.295153986E1
1.607883751E0,7.812000275E0,-1.009305000E1,3.151050091E0,1.314633498E1
1.610383060E0,7.570050240E0,-1.008795071E1,3.931050301E0,1.321081249E1
1.612882443E0,7.243950367E0,-9.952050209E0,4.518000126E0,1.311222504E1
1.615381827E0,7.000050545E0,-1.005495071E1,4.693050385E0,1.311973565E1
1.617881212E0,7.132050514E0,-1.003305054E1,4.615950108E0,1.314668183E1
1.620380368E0,7.372950554E0,-9.990000725E0,4.447950363E0,1.318881256E1
1.622879751E0,7.426050186E0,-9.922950745E0,4.318950176E0,1.312495728E1
1.625379060E0,7.428000450E0,-9.757950783E0,3.967050076E0,1.288915360E1
1.627878520E0,7.234950542E0,-9.667050362E0,3.322950125E0,1.252351267E1
1.630377830E0,7.057050228E0,-9.532950401E0,2.643000126E0,1.215173037E1
1.632877212E0,6.949950218E0,-9.268950462E0,1.992000103E0,1.175513994E1
1.635376368E0,6.460950375E0,-9.090000153E0,1.249950051E0,1.122204784E1
1.637875756E0,5.938950062E0,-8.953050613E0,9.460500479E-1,1.078532586E1
1.640375140E0,5.946000099E0,-8.733000755E0,1.096950054E0,1.062184159E1
1.642874450E0,6.157050133E0,-8.098950386E0,1.348050117E0,1.026252907E1
1.645373833E0,6.472950459E0,-7.660050392E0,9.360000491E-1,1.007231630E1
1.647873217E0,6.472950459E0,-7.426050186E0,9.739500284E-1,9.899186212E0
1.650372373E0,6.342000484E0,-7.294050217E0,1.149000049E0,9.733670419E0
1.652871756E0,6.399000168E0,-7.054950237E0,1.233000040E0,9.604156137E0
1.655371140E0,6.427950382E0,-6.933000565E0,1.264050007E0,9.538493873E0
1.657870525E0,6.780000210E0,-6.778950214E0,1.267050028E0,9.670986745E0
1.660369816E0,6.988050461E0,-6.760050297E0,1.147050023E0,9.790140602E0
1.662869198E0,7.222950459E0,-6.703050137E0,1.092000008E0,9.914351137E0
1.665368583E0,7.230000496E0,-6.583050251E0,1.518000126E0,9.895139320E0
1.667867739E0,7.543050289E0,-6.571050167E0,1.803000093E0,1.016499470E1
1.670367121E0,7.177050114E0,-6.739050388E0,2.035050154E0,1.005317251E1
1.672866520E0,6.691050529E0,-6.988050461E0,1.798050046E0,9.840527953E0
1.675365905E0,6.136050224E0,-7.273050308E0,1.831950068E0,9.690429000E0
1.677865214E0,5.659050465E0,-7.464000225E0,1.978050113E0,9.573339740E0
1.680364597E0,5.166000366E0,-7.545000553E0,2.052000046E0,9.371515209E0
1.682863767E0,4.468950272E0,-7.632000446E0,2.262000084E0,9.128832988E0
1.685363149E0,3.445050240E0,-7.945050240E0,2.386950016E0,8.982745952E0
1.687862534E0,2.455950022E0,-8.512949944E0,2.566950083E0,9.224491313E0
1.690361844E0,1.225050092E0,-9.268950462E0,3.037950039E0,9.830733993E0
1.692861226E0,1.222950101E0,-9.901050568E0,2.827950239E0,1.036936410E1
1.695360607E0,2.319000006E0,-1.028205013E1,3.261000156E0,1.103324241E1
1.697859763E0,6.346050262E0,-9.813000679E0,4.056000233E0,1.237006363E1
1.700359145E0,8.922000885E0,-9.466050148E0,5.617050171E0,1.416896107E1
1.702858530E0,8.824049950E0,-9.813000679E0,7.257000446E0,1.506064060E1
1.705357915E0,8.199000359E0,-1.000395012E1,8.230950356E0,1.533137856E1
1.707857195E0,7.479000568E0,-1.007595062E1,8.812950134E0,1.533389450E1
1.710356578E0,7.123950481E0,-9.886950493E0,9.081000328E0,1.519759940E1
1.712855963E0,6.580950260E0,-9.757950783E0,9.292050362E0,1.499562302E1
1.715355118E0,4.981950283E0,-9.976050377E0,9.775950432E0,1.482938355E1
1.717854501E0,3.859050274E0,-1.009800053E1,1.018695068E1,1.485381594E1
1.720353886E0,3.042000055E0,-1.019100094E1,1.049400043E1,1.494102773E1
1.722853270E0,2.487000227E0,-1.038300037E1,1.048200035E1,1.496209204E1
1.725352580E0,1.921950102E0,-1.045200062E1,1.014195061E1,1.469004327E1
1.727851963E0,1.383000016E0,-1.046205044E1,9.756000519E0,1.437173387E1
1.730351347E0,7.030500174E-1,-1.054500008E1,9.595950127E0,1.427492784E1
1.732850479E0,-6.000000238E-2,-1.065105057E1,9.414000511E0,1.421519904E1
1.735349862E0,-6.010500193E-1,-1.062705040E1,8.887050629E0,1.386633081E1
1.737849246E0,-1.105949998E0,-1.044495010E1,7.984950542E0,1.319392069E1
1.740348556E0,-1.719000101E0,-1.022505093E1,7.051050186E0,1.253889694E1
1.742847924E0,-2.278950214E0,-9.966000557E0,5.962050438E0,1.183472968E1
1.745347079E0,-2.425050020E0,-9.588000298E0,4.579950333E0,1.089892483E1
1.747846462E0,-2.016000032E0,-9.087000847E0,3.175050259E0,9.834570894E0
1.750345847E0,-1.482000113E0,-8.536950111E0,1.932000041E0,8.877413232E0
1.752845231E0,-1.234950066E0,-8.034000397E0,8.670000434E-1,8.174469592E0
1.755344536E0,-8.400000334E-1,-7.452000141E0,3.105000220E-2,7.499257981E0
1.757843919E0,-1.530000120E-1,-6.922950268E0,2.320500165E-1,6.928527739E0
1.760343303E0,4.920000136E-1,-6.324000359E0,2.299500108E-1,6.347276704E0
1.762842688E0,1.134000063E0,-5.683050156E0,4.170000255E-1,5.810069211E0
1.765341844E0,1.885950089E0,-5.106000423E0,9.240000248E-1,5.521034695E0
1.767841255E0,2.731050014E0,-4.573950291E0,1.261950016E0,5.474684766E0
1.770340565E0,3.283950090E0,-4.090950012E0,1.326000094E0,5.410958921E0
1.772839948E0,3.748950243E0,-3.673950195E0,1.305000067E0,5.408841201E0
1.775339332E0,4.321050167E0,-3.183000088E0,1.243050098E0,5.508914381E0
1.777838741E0,4.852050304E0,-2.785950184E0,9.240000248E-1,5.670774782E0
1.780337897E0,5.178000450E0,-2.479050159E0,3.400500119E-1,5.750914046E0
1.782837279E0,5.544000149E0,-1.864050031E0,-1.740000099E-1,5.851572111E0
1.785336664E0,5.857950211E0,-1.729950070E0,-1.038000107E0,6.195623628E0
1.787836049E0,6.411000252E0,-1.609950066E0,-1.792050123E0,6.848671921E0
1.790335368E0,6.850950241E0,-1.701000094E0,-2.262000084E0,7.412527565E0
1.792834751E0,7.528950214E0,-1.873950124E0,-2.367000103E0,8.111687240E0
1.795334136E0,7.996050358E0,-2.221050024E0,-2.400000095E0,8.638859010E0
1.797833291E0,8.053050041E0,-2.625000238E0,-2.439000130E0,8.814247719E0
1.800332674E0,7.984050274E0,-3.013050079E0,-2.781000137E0,8.975382517E0
1.802831984E0,7.752000332E0,-3.493950129E0,-4.024050236E0,9.407134364E0
1.805331366E0,8.185050011E0,-3.411000252E0,-3.981000185E0,9.719996341E0
1.807830751E0,9.009000778E0,-3.193050146E0,-3.430050135E0,1.015494501E1
1.810330136E0,9.568950653E0,-3.280950069E0,-3.010950089E0,1.055439579E1
1.812829291E0,1.005300045E1,-3.432000160E0,-2.251950026E0,1.085876246E1
1.815328683E0,9.507000923E0,-4.123950005E0,-9.589500427E-1,1.040719056E1
1.817828068E0,9.018000603E0,-4.735050201E0,-2.170500159E-1,1.018784305E1
1.820327452E0,8.311950684E0,-5.628000259E0,1.219050050E0,1.011182447E1
1.822826762E0,6.973950386E0,-7.059000492E0,3.109950066E0,1.039890674E1
1.825326145E0,5.845950127E0,-8.596950531E0,4.626000404E0,1.137904087E1
1.827825301E0,4.801950455E0,-9.906000137E0,5.314950466E0,1.222441268E1
1.830324683E0,4.278000355E0,-1.065105057E1,5.128050327E0,1.257151802E1
1.832824068E0,3.271950245E0,-1.141005039E1,4.966050148E0,1.286687850E1
1.835323377E0,2.536950111E0,-1.180005074E1,5.116050243E0,1.310920605E1
1.837822760E0,1.479000092E0,-1.194600010E1,5.995050430E0,1.344749007E1
1.840322131E0,5.040000081E-1,-1.181400013E1,6.649050236E0,1.356593101E1
1.842821515E0,6.169500351E-1,-1.189305019E1,6.196050167E0,1.342446677E1
1.845320671E0,1.072050095E0,-1.121805096E1,5.302950382E0,1.245452695E1
1.847820054E0,1.612950087E0,-1.056195068E1,4.482000351E0,1.158640312E1
1.850319447E0,2.629950047E0,-9.676050186E0,3.844950199E0,1.073900491E1
1.852818757E0,3.415950060E0,-9.082950592E0,3.448050261E0,1.029843468E1
1.855318140E0,4.371000290E0,-8.110950470E0,2.227050066E0,9.479077648E0
1.857817524E0,4.966950417E0,-7.086000443E0,1.147050023E0,8.729130682E0
1.860316885E0,5.689950466E0,-6.186000347E0,1.905000024E-2,8.404909250E0
1.862816041E0,6.484950542E0,-5.410050392E0,-8.920500278E-1,8.492289564E0
1.865315423E0,7.177050114E0,-4.807050228E0,-1.596000075E0,8.784360903E0
1.867815736E0,7.572000504E0,-4.207950115E0,-2.026950121E0,8.896660193E0
1.870314118E0,8.065050125E0,-3.576000214E0,-2.697000027E0,9.225324937E0
1.872813500E0,8.632950783E0,-2.929050207E0,-3.487050056E0,9.760465790E0
1.875312656E0,8.680950165E0,-2.632950068E0,-3.454050064E0,9.706790596E0
1.877812270E0,8.962950706E0,-2.769000053E0,-3.565950155E0,1.003582818E1
1.880311425E0,9.306000710E0,-2.581950188E0,-4.359000206E0,1.059570662E1
1.882810813E0,9.459000587E0,-2.545950174E0,-4.701000214E0,1.086526380E1
1.885310123E0,9.547050476E0,-2.695050240E0,-4.854000092E0,1.104403846E1
1.887809505E0,1.001400089E1,-2.593950033E0,-5.383950233E0,1.166171989E1
1.890308890E0,1.006395054E1,-2.956050158E0,-4.845000267E0,1.155401924E1
1.892808046E0,9.756000519E0,-3.418050051E0,-4.118999958E0,1.112783775E1
1.895307444E0,9.571050644E0,-3.739050150E0,-3.616950274E0,1.089347675E1
1.897806828E0,9.826950073E0,-3.978000164E0,-3.729000092E0,1.123827721E1
1.900306138E0,9.993000031E0,-4.138950348E0,-4.021049976E0,1.153948883E1
1.902805520E0,1.007205009E1,-4.085999966E0,-4.146000385E0,1.163318134E1
1.905304905E0,1.057905006E1,-3.769950151E0,-4.633950233E0,1.214916948E1
1.907804304E0,1.116105080E1,-3.007950068E0,-5.652000427E0,1.286708698E1
1.910303460E0,1.095495033E1,-2.191950083E0,-6.018000126E0,1.268983481E1
1.912802842E0,1.116600037E1,-1.699050069E0,-5.197050095E0,1.243284621E1
1.915302227E0,1.241100025E1,-1.263000011E0,-4.414050102E0,1.323298661E1
1.917801536E0,1.302405071E1,-1.560000062E0,-3.478050232E0,1.357042116E1
1.920300933E0,1.231995106E1,-2.022000074E0,-2.680950165E0,1.276938417E1
1.922800318E0,1.126395035E1,-2.886000156E0,-1.230000019E0,1.169266755E1
1.925299702E0,1.118700027E1,-3.604950190E0,-1.210500076E-1,1.175411818E1
1.927798858E0,1.080900097E1,-4.510050297E0,7.039500475E-1,1.173331161E1
1.930298246E0,1.003605080E1,-5.544000149E0,1.912950039E0,1.162401097E1
1.932797630E0,8.965950012E0,-6.054000378E0,2.230950117E0,1.104609970E1
1.935296940E0,8.424000740E0,-6.061050415E0,3.261000156E0,1.087815438E1
1.937796323E0,7.753950596E0,-6.207000256E0,4.495950222E0,1.090248460E1
1.940295479E0,7.170000553E0,-6.220950127E0,5.646000385E0,1.104474756E1
1.942794851E0,7.045050144E0,-6.150000095E0,6.256050110E0,1.125137306E1
1.945294236E0,7.360950470E0,-5.937000275E0,6.265950203E0,1.134432440E1
1.947793546E0,7.740000248E0,-5.629950047E0,6.226950169E0,1.141835583E1
1.950292928E0,8.262000084E0,-5.190000057E0,5.725050449E0,1.131251292E1
1.952792313E0,9.133049965E0,-4.519050121E0,4.695000172E0,1.121951168E1
1.955291697E0,1.058595085E1,-3.964050293E0,4.357050419E0,1.211445164E1
1.957790853E0,1.221195030E1,-3.376950264E0,3.739950180E0,1.321070591E1
1.960290236E0,1.386600113E1,-2.712000132E0,2.464050055E0,1.434198294E1
1.962789621E0,1.532700062E1,-1.762950063E0,1.222950101E0,1.547645140E1
1.965288906E0,1.634399986E1,-6.210000515E-1,3.760500252E-1,1.636011571E1
1.967788289E0,1.695300102E1,6.990000606E-1,-7.459500432E-1,1.698379481E1
1.970287673E0,1.760100174E1,2.196000099E0,-2.074949980E0,1.785841807E1
1.972787058E0,1.813995171E1,3.121950150E0,-3.013050079E0,1.865161900E1
1.975286224E0,1.816604996E1,3.496050119E0,-3.495000124E0,1.882665035E1
1.977785607E0,1.811400032E1,3.711000204E0,-3.823050261E0,1.888131996E1
1.980284991E0,1.758495140E1,3.354000092E0,-3.930000305E0,1.832824964E1
1.982784301E0,1.731705093E1,2.950050116E0,-4.447050095E0,1.812068716E1
1.985283684E0,1.740000153E1,2.665050030E0,-5.218050480E0,1.836002711E1
1.987783068E0,1.685895157E1,2.677050114E0,-5.295000076E0,1.787254518E1
1.990282453E0,1.723800087E1,2.287050009E0,-5.580000401E0,1.826241157E1
1.992781609E0,1.822605133E1,2.677050114E0,-5.296950340E0,1.916802617E1
1.995280991E0,1.999305153E1,3.406950235E0,-5.431050301E0,2.099585023E1
1.997780301E0,1.930095100E1,3.103050232E0,-5.395950317E0,2.027984000E1
2.000279684E0,1.785300064E1,2.478000164E0,-4.981050014E0,1.869975871E1
2.002779068E0,1.605495071E1,2.026050091E0,-4.617000103E0,1.682804241E1
2.005278224E0,1.459200096E1,1.531950116E0,-3.198000193E0,1.501667634E1
2.007777847E0,1.127595043E1,2.970000207E-1,-3.724050283E0,1.187871280E1
2.010277003E0,8.602050781E0,-9.810000658E-1,-5.575050354E0,1.029751549E1
2.012776309E0,8.736000061E0,-1.468950033E0,-6.325050354E0,1.088493331E1
2.015275694E0,1.066800022E1,-6.619500518E-1,-5.632950306E0,1.208199221E1
2.017775078E0,1.243005085E1,4.950000439E-3,-5.005050182E0,1.339987746E1
2.020274467E0,1.393800068E1,6.060000062E-1,-4.668000221E0,1.471140119E1
2.022773623E0,1.458495045E1,9.510000348E-1,-4.363950253E0,1.525349935E1
2.025273005E0,1.333005047E1,9.100500345E-1,-4.099950314E0,1.397598044E1
2.027772390E0,1.367505074E1,1.362000108E0,-3.186000109E0,1.410718447E1
2.030271700E0,1.429995060E1,1.669050097E0,-2.683050156E0,1.464489923E1
2.032771082E0,1.489605045E1,1.537050128E0,-1.615050077E0,1.506197958E1
2.035270467E0,1.428795052E1,8.119500279E-1,-1.018950105E0,1.434723151E1
2.037769623E0,1.274400043E1,-1.440000057E0,-1.134000063E0,1.287513508E1
2.040269005E0,5.017950058E0,-6.315000534E0,-2.452950001E0,8.430659419E0
2.042768400E0,2.070000172E0,-8.203949928E0,-1.267950058E0,8.555547469E0
2.045267785E0,2.275950193E0,-8.982000351E0,-1.710000038E-1,9.267444124E0
2.047767094E0,2.487000227E0,-8.296950340E0,1.396050096E0,8.773454904E0
2.050266477E0,3.198000193E0,-6.748050213E0,1.201950073E0,7.563601714E0
2.052765862E0,2.427000046E0,-6.243000507E0,-3.030000031E-1,6.705012570E0
2.055265251E0,8.320500255E-1,-6.049050331E0,-1.432950020E0,6.271894683E0
2.057764407E0,7.650000453E-1,-4.957050323E0,-2.635050058E0,5.665779892E0
2.060263790E0,2.704950094E0,-3.042000055E0,-3.858000278E0,5.608447691E0
2.062763099E0,5.062950134E0,-1.276950002E0,-5.149050236E0,7.333265555E0
2.065262471E0,6.801000118E0,-2.530499995E-1,-7.165050507E0,9.882084075E0
2.067761856E0,7.704000473E0,-5.279999971E-1,-9.331950188E0,1.211262571E1
2.070261240E0,6.382050514E0,-2.317050219E0,-1.044705009E1,1.245954037E1
2.072760396E0,5.359950066E0,-3.796050072E0,-9.358050346E0,1.143294219E1
2.075259793E0,5.764950275E0,-4.095000267E0,-8.410050392E0,1.098783994E1
2.077759102E0,8.237999916E0,-2.950950146E0,-7.560000420E0,1.156401123E1
2.080258485E0,1.068000031E1,-1.771050096E0,-7.215000153E0,1.300981369E1
2.082757870E0,1.168305016E1,-1.279950023E0,-6.126000404E0,1.325367172E1
2.085256997E0,1.239900017E1,-7.890000343E-1,-4.752000332E0,1.330185075E1
2.087756380E0,1.230495071E1,-7.219500542E-1,-3.691050291E0,1.286689070E1
2.090255765E0,1.216905022E1,-7.870500088E-1,-2.323950052E0,1.241394276E1
2.092755149E0,1.172595024E1,-8.629500270E-1,-2.034000158E0,1.193229854E1
2.095254459E0,1.094805050E1,-1.141050100E0,-1.693950057E0,1.113693278E1
2.097753842E0,8.958000183E0,-2.046000004E0,-1.516950130E0,9.313056480E0
2.100253226E0,6.916050434E0,-2.829000235E0,-1.584000111E0,7.638327846E0
2.102752382E0,5.584950447E0,-3.459000111E0,-1.407000065E0,6.718333309E0
2.105251765E0,5.323950291E0,-3.751050234E0,-1.191000104E0,6.620672609E0
2.107751149E0,4.993950367E0,-4.227000237E0,-9.810000658E-1,6.615847066E0
2.110250543E0,4.848000050E0,-4.708050251E0,-8.470500112E-1,6.810751454E0
2.112749853E0,4.567049980E0,-4.987950325E0,-9.229500294E-1,6.825645077E0
2.115249235E0,4.054950237E0,-5.515050411E0,-9.810000658E-1,6.915255859E0
2.117748620E0,3.664950132E0,-5.812050343E0,-1.171950102E0,6.970312453E0
2.120247776E0,3.210000038E0,-6.082950115E0,-1.716000080E0,7.088796698E0
2.122747172E0,3.088050127E0,-6.217050076E0,-2.146950006E0,7.266165396E0
2.125246482E0,2.953950167E0,-6.154050350E0,-2.335950136E0,7.214902656E0
2.127745942E0,2.776950121E0,-6.267000198E0,-2.155950069E0,7.185740335E0
2.130245251E0,2.719050169E0,-6.267000198E0,-2.104050159E0,7.148115303E0
2.132744634E0,2.760000229E0,-6.163950443E0,-2.311950207E0,7.138417198E0
2.135243786E0,2.961000204E0,-6.054000378E0,-2.347950220E0,7.136617758E0
2.137743168E0,3.318000078E0,-5.970000267E0,-2.656950235E0,7.328670566E0
2.140242553E0,3.646050215E0,-5.785950184E0,-3.031950235E0,7.480883900E0
2.142741863E0,3.820050240E0,-5.653950214E0,-3.258000135E0,7.561382264E0
2.145241269E0,4.575000286E0,-5.556000233E0,-3.688050270E0,8.087118213E0
2.147740654E0,4.177050114E0,-5.508000374E0,-3.837000132E0,7.906224496E0
2.150239810E0,3.528000116E0,-5.388000488E0,-3.688050270E0,7.421526048E0
2.152739192E0,2.721000195E0,-5.194050312E0,-3.564000130E0,6.861785309E0
2.155238577E0,1.812000036E0,-5.113050461E0,-3.379950047E0,6.391454566E0
2.157737947E0,7.200000286E-1,-5.175000191E0,-3.195000172E0,6.124300214E0
2.160237256E0,-3.760500252E-1,-5.443050385E0,-2.785950184E0,6.126151283E0
2.162736639E0,-1.354950070E0,-5.788050175E0,-2.104050159E0,6.305905295E0
2.165236024E0,-1.888950109E0,-6.211950302E0,-1.845000029E0,6.749850678E0
2.167735179E0,-1.984950066E0,-6.669000149E0,-1.624950051E0,7.145351805E0
2.170234567E0,-1.387950063E0,-7.014000416E0,-1.699050069E0,7.349107316E0
2.172733952E0,-6.730500460E-1,-7.323000431E0,-1.713000059E0,7.550741744E0
2.175233336E0,7.304999977E-2,-7.531050205E0,-1.846950054E0,7.754564978E0
2.177732646E0,8.400000334E-1,-7.641000271E0,-1.792050123E0,7.893157089E0
2.180231785E0,1.366050124E0,-7.696050167E0,-1.633950114E0,7.985303632E0
2.182731398E0,1.752000093E0,-7.696050167E0,-1.222050071E0,7.986995610E0
2.185230554E0,2.359950066E0,-7.660050392E0,-9.019500613E-1,8.065931455E0
2.187729937E0,3.319950104E0,-7.569000244E0,-1.063950062E0,8.333296054E0
2.190229246E0,4.171950340E0,-7.495050430E0,-1.594050050E0,8.724789175E0
2.192728616E0,4.900050163E0,-7.342050552E0,-1.857000113E0,9.020235437E0
2.195228001E0,5.584950447E0,-7.102950573E0,-1.960050106E0,9.245830128E0
2.197727157E0,6.250950336E0,-6.834000111E0,-1.801950097E0,9.435304011E0
2.200226539E0,7.048050404E0,-6.496950150E0,-1.866000056E0,9.765619896E0
2.202725924E0,7.852050304E0,-6.133050442E0,-2.002950191E0,1.016271672E1
2.205225303E0,8.536950111E0,-5.773950100E0,-2.014950037E0,1.050133518E1
2.207724613E0,8.869950294E0,-5.355000019E0,-1.765950084E0,1.051050061E1
2.210223996E0,9.637950897E0,-5.266050339E0,-1.981050134E0,1.116001538E1
2.212723380E0,1.036905003E1,-5.041050434E0,-2.155950069E0,1.172934391E1
2.215222531E0,1.077105045E1,-4.966950417E0,-2.341050148E0,1.208993962E1
2.217721914E0,1.120200062E1,-4.936050415E0,-2.652000189E0,1.252527511E1
2.220221298E0,1.170000076E1,-4.840050220E0,-2.968050241E0,1.300482319E1
2.222720683E0,1.224795055E1,-4.693950176E0,-3.267000198E0,1.351735001E1
2.225219988E0,1.280805016E1,-4.555050373E0,-3.439050198E0,1.402218595E1
2.227719370E0,1.342605019E1,-4.504950047E0,-3.406050205E0,1.456552699E1
2.230218755E0,1.409595108E1,-4.600950241E0,-3.310050249E0,1.519279476E1
2.232717911E0,1.449105072E1,-4.801950455E0,-3.271950245E0,1.561265312E1
2.235217293E0,1.449405098E1,-5.151000023E0,-3.241050243E0,1.571988301E1
2.237716599E0,1.415400028E1,-5.542050362E0,-3.271950245E0,1.554849525E1
2.240216059E0,1.347900105E1,-5.896050453E0,-3.319950104E0,1.508207376E1
2.242715368E0,1.267695045E1,-6.174000263E0,-3.231000185E0,1.446591560E1
2.245214751E0,1.193895054E1,-6.492000103E0,-3.073050261E0,1.393299118E1
2.247713891E0,1.119900036E1,-6.793950558E0,-2.794950247E0,1.339354770E1
2.250213274E0,1.045995045E1,-7.083000183E0,-2.403000116E0,1.285899936E1
2.252712658E0,9.703050613E0,-7.308000565E0,-1.876050115E0,1.229128258E1
2.255211968E0,8.914950371E0,-7.552950382E0,-1.339950085E0,1.176090412E1
2.257711345E0,8.254050255E0,-7.785000324E0,-8.110500574E-1,1.137512100E1
2.260210730E0,7.788000584E0,-8.130000114E0,-2.290500104E-1,1.126065357E1
2.262709886E0,7.417050362E0,-8.563050270E0,3.400500119E-1,1.133375931E1
2.265209269E0,7.042950153E0,-9.087000847E0,9.030000567E-1,1.153222183E1
2.267708653E0,6.646050453E0,-9.625950813E0,1.450950027E0,1.178703405E1
2.270208043E0,6.291000366E0,-1.015005016E1,1.948950052E0,1.209952934E1
2.272707352E0,6.049050331E0,-1.066305065E1,2.386950016E0,1.248956322E1
2.275206735E0,5.905950069E0,-1.114395046E1,2.689050198E0,1.289569188E1
2.277706120E0,5.860050201E0,-1.155600071E1,2.988000154E0,1.329697280E1
2.280205276E0,5.800050259E0,-1.180695057E1,2.971050024E0,1.348598543E1
2.282704658E0,5.841000080E0,-1.184505081E1,2.835000038E0,1.350776576E1
2.285204043E0,6.174000263E0,-1.169895077E1,2.995050192E0,1.356296627E1
2.287703427E0,6.828000546E0,-1.156500053E1,3.318000078E0,1.383401436E1
2.290202737E0,7.735050201E0,-1.150305080E1,3.550950050E0,1.430945232E1
2.292702120E0,8.791049957E0,-1.156095028E1,3.574950218E0,1.495721899E1
2.295201494E0,9.877950668E0,-1.175895023E1,3.354000092E0,1.571929186E1
2.297700650E0,1.093800068E1,-1.202505016E1,2.928000212E0,1.651710857E1
2.300200033E0,1.194600010E1,-1.231200027E1,2.404050112E0,1.732257851E1
2.302699417E0,1.278000069E1,-1.255395031E1,1.803000093E0,1.800502417E1
2.305198788E0,1.347600079E1,-1.275495052E1,1.177950025E0,1.859244272E1
2.307698098E0,1.395000076E1,-1.283400059E1,5.389500260E-1,1.896324233E1
2.310197480E0,1.407705021E1,-1.272705078E1,-1.050000079E-3,1.897738563E1
2.312696636E0,1.389000034E1,-1.252800083E1,-4.009500146E-1,1.870945417E1
2.315196019E0,1.348800087E1,-1.247805023E1,-7.150500417E-1,1.838856171E1
2.317695409E0,1.344000053E1,-1.268295097E1,-1.072050095E0,1.851054162E1
2.320194718E0,1.314600086E1,-1.183395100E1,-7.960500121E-1,1.770574569E1
2.322694101E0,1.356495094E1,-9.874950409E0,-6.139500141E-1,1.678986225E1
2.325193485E0,1.443600082E1,-1.037100029E1,-1.974000096E0,1.788441901E1
2.327692645E0,1.539900112E1,-1.171395016E1,-3.355950117E0,1.963691078E1
2.330192028E0,1.628700066E1,-1.264005089E1,-4.411950111E0,2.108322984E1
2.332691413E0,1.667205048E1,-1.306395054E1,-4.902000427E0,2.174059978E1
2.335190797E0,1.686194992E1,-1.303800106E1,-5.439000130E0,2.199767145E1
2.337690107E0,1.661505127E1,-1.279095078E1,-5.736000061E0,2.173867630E1
2.340189500E0,1.615095139E1,-1.236495018E1,-6.019950390E0,2.121285050E1
2.342688884E0,1.560705090E1,-1.176195049E1,-6.030000210E0,2.045200283E1
2.345188040E0,1.493700027E1,-1.121295071E1,-5.704050064E0,1.952896382E1
2.347687423E0,1.434300041E1,-1.067205048E1,-5.187000275E0,1.861502871E1
2.350186802E0,1.363905048E1,-1.028700066E1,-4.503000259E0,1.766700574E1
2.352686187E0,1.289895058E1,-1.014795017E1,-3.439050198E0,1.676874727E1
2.355185497E0,1.231995106E1,-1.005000019E1,-2.659050226E0,1.611999522E1
2.357684879E0,1.187700081E1,-1.002300072E1,-2.122950077E0,1.568536288E1
2.360184264E0,1.129500008E1,-1.027995014E1,-4.590000212E-1,1.527956422E1
2.362683420E0,1.097400093E1,-1.060500050E1,1.192050099E0,1.530737454E1
2.365182802E0,1.094595051E1,-1.091895008E1,2.290950060E0,1.562964349E1
2.367682187E0,1.127400017E1,-1.108200073E1,2.406000137E0,1.599070532E1
2.370181497E0,1.204200077E1,-1.113000011E1,1.494000077E0,1.646568314E1
2.372680879E0,1.277505016E1,-1.108905029E1,3.640500307E-1,1.692044549E1
2.375180264E0,1.335900021E1,-1.116795063E1,-8.749500513E-1,1.743420619E1
2.377679420E0,1.388100052E1,-1.110300064E1,-1.930950046E0,1.787980332E1
2.380178802E0,1.409400082E1,-1.090905094E1,-2.392950058E0,1.798261553E1
2.382678187E0,1.434795094E1,-1.045200062E1,-3.283950090E0,1.805248850E1
2.385177497E0,1.455795097E1,-9.786000252E0,-4.543050289E0,1.812012813E1
2.387676879E0,1.461105061E1,-9.298050880E0,-5.020050049E0,1.803156822E1
2.390176264E0,1.464195061E1,-8.925000191E0,-3.700050116E0,1.754231219E1
2.392675420E0,1.522605038E1,-7.861950397E0,-5.877000332E0,1.811579441E1
2.395174802E0,1.561905098E1,-7.464000225E0,-5.944050312E0,1.830294476E1
2.397674202E0,1.653105164E1,-6.391050339E0,-5.797950268E0,1.864771889E1
2.400173587E0,1.722300148E1,-5.872050285E0,-7.018950462E0,1.950329255E1
2.402672896E0,1.748204994E1,-5.497950077E0,-5.815050125E0,1.922665684E1
2.405172279E0,1.813095093E1,-4.854000092E0,-5.463000298E0,1.954832654E1
2.407671664E0,1.880100060E1,-4.510050297E0,-5.058000088E0,1.998503295E1
2.410170838E0,1.895205116E1,-4.078950405E0,-3.748050213E0,1.974502368E1
2.412670221E0,1.928700066E1,-3.444000244E0,-4.323000431E0,2.006334630E1
2.415169606E0,1.954305077E1,-3.801000118E0,-1.704000115E0,1.998204323E1
2.417668990E0,2.001495171E1,-2.782950163E0,-2.464950085E0,2.035728573E1
2.420168300E0,2.011995125E1,-2.968050241E0,-2.130000114E0,2.044892811E1
2.422667688E0,2.038800049E1,-2.326050043E0,-2.287950039E0,2.064741601E1
2.425166843E0,2.014395142E1,-1.002000093E0,-6.142950058E0,2.108361018E1
2.427666226E0,2.057295036E1,-1.243950009E0,-5.629950047E0,2.136562744E1
2.430165611E0,2.024895096E1,-3.529500067E-1,-5.917050362E0,2.109872208E1
2.432664995E0,2.094900131E1,-4.279500246E-1,-6.034950256E0,2.180514668E1
2.435164330E0,2.121405029E1,-5.929500461E-1,-4.051949978E0,2.160568949E1
2.437663713E0,1.970100021E1,1.579500139E-1,-5.557950497E0,2.047059284E1
2.440162868E0,1.908600044E1,1.720500141E-1,-6.991950512E0,2.032713423E1
2.442662251E0,1.966800117E1,-4.369500279E-1,-4.194000244E0,2.011494056E1
2.445161616E0,1.847294998E1,-4.390500188E-1,-4.062000275E0,1.891936818E1
2.447661000E0,1.811895180E1,-8.269500136E-1,-4.668000221E0,1.872886773E1
2.450160310E0,1.863300133E1,-1.675050020E0,-2.827050209E0,1.892053762E1
2.452659693E0,1.780500031E1,-2.182049990E0,-2.238000154E0,1.807727918E1
2.455159077E0,1.765695000E1,-2.733000040E0,-8.590500355E-1,1.788784893E1
2.457658248E0,1.715595055E1,-3.267000198E0,-6.289500594E-1,1.747556888E1
2.460157631E0,1.668704987E1,-3.741000175E0,4.240500331E-1,1.710650560E1
2.462657015E0,1.467600060E1,-4.311000347E0,1.104000092E0,1.533585777E1
2.465156400E0,1.251405048E1,-4.705950260E0,-3.940500319E-1,1.337545150E1
2.467655710E0,1.201800060E1,-5.359950066E0,3.640500307E-1,1.316411545E1
2.470155111E0,1.136205101E1,-6.031950474E0,7.090500593E-1,1.288345379E1
2.472654496E0,1.111995029E1,-6.604950428E0,6.250500083E-1,1.294872010E1
2.475153652E0,1.089000034E1,-6.901050091E0,5.479500294E-1,1.290414077E1
2.477653034E0,9.928050041E0,-7.165050507E0,4.360500276E-1,1.225129650E1
2.480152419E0,9.756000519E0,-7.158000469E0,7.969500422E-1,1.212648532E1
2.482651710E0,9.490050316E0,-6.705000401E0,5.839500427E-1,1.163439225E1
2.485151092E0,9.016050339E0,-6.375000477E0,-2.860500216E-1,1.104588699E1
2.487650248E0,9.496950150E0,-6.007950306E0,-1.354050040E0,1.131905387E1
2.490149862E0,1.113000011E1,-5.661000252E0,-1.606050134E0,1.258980633E1
2.492649017E0,1.244700050E1,-5.458050251E0,-1.378050089E0,1.366078900E1
2.495148400E0,1.409205055E1,-4.977000237E0,-7.339500189E-1,1.496312477E1
2.497647785E0,1.571505070E1,-4.085999966E0,-2.149500102E-1,1.623897834E1
2.500147094E0,1.655294991E1,-2.998950243E0,-1.189500093E-1,1.682284168E1
2.502646477E0,1.653105164E1,-1.888050079E0,-2.070000172E-1,1.663980920E1
2.505145842E0,1.727595139E1,-7.720500231E-1,2.320500165E-1,1.729475079E1
2.507644997E0,1.891800117E1,4.720500112E-1,1.288050056E0,1.896767441E1
2.510144380E0,1.950705147E1,1.401000023E0,2.659500241E-1,1.955910498E1
2.512643765E0,1.915500069E1,1.966050148E0,-1.972050071E0,1.935635260E1
2.515143046E0,1.978305054E1,2.538000107E0,-1.843050122E0,2.003016143E1
2.517642429E0,1.982595062E1,2.800950050E0,-1.672950029E0,2.009259568E1
2.520141814E0,1.930095100E1,2.746050119E0,-7.699500322E-1,1.951051829E1
2.522640969E0,1.773795128E1,2.263050079E0,-2.596950054E0,1.806932375E1
2.525140352E0,1.560195065E1,1.381050110E0,-4.701000214E0,1.635321272E1
2.527639717E0,1.401495075E1,8.400000334E-1,-6.274050236E0,1.537817125E1
2.530139026E0,1.065795040E1,-2.140500098E-1,-8.029050827E0,1.334553788E1
2.532638409E0,4.858950138E0,-2.179949999E0,-1.061700058E1,1.187780618E1
2.535137794E0,-5.650500059E-1,-4.512000084E0,-1.252500057E1,1.332490396E1
2.537637169E0,-4.852950096E0,-6.364950180E0,-1.285305023E1,1.514148657E1
2.540136325E0,-2.724000216E0,-6.004050255E0,-1.119405079E1,1.299136520E1
2.542635708E0,-8.710500598E-1,-5.293050289E0,-1.060995007E1,1.188890870E1
2.545135017E0,1.390050054E0,-4.738950253E0,-9.979950905E0,1.113504866E1
2.547634400E0,1.909500062E-1,-6.118950367E0,-9.612000465E0,1.139598914E1
2.550133799E0,3.299999982E-2,-7.705950260E0,-8.428950310E0,1.142059376E1
2.552633183E0,4.999500215E-1,-8.553000450E0,-6.978000164E0,1.104971733E1
2.555132568E0,5.443950176E0,-7.201050282E0,-7.725000381E0,1.188138669E1
2.557631724E0,1.297095108E1,-4.558050156E0,-8.314050674E0,1.606688619E1
2.560131106E0,2.080695152E1,-1.078950047E0,-7.006950378E0,2.198159954E1
2.562630491E0,2.051805115E1,4.960500300E-1,-6.195000172E0,2.143862206E1
2.565129801E0,1.439805031E1,1.030500084E-1,2.823000193E0,1.467255268E1
2.567629183E0,1.022505093E1,-2.664000034E0,5.449050426E0,1.188868004E1
2.570128339E0,5.499000072E0,-6.877950191E0,-2.790000141E-1,8.810393955E0
2.572627722E0,3.234000206E0,-9.430050850E0,-2.104050159E0,1.018879990E1
2.575127106E0,3.054000139E0,-1.030605030E1,-4.159500301E-1,1.075707228E1
2.577626416E0,2.953950167E0,-1.027695084E1,1.101000071E0,1.074959261E1
2.580125799E0,4.074000359E0,-9.934950829E0,7.710000277E-1,1.076546181E1
2.582625183E0,8.130000114E0,-7.801950455E0,1.513050079E0,1.136910961E1
2.585124558E0,7.831050396E0,-5.910000324E0,5.040000439E0,1.102973520E1
2.587623714E0,4.492950439E0,-5.746950150E0,1.033305073E1,1.264855632E1
2.590123096E0,-1.467000127E0,-8.644050598E0,1.131705093E1,1.431598205E1
2.592622481E0,-9.529050827E0,-1.454595089E1,8.406000137E0,1.931445923E1
2.595121866E0,-1.388100052E1,-1.941105080E1,3.843000174E0,2.417105125E1
2.597621175E0,-1.559595108E1,-2.214105034E1,1.429050088E0,2.712013983E1
2.600120558E0,-1.447995090E1,-2.211195183E1,8.479500413E-1,2.644478041E1
2.602619943E0,-1.329705048E1,-2.091000175E1,1.231050014E0,2.481038510E1
2.605119099E0,-1.124295044E1,-1.872195053E1,2.764950037E0,2.201273075E1
2.607618467E0,-9.162000656E0,-1.567605114E1,2.559000015E0,1.833655683E1
2.610117852E0,-8.113950729E0,-1.346895027E1,2.895000219E0,1.598842844E1
2.612617161E0,-6.562050343E0,-1.165605068E1,2.172000170E0,1.355144298E1
2.615116544E0,-4.503000259E0,-1.016505051E1,8.590500355E-1,1.115092956E1
2.617615929E0,-2.751000166E0,-9.573000908E0,3.109500110E-1,9.965291677E0
2.620115303E0,-1.707000136E0,-8.518050194E0,6.270000339E-1,8.710003307E0
2.622614459E0,8.805000782E-2,-7.285050392E0,9.550500512E-1,7.347913488E0
2.625113842E0,1.366050124E0,-6.597000122E0,1.108050108E0,6.827465020E0
2.627613151E0,3.100050211E0,-5.095950127E0,4.189500213E-1,5.979509857E0
2.630112539E0,4.342050076E0,-3.684000254E0,-1.189500093E-1,5.695560186E0
2.632611924E0,5.235000134E0,-3.133050203E0,-8.920500278E-1,6.165791371E0
2.635111080E0,6.454050541E0,-2.326050043E0,-2.278050184E0,7.228747459E0
2.637610462E0,7.219950199E0,-1.596000075E0,-3.040050030E0,7.994798390E0
2.640109847E0,7.624950409E0,-1.198050022E0,-3.442050219E0,8.451207151E0
2.642609221E0,8.865000725E0,-3.679500222E-1,-3.994950294E0,9.730531996E0
2.645108531E0,9.171000481E0,-1.279500127E-1,-4.249050140E0,1.010831579E1
2.647607914E0,9.480000496E0,2.779500186E-1,-4.615050316E0,1.054733877E1
2.650107298E0,9.552000046E0,5.410500169E-1,-4.608000278E0,1.061918578E1
2.652606454E0,9.091950417E0,5.670000315E-1,-4.762950420E0,1.027962782E1
2.655105837E0,8.887050629E0,6.199500561E-1,-5.343000412E0,1.038805373E1
2.657605221E0,9.528000832E0,8.860500455E-1,-4.969050407E0,1.078236275E1
2.660104606E0,9.310050011E0,7.969500422E-1,-4.900050163E0,1.055095504E1
2.662603916E0,8.659049988E0,4.570500255E-1,-4.888050079E0,9.953947709E0
2.665103317E0,8.116050720E0,-1.350000054E-1,-4.653000355E0,9.356223415E0
2.667602702E0,7.903050423E0,-5.299500227E-1,-4.500000000E0,9.109832765E0
2.670101858E0,7.924050331E0,-3.199500144E-1,-3.874950171E0,8.826561079E0
2.672601241E0,7.864050388E0,2.419500053E-1,-3.451050282E0,8.591366385E0
2.675100550E0,7.359000206E0,7.350000143E-1,-2.599050045E0,7.839015894E0
2.677599933E0,5.961000443E0,7.350000143E-1,-2.359950066E0,6.453147729E0
2.680099317E0,6.214950085E0,1.156050086E0,-2.563050032E0,6.821384157E0
2.682598702E0,7.009050369E0,5.269500017E-1,-2.077050209E0,7.329297439E0
2.685097858E0,7.270050526E0,-6.070500016E-1,-6.289500594E-1,7.322412343E0
2.687597241E0,7.591050148E0,-2.410500050E-1,-1.099950075E0,7.674114778E0
2.690096630E0,7.812000275E0,9.300000221E-2,-1.588950038E0,7.972500205E0
2.692595940E0,7.384950161E0,-4.905000329E-2,-1.048050046E0,7.459108773E0
2.695095323E0,7.105050564E0,-1.980000138E-1,1.030500084E-1,7.108555889E0
2.697594707E0,6.436950207E0,-1.311000109E0,3.105000220E-2,6.569171436E0
2.700093863E0,5.733000278E0,-1.780050039E0,5.149500370E-1,6.025034761E0
2.702593495E0,6.459000111E0,-1.785000086E0,-1.330500096E-1,6.702433143E0
2.705092651E0,6.394050121E0,-2.009999990E0,-6.649500132E-1,6.735438771E0
2.707591957E0,6.552000523E0,-1.335000038E0,-2.142000198E0,7.021331839E0
2.710091342E0,6.382050514E0,1.105949998E0,6.300000548E-1,6.507733417E0
2.712590726E0,6.859050274E0,1.069950104E0,3.804000139E0,7.915919463E0
2.715090116E0,6.769950390E0,1.149000049E0,4.068000317E0,7.981294129E0
2.717589272E0,5.944050312E0,3.229500055E-1,3.994050264E0,7.168575056E0
2.720088654E0,5.695050240E0,-6.190500259E-1,3.928950071E0,6.946471682E0
2.722588039E0,4.242000103E0,-2.841000080E0,5.124000072E0,7.233341073E0
2.725087349E0,4.338000298E0,-3.042000055E0,3.553050280E0,6.379355548E0
2.727586746E0,4.108050346E0,-3.844050169E0,3.249000072E0,6.496830059E0
2.730086131E0,3.520950079E0,-3.838950157E0,2.554950237E0,5.801930582E0
2.732585287E0,3.435000181E0,-3.478050232E0,2.890050173E0,5.678771845E0
2.735084669E0,3.495000124E0,-3.547050238E0,3.040950060E0,5.834720946E0
2.737584039E0,3.222000122E0,-2.910000086E0,2.148000002E0,4.843891957E0
2.740083424E0,3.193050146E0,-1.933050036E0,1.372050047E0,3.976779226E0
2.742582733E0,3.387000084E0,-1.312950015E0,7.090500593E-1,3.701129462E0
2.745082116E0,3.540000200E0,-7.459500432E-1,-9.000000358E-2,3.618859335E0
2.747581500E0,3.354000092E0,-4.920000136E-1,-1.357050061E0,3.651433348E0
2.750080875E0,3.508950233E0,-2.430000156E-1,-2.569950104E0,4.356193784E0
2.752580031E0,3.367950201E0,-5.205000192E-2,-3.487050056E0,4.848228115E0
2.755079414E0,3.418050051E0,-3.195000067E-2,-4.459050179E0,5.618470917E0
2.757578723E0,3.696000099E0,-1.830000132E-1,-4.965000153E0,6.192344649E0
2.760078106E0,3.994950294E0,-2.890500128E-1,-5.488950253E0,6.794979959E0
2.762577491E0,4.327950001E0,-6.599999964E-2,-5.941050053E0,7.350617861E0
2.765076875E0,5.580000401E0,1.560000032E-1,-7.081050396E0,9.016763010E0
2.767576031E0,6.535050392E0,2.250000089E-1,-7.737000465E0,1.013008810E1
2.770075414E0,7.552950382E0,4.605000094E-2,-8.527050018E0,1.139121425E1
2.772574723E0,7.768050194E0,4.305000231E-2,-9.265050888E0,1.209072475E1
2.775074102E0,9.065999985E0,4.950000439E-3,-1.031100082E1,1.372986228E1
2.777573487E0,9.826950073E0,-2.460000068E-1,-1.058400059E1,1.444474064E1
2.780072871E0,9.154950142E0,-3.319500089E-1,-1.151805019E1,1.471695564E1
2.782572027E0,9.727050781E0,-4.680000246E-1,-1.184100056E1,1.533113939E1
2.785071410E0,9.883050919E0,-7.890000343E-1,-1.132605076E1,1.505246300E1
2.787570784E0,1.060995007E1,-1.324950099E0,-1.128795052E1,1.554813043E1
2.790070094E0,1.041405010E1,-1.786950111E0,-1.103595066E1,1.527867263E1
2.792569477E0,1.003095055E1,-1.857000113E0,-1.009800053E1,1.435402497E1
2.795068861E0,1.033695030E1,-2.065050125E0,-9.256950378E0,1.402883117E1
2.797568256E0,1.040400028E1,-2.400000095E0,-8.680050850E0,1.376032358E1
2.800067412E0,1.056195068E1,-2.841000080E0,-8.094000816E0,1.360657683E1
2.802566794E0,1.059105015E1,-3.114000082E0,-7.207950115E0,1.318415278E1
2.805066179E0,1.057695007E1,-3.412950277E0,-6.328950405E0,1.278967223E1
2.807565473E0,1.100295067E1,-3.607050180E0,-6.022950172E0,1.305188351E1
2.810064855E0,1.103205013E1,-3.894000292E0,-4.960050106E0,1.270714230E1
2.812564240E0,1.090005016E1,-4.150950432E0,-4.639050007E0,1.255238097E1
2.815063396E0,1.010505009E1,-4.275000095E0,-4.303950310E0,1.178607871E1
2.817562778E0,9.229050636E0,-4.387950420E0,-4.014000416E0,1.097914768E1
2.820062098E0,7.954950333E0,-4.155000210E0,-3.676950216E0,9.698722825E0
2.822561481E0,7.041000366E0,-4.030950069E0,-2.427000046E0,8.468445775E0
2.825060865E0,6.664950371E0,-3.958950281E0,-1.717950106E0,7.940163937E0
2.827560250E0,6.528000355E0,-3.997050285E0,-1.012050033E0,7.721103864E0
2.830059391E0,6.391950130E0,-4.240950108E0,-2.719500065E-1,7.675717627E0
2.832558773E0,6.318000317E0,-4.348950386E0,5.670000315E-1,7.691032863E0
2.835058158E0,6.363000393E0,-4.567049980E0,1.065000057E0,7.904425637E0
2.837557468E0,6.487950325E0,-4.785000324E0,1.357050061E0,8.175042042E0
2.840056850E0,6.705000401E0,-4.987950325E0,1.702050090E0,8.528402742E0
2.842556221E0,7.335000515E0,-5.079000473E0,1.824000120E0,9.106341461E0
2.845055606E0,7.737000465E0,-5.062950134E0,2.241000175E0,9.514027646E0
2.847554761E0,8.221050262E0,-4.897950172E0,2.571000099E0,9.908865970E0
2.850054144E0,8.756999969E0,-4.512000084E0,2.980950117E0,1.029219398E1
2.852553534E0,9.889950752E0,-3.742950201E0,3.958050251E0,1.129101253E1
2.855052843E0,1.132095051E1,-2.640000105E0,5.611950397E0,1.290842780E1
2.857552226E0,1.228605080E1,-2.629950047E0,4.537050247E0,1.335846198E1
2.860051611E0,1.285395050E1,-3.226050138E0,3.282000065E0,1.365294721E1
2.862551009E0,1.315995026E1,-3.928050280E0,2.782050133E0,1.401262547E1
2.865050165E0,1.333995056E1,-4.287000179E0,2.365050077E0,1.421007084E1
2.867549548E0,1.305000019E1,-4.593000412E0,2.137950182E0,1.399889241E1
2.870048932E0,1.284705067E1,-4.657950401E0,2.025000095E0,1.381462407E1
2.872548242E0,1.237695026E1,-4.761000156E0,1.555950046E0,1.335204108E1
2.875047611E0,1.209000015E1,-4.882950306E0,1.300050020E0,1.310348951E1
2.877546766E0,1.235100079E1,-4.816050053E0,1.744950056E0,1.337110352E1
2.880046149E0,1.310805035E1,-4.561950207E0,2.377050161E0,1.408129046E1
2.882545534E0,1.403400040E1,-4.383000374E0,3.405000210E0,1.509164954E1
2.885044843E0,1.440495110E1,-4.135950089E0,3.712950230E0,1.544003558E1
2.887544235E0,1.474800110E1,-3.834000111E0,3.931050301E0,1.573709788E1
2.890043620E0,1.522395039E1,-3.766950130E0,4.281000137E0,1.625686135E1
2.892543004E0,1.531305027E1,-3.685950279E0,5.029950142E0,1.653409013E1
2.895042160E0,1.536300087E1,-4.014000416E0,6.433050156E0,1.713237080E1
2.897541534E0,1.636800003E1,-3.994950294E0,6.268050194E0,1.797663779E1
2.900040918E0,1.748700142E1,-3.757950068E0,5.557050228E0,1.872960797E1
2.902540228E0,1.874595070E1,-3.328950167E0,4.591950417E0,1.958516238E1
2.905039611E0,1.999095154E1,-3.210000038E0,4.168050289E0,2.067159614E1
2.907538990E0,2.129295158E1,-2.989050150E0,3.925950289E0,2.185720233E1
2.910038375E0,2.239905167E1,-2.644950151E0,3.643950224E0,2.284713658E1
2.912537531E0,2.323305130E1,-2.351999998E0,3.934050083E0,2.368086415E1
2.915036913E0,2.259795189E1,-1.582050085E0,3.202950239E0,2.287857518E1
2.917536298E0,2.105100060E1,-6.190500259E-1,2.959050179E0,2.126696563E1
2.920035617E0,2.023005104E1,-5.895000324E-2,4.492050171E0,2.072286068E1
2.922534999E0,1.960305023E1,2.320500165E-1,5.940000057E0,2.048455580E1
2.925034155E0,1.931295013E1,2.490000129E-1,6.495000362E0,2.037736670E1
2.927533769E0,1.883700180E1,3.040500283E-1,6.510000229E0,1.993251580E1
2.930032924E0,1.651905060E1,8.929500580E-1,4.690050125E0,1.719514358E1
2.932532317E0,1.424205112E1,1.185000062E0,2.920950174E0,1.458671297E1
2.935031627E0,1.257405090E1,4.570500255E-1,2.004000187E0,1.274094453E1
2.937531009E0,9.729000092E0,-8.230500221E-1,1.960950136E0,9.958723792E0
2.940030394E0,7.462050438E0,-2.269050121E0,3.418950081E0,8.515867827E0
2.942529779E0,6.523050308E0,-3.162000179E0,1.972950101E0,7.512720051E0
2.945028934E0,7.393050194E0,-3.565950155E0,-2.086950064E0,8.469271058E0
2.947528317E0,8.977950096E0,-3.976050138E0,-5.680050373E0,1.134352392E1
2.950027702E0,1.116795063E1,-4.342050076E0,-6.808050156E0,1.378136666E1
2.952527086E0,1.270305061E1,-4.423050404E0,-7.081050396E0,1.520105735E1
2.955026396E0,1.338300037E1,-4.584000111E0,-6.916050434E0,1.574641260E1
2.957525793E0,1.366500092E1,-4.735050201E0,-7.074000359E0,1.609951650E1
2.960024949E0,1.373205090E1,-4.926000118E0,-6.856050491E0,1.611955729E1
2.962524331E0,1.337595081E1,-5.230050087E0,-6.328950405E0,1.569474744E1
2.965023716E0,1.318395042E1,-5.565000057E0,-5.496000290E0,1.532944205E1
2.967523100E0,1.285605049E1,-5.970000267E0,-4.849950314E0,1.498135359E1
2.970022396E0,1.218600082E1,-6.358050346E0,-4.483050346E0,1.445756413E1
2.972521779E0,1.188900089E1,-6.684000492E0,-3.616950274E0,1.411051147E1
2.975021163E0,1.101495075E1,-6.844050407E0,-2.755050182E0,1.325746837E1
2.977520319E0,1.045500088E1,-6.991950512E0,-1.656000137E0,1.268608497E1
2.980019697E0,1.019895077E1,-6.973050117E0,-3.510000110E-1,1.235982305E1
2.982519006E0,9.826950073E0,-6.757950306E0,7.230000496E-1,1.194828729E1
2.985018389E0,9.507000923E0,-6.573000431E0,1.398000121E0,1.164224229E1
2.987517774E0,9.471000671E0,-6.508950233E0,1.570950031E0,1.159888662E1
2.990017158E0,9.562050819E0,-6.091950417E0,1.816950083E0,1.148242062E1
2.992516553E0,9.720000267E0,-5.647050381E0,1.879050136E0,1.139729848E1
2.995015709E0,9.997050285E0,-5.281050205E0,1.872000098E0,1.146014354E1
2.997515091E0,1.033500004E1,-4.858950138E0,1.618050098E0,1.153428404E1
3.000014476E0,1.071300030E1,-4.420950413E0,9.070500135E-1,1.162479753E1
3.002513786E0,1.101705074E1,-4.129050255E0,1.410000026E-1,1.176623747E1
3.005013163E0,1.110105038E1,-3.880050182E0,-8.059500456E-1,1.178718221E1
3.007512319E0,1.122795010E1,-3.751050234E0,-1.890000105E0,1.198788312E1
3.010011933E0,1.134300041E1,-3.769950151E0,-3.016050100E0,1.232772245E1
3.012511088E0,1.116300011E1,-3.901950121E0,-4.066950321E0,1.250511380E1
3.015010423E0,1.096200085E1,-4.062000275E0,-5.218050480E0,1.280208419E1
3.017509808E0,1.115100098E1,-4.190999985E0,-6.210000515E0,1.343403923E1
3.020009192E0,1.110105038E1,-4.243950367E0,-6.856050491E0,1.372041772E1
3.022508577E0,1.095300007E1,-4.330049992E0,-7.291950226E0,1.385243955E1
3.025007733E0,1.093800068E1,-4.507050037E0,-7.660050392E0,1.409360603E1
3.027507116E0,1.079505062E1,-4.840050220E0,-7.981050491E0,1.427082237E1
3.030006500E0,1.086405087E1,-5.047950268E0,-8.218050003E0,1.452741371E1
3.032505885E0,1.071600056E1,-5.278050423E0,-8.146050453E0,1.445851383E1
3.035005194E0,1.051695061E1,-5.533950329E0,-7.912050247E0,1.427695330E1
3.037504572E0,1.023405075E1,-5.878950119E0,-7.462050438E0,1.396352556E1
3.040003957E0,1.006905079E1,-6.025050163E0,-7.066950321E0,1.369776624E1
3.042503113E0,9.862950325E0,-6.006000519E0,-6.564000130E0,1.328291869E1
3.045002495E0,9.535050392E0,-6.010950089E0,-5.865000248E0,1.270617704E1
3.047501860E0,9.241050720E0,-6.046950340E0,-5.194050312E0,1.220412985E1
3.050001170E0,9.109050751E0,-6.133050442E0,-4.431000233E0,1.184157407E1
3.052500552E0,8.884050369E0,-6.304950237E0,-3.856050253E0,1.155629145E1
3.054999937E0,8.343000412E0,-6.459000111E0,-3.064050198E0,1.098693506E1
3.057499336E0,7.603050232E0,-6.604950428E0,-1.902000070E0,1.024935838E1
3.059998492E0,6.907050133E0,-6.832050323E0,-7.270500064E-1,9.742322868E0
3.062497875E0,6.346050262E0,-6.997050285E0,3.450000286E-1,9.452517741E0
3.064997185E0,5.809950352E0,-7.134000301E0,1.398000121E0,9.306120982E0
3.067496567E0,5.464950085E0,-7.141050339E0,2.349000216E0,9.293980922E0
3.069995947E0,5.122950077E0,-6.976050377E0,3.354000092E0,9.282198714E0
3.072495103E0,5.029050350E0,-6.742950439E0,4.282950401E0,9.439406348E0
3.074994485E0,4.972050190E0,-6.279000282E0,5.065950394E0,9.476865570E0
3.077493870E0,5.173050404E0,-5.776050091E0,5.671950340E0,9.606988383E0
3.079993278E0,5.665950298E0,-5.067000389E0,6.061950207E0,9.722382734E0
3.082492588E0,5.839050293E0,-4.387950420E0,6.220050335E0,9.593625143E0
3.084991971E0,5.872050285E0,-3.868050098E0,6.685050488E0,9.702200067E0
3.087491355E0,6.186000347E0,-3.372000217E0,7.053000450E0,9.969042136E0
3.089990511E0,6.619050503E0,-2.841000080E0,7.306950569E0,1.026034296E1
3.092489899E0,7.072050571E0,-2.403000116E0,7.539000511E0,1.061248498E1
3.094989284E0,7.528950214E0,-2.034000158E0,7.648950577E0,1.092376734E1
3.097488593E0,7.936050415E0,-1.756050110E0,7.780950546E0,1.125201313E1
3.099987976E0,8.173049927E0,-1.486050129E0,7.930050373E0,1.148445859E1
3.102487360E0,8.403000832E0,-1.347000122E0,7.987050533E0,1.167123852E1
3.104986745E0,8.611050606E0,-1.309050083E0,8.100000381E0,1.189427639E1
3.107485901E0,8.728950500E0,-1.348950028E0,8.191050529E0,1.204605960E1
3.109985284E0,8.755050659E0,-1.548000097E0,8.237999916E0,1.212072023E1
3.112484668E0,8.626049995E0,-1.819050074E0,8.320050240E0,1.212191889E1
3.114983963E0,8.707050323E0,-2.245050192E0,8.356050491E0,1.227503790E1
3.117483346E0,8.656949997E0,-2.617950201E0,8.467950821E0,1.238961814E1
3.119982501E0,8.464950562E0,-3.031950235E0,8.569050789E0,1.242081888E1
3.122481884E0,8.254050255E0,-3.504000187E0,8.653050423E0,1.246124571E1
3.124981269E0,8.299950600E0,-4.069050312E0,8.530950546E0,1.257869101E1
3.127480649E0,7.962000370E0,-4.528950214E0,8.373000145E0,1.241015598E1
3.129979959E0,7.620000362E0,-4.936050415E0,8.158950806E0,1.220645229E1
3.132479342E0,7.243950367E0,-5.283000469E0,7.987050533E0,1.200740967E1
3.134978726E0,6.909000397E0,-5.608950138E0,7.755000591E0,1.180400959E1
3.137477867E0,6.622050285E0,-5.884050369E0,7.489050388E0,1.159997735E1
3.139977250E0,6.480000496E0,-6.135000229E0,7.032000542E0,1.136123523E1
3.142476634E0,6.447000504E0,-6.219000340E0,6.352050304E0,1.098127150E1
3.144976019E0,6.435000420E0,-6.145050526E0,5.349000454E0,1.038184387E1
3.147475329E0,6.471000195E0,-6.202050209E0,4.207050323E0,9.901441447E0
3.149974726E0,6.559050083E0,-6.162000179E0,3.385050058E0,9.615089604E0
3.152474111E0,6.612000465E0,-6.187950134E0,2.635950089E0,9.431728892E0
3.154973267E0,6.649950504E0,-6.187950134E0,2.085000038E0,9.319860178E0
3.157472649E0,6.624000549E0,-6.219000340E0,1.690050125E0,9.241732409E0
3.159972029E0,6.580950260E0,-6.298050404E0,1.651950121E0,9.257606841E0
3.162471339E0,6.607050419E0,-6.271950245E0,1.846050143E0,9.295072686E0
3.164970721E0,6.691050529E0,-6.202050209E0,1.984950066E0,9.336788032E0
3.167470106E0,6.769950390E0,-6.019950390E0,2.185950041E0,9.319356660E0
3.169969490E0,6.847050190E0,-5.817000389E0,1.927050114E0,9.188749206E0
3.172468646E0,6.195000172E0,-5.416950226E0,1.783950090E0,8.420442673E0
3.174968029E0,5.082000256E0,-5.079000473E0,1.705050111E0,7.384454501E0
3.177467414E0,4.407000065E0,-4.945050240E0,1.609050035E0,6.816466347E0
3.179966723E0,3.679050207E0,-4.693950176E0,1.803000093E0,6.230520686E0
3.182466106E0,3.400950193E0,-4.324950218E0,1.765050054E0,5.778153537E0
3.184965276E0,3.411000252E0,-4.050000191E0,2.133000135E0,5.708512402E0
3.187464889E0,3.423000097E0,-3.978000164E0,2.743950129E0,5.922050091E0
3.189964045E0,3.655050278E0,-4.036050320E0,3.582000256E0,6.517654528E0
3.192463428E0,3.805950165E0,-4.138950348E0,4.381050110E0,7.128096990E0
3.194962737E0,3.949950218E0,-4.285050392E0,4.834050179E0,7.571776853E0
3.197462120E0,4.177050114E0,-4.356000423E0,4.810050011E0,7.717452199E0
3.199961505E0,4.455000401E0,-4.371000290E0,4.888950348E0,7.928083476E0
3.202460660E0,5.050950050E0,-4.195950031E0,4.690050125E0,8.069365728E0
3.204960038E0,5.568000317E0,-4.006950378E0,4.233000278E0,8.060804564E0
3.207459423E0,5.973000050E0,-3.853950262E0,4.000950336E0,8.157037809E0
3.209958807E0,6.664950371E0,-3.649950266E0,3.823950291E0,8.506838203E0
3.212458117E0,7.146000385E0,-3.439050198E0,3.543000221E0,8.685921847E0
3.214957500E0,7.831050396E0,-3.193050146E0,3.553050280E0,9.173063056E0
3.217456879E0,8.431950569E0,-3.018000126E0,3.340050220E0,9.558349786E0
3.219956035E0,8.946000099E0,-2.994000196E0,3.265950203E0,9.983054927E0
3.222455418E0,9.351000786E0,-3.018000126E0,3.559950113E0,1.045097054E1
3.224954802E0,9.502050400E0,-3.070950031E0,4.051050186E0,1.077639566E1
3.227454187E0,9.472949982E0,-3.210000038E0,4.338000298E0,1.090225335E1
3.229953502E0,9.439949989E0,-3.358050108E0,4.531949997E0,1.099671438E1
3.232452884E0,9.183000565E0,-3.472950220E0,4.932000160E0,1.098696993E1
3.234952269E0,8.985000610E0,-3.595050097E0,5.598000050E0,1.117999221E1
3.237451425E0,8.848050117E0,-3.858000278E0,6.009000301E0,1.137014695E1
3.239950807E0,9.322050095E0,-4.195950031E0,7.053000450E0,1.241979992E1
3.242450117E0,9.765000343E0,-4.492950439E0,7.870050430E0,1.332214431E1
3.244949577E0,1.011195087E1,-4.864050388E0,8.539950371E0,1.410110950E1
3.247448886E0,1.024395084E1,-5.251950264E0,8.932950020E0,1.457117382E1
3.249948269E0,1.030200005E1,-5.485950470E0,9.055050850E0,1.477229851E1
3.252447416E0,1.024200058E1,-5.805000305E0,9.205950737E0,1.494476943E1
3.254946798E0,9.942000389E0,-5.986950397E0,8.647950172E0,1.447321626E1
3.257446183E0,9.436950684E0,-6.028050423E0,8.217000008E0,1.388929513E1
3.259945493E0,8.767050743E0,-5.932050228E0,8.072999954E0,1.331254021E1
3.262444875E0,8.206950188E0,-5.757000446E0,7.828950405E0,1.271965212E1
3.264944240E0,8.817000389E0,-5.647050381E0,7.065000534E0,1.263102951E1
3.267443396E0,8.632950783E0,-5.452950478E0,6.970050335E0,1.236301378E1
3.269942778E0,8.383950233E0,-5.326050282E0,6.895050526E0,1.209128425E1
3.272442163E0,8.010000229E0,-5.151000023E0,6.814050198E0,1.171000363E1
3.274941548E0,7.492950439E0,-5.046000004E0,7.072050571E0,1.147259001E1
3.277440857E0,6.957000256E0,-5.058000088E0,7.005000114E0,1.109293667E1
3.279940240E0,6.628950119E0,-5.008050442E0,6.543000221E0,1.057517852E1
3.282439625E0,6.021000385E0,-4.978950024E0,6.241950512E0,1.000021676E1
3.284938780E0,5.548950195E0,-5.034000397E0,5.880000114E0,9.523991265E0
3.287438163E0,5.118000031E0,-4.957050323E0,5.599950314E0,9.062323970E0
3.289937548E0,5.167950153E0,-4.981050014E0,5.317950249E0,8.933037719E0
3.292436932E0,5.496000290E0,-4.876049995E0,5.293950081E0,9.055815270E0
3.294936242E0,5.733000278E0,-4.480950356E0,5.545050144E0,9.148430979E0
3.297435625E0,6.270000458E0,-4.273050308E0,6.097950459E0,9.734313765E0
3.299935019E0,5.535000324E0,-4.186050415E0,5.823000431E0,9.059060696E0
3.302434175E0,5.347950459E0,-4.864050388E0,5.362950325E0,9.001155286E0
3.304933558E0,4.636950016E0,-5.556000233E0,5.317950249E0,8.980592346E0
3.307432867E0,4.558050156E0,-5.179950237E0,3.133950233E0,7.578215473E0
3.309932250E0,5.013000011E0,-4.633950233E0,-2.430000156E-1,6.831011118E0
3.312431635E0,4.909950256E0,-4.816050053E0,-7.200000286E-1,6.915225931E0
3.314931019E0,4.837950230E0,-4.621950150E0,3.520500064E-1,6.700158567E0
3.317430175E0,3.274950266E0,-5.965050220E0,1.951050043E0,7.079104438E0
3.319929558E0,1.435950041E0,-7.123950481E0,3.688950062E0,8.149906474E0
3.322428942E0,7.095000148E-2,-7.864050388E0,4.256999969E0,8.942615454E0
3.324928252E0,-3.949500322E-1,-7.873050213E0,3.639000177E0,8.682351494E0
3.327427635E0,-7.050000131E-3,-7.311000347E0,3.136050224E0,7.955223868E0
3.329927019E0,8.230500221E-1,-6.645000458E0,3.289950132E0,7.460376284E0
3.332426175E0,1.852050066E0,-6.229050159E0,4.116000175E0,7.692373677E0
3.334925567E0,2.503950119E0,-6.214050293E0,4.992000103E0,8.354893911E0
3.337424951E0,2.853000164E0,-6.226050377E0,5.923050404E0,9.054603211E0
3.339924336E0,3.210000038E0,-6.190050125E0,6.889950275E0,9.802664719E0
3.342423646E0,3.691050291E0,-6.061050415E0,7.659000397E0,1.044128687E1
3.344923048E0,4.261050224E0,-5.926950455E0,8.191050529E0,1.097171816E1
3.347422433E0,5.017950058E0,-5.749950409E0,8.016000748E0,1.106788238E1
3.349921589E0,5.671050072E0,-5.652000427E0,7.723950386E0,1.112498662E1
3.352420971E0,6.307950497E0,-5.713950157E0,7.657050133E0,1.144857557E1
3.354920356E0,6.681000233E0,-5.805000305E0,7.635000229E0,1.168875618E1
3.357419741E0,5.905950069E0,-5.983950138E0,8.124000549E0,1.169133399E1
3.359919050E0,5.875050068E0,-6.346050262E0,8.310000420E0,1.199352635E1
3.362418433E0,6.090000153E0,-6.873000145E0,8.059050560E0,1.221779558E1
3.364917589E0,5.773950100E0,-7.444950581E0,8.013000488E0,1.236826446E1
3.367416946E0,5.310000420E0,-7.957050323E0,8.092050552E0,1.252964630E1
3.369916331E0,4.816050053E0,-8.332950592E0,8.200050354E0,1.264409860E1
3.372415641E0,4.633950233E0,-8.520000458E0,8.176050186E0,1.268509752E1
3.374915023E0,4.788000107E0,-8.536950111E0,7.980000496E0,1.262873193E1
3.377414408E0,5.002950191E0,-8.428950310E0,7.446000576E0,1.230933136E1
3.379913765E0,5.274000168E0,-8.271000862E0,6.820950508E0,1.194779891E1
3.382412921E0,5.697000504E0,-8.182050705E0,6.397050381E0,1.184584408E1
3.384912303E0,6.069000244E0,-8.103000641E0,6.165000439E0,1.185321112E1
3.387411688E0,6.492000103E0,-8.002950668E0,5.836950302E0,1.184327968E1
3.389911002E0,6.966000557E0,-7.785000324E0,5.547000408E0,1.182795871E1
3.392410385E0,7.483950138E0,-7.500000477E0,5.691000462E0,1.202692825E1
3.394909770E0,8.025000572E0,-7.054950237E0,5.914050102E0,1.221265514E1
3.397408926E0,8.689949989E0,-6.250050068E0,5.976000309E0,1.225932039E1
3.399908308E0,8.122950554E0,-5.422050476E0,6.337050438E0,1.164212890E1
3.402407693E0,7.882950306E0,-6.018000126E0,5.929950237E0,1.155515213E1
3.404907077E0,7.158000469E0,-6.624000549E0,5.385000229E0,1.114058264E1
3.407406387E0,6.061050415E0,-7.059000492E0,5.059050083E0,1.059055276E1
3.409905770E0,4.966950417E0,-7.459050179E0,5.193000317E0,1.035737796E1
3.412405154E0,4.021950245E0,-7.842000484E0,5.713050365E0,1.050295196E1
3.414904310E0,3.424950123E0,-8.215950012E0,6.346950531E0,1.093233273E1
3.417403693E0,3.169050217E0,-8.383049965E0,6.766050339E0,1.122932960E1
3.419903077E0,3.058950186E0,-8.302050591E0,7.003050327E0,1.128379077E1
3.422402462E0,2.860050201E0,-8.026950836E0,7.189950466E0,1.114931453E1
3.424901772E0,2.914950132E0,-7.825950146E0,7.141950130E0,1.098862510E1
3.427401154E0,2.923050165E0,-7.572000504E0,6.874050140E0,1.063635178E1
3.429900310E0,2.869950056E0,-7.303950310E0,6.625050545E0,1.027013136E1
3.432399693E0,2.773950100E0,-7.095000267E0,6.439950466E0,9.975309015E0
3.434899086E0,2.668950081E0,-6.897000313E0,6.238950253E0,9.675557250E0
3.437398471E0,2.515950203E0,-6.660000324E0,6.004950523E0,9.313701763E0
3.439897781E0,2.377050161E0,-6.364950180E0,5.859000206E0,8.971668835E0
3.442397163E0,2.347950220E0,-6.078000069E0,5.689050198E0,8.649869781E0
3.444896557E0,2.491950035E0,-5.770950317E0,5.464050293E0,8.328837143E0
3.447395713E0,2.917950153E0,-5.491050243E0,5.182950020E0,8.095000728E0
3.449895096E0,3.540000200E0,-5.191950321E0,5.023050308E0,8.044810996E0
3.452394480E0,4.266000271E0,-5.017050266E0,5.085000038E0,8.320263041E0
3.454893776E0,4.855050087E0,-4.849950314E0,5.104050159E0,8.552476683E0
3.457393158E0,5.238000393E0,-4.452000141E0,4.840950012E0,8.407838628E0
3.459892543E0,5.595000267E0,-3.970950127E0,4.228050232E0,8.059086900E0
3.462391928E0,5.808000088E0,-3.576000214E0,3.514950275E0,7.673038380E0
3.464891075E0,5.781000137E0,-3.226050138E0,2.770050049E0,7.176387626E0
3.467390457E0,5.568000317E0,-2.779050112E0,1.743000031E0,6.462491482E0
3.469889842E0,5.359950066E0,-2.257050037E0,-1.399500072E-1,5.817467282E0
3.472389152E0,5.319000244E0,-1.912050128E0,-1.869000077E0,5.953222705E0
3.474888534E0,5.652000427E0,-1.744050026E0,-2.997000217E0,6.630899609E0
3.477387937E0,5.878950119E0,-1.309050083E0,-2.608950138E0,6.563709884E0
3.479887321E0,5.305050373E0,-3.390000165E-1,-9.450000525E-1,5.399213422E0
3.482386477E0,5.299950123E0,-6.360000372E-1,1.264050007E0,5.485598397E0
3.484885860E0,4.903050423E0,-8.920500278E-1,3.832950115E0,6.287063169E0
3.487385254E0,4.552950382E0,-1.384950042E0,5.830050468E0,7.525751276E0
3.489884564E0,4.153050423E0,-1.966950059E0,7.329000473E0,8.650489482E0
3.492383947E0,3.919050217E0,-2.673000097E0,8.644950867E0,9.860986746E0
3.494883331E0,4.069050312E0,-3.418050051E0,9.136050224E0,1.056918399E1
3.497382487E0,4.372950077E0,-3.921000242E0,8.914050102E0,1.067507492E1
3.499881875E0,4.342050076E0,-3.832050085E0,8.182950020E0,1.002490288E1
3.502381185E0,4.651050091E0,-3.799050093E0,7.183050156E0,9.362759107E0
3.504880567E0,4.773000240E0,-3.516000271E0,6.651000500E0,8.909522818E0
3.507379952E0,4.948050022E0,-3.138000250E0,6.108000278E0,8.463918241E0
3.509879336E0,5.077050209E0,-2.913000107E0,5.509050369E0,8.038136875E0
3.512378473E0,5.218950272E0,-2.400000095E0,4.924950123E0,7.566543207E0
3.514877856E0,5.310000420E0,-2.062950134E0,4.482000351E0,7.248461551E0
3.517377241E0,5.386050224E0,-1.810950041E0,4.120050430E0,7.018824162E0
3.519876550E0,5.389050484E0,-1.536000013E0,4.156050205E0,6.976669296E0
3.522375924E0,5.310000420E0,-1.531050086E0,3.819000244E0,6.717513058E0
3.524875308E0,5.113050461E0,-1.198050022E0,3.642000198E0,6.390835181E0
3.527374693E0,4.930950165E0,-8.800500631E-1,3.211050034E0,5.949756294E0
3.529873849E0,4.837950230E0,-6.240000129E-1,2.610000134E0,5.532380965E0
3.532373232E0,4.703999996E0,-4.110000134E-1,2.097000122E0,5.166618477E0
3.534872621E0,4.456950188E0,-4.695000127E-2,1.707000136E0,4.772887883E0
3.537371931E0,4.096050262E0,1.369500011E-1,1.321950078E0,4.306266952E0
3.539871314E0,3.885000229E0,2.869500220E-1,1.039050102E0,4.031772837E0
3.542370698E0,3.574050188E0,3.019500077E-1,7.350000143E-1,3.661315826E0
3.544870083E0,3.301050186E0,2.830500007E-1,5.869500041E-1,3.364752583E0
3.547369239E0,3.346050262E0,1.390500069E-1,7.950000167E-1,3.442007015E0
3.549868621E0,3.250950098E0,4.305000231E-2,8.929500580E-1,3.371630117E0
3.552368006E0,3.018000126E0,-2.599500120E-1,8.910000324E-1,3.157495816E0
3.554867349E0,2.785950184E0,-4.300500154E-1,7.759500146E-1,2.923792036E0
3.557366731E0,2.731050014E0,-5.070000291E-1,8.790000677E-1,2.913472898E0
3.559866116E0,2.851050138E0,-6.070500016E-1,1.156050086E0,3.135832967E0
3.562365272E0,3.097050190E0,-7.459500432E-1,1.650000095E0,3.587570440E0
3.564864654E0,3.363000154E0,-8.869500160E-1,1.372050047E0,3.738846306E0
3.567363964E0,3.631050110E0,-5.070000291E-1,1.317000031E0,3.895646675E0
3.569863347E0,3.658050060E0,-5.595000088E-2,1.362000108E0,3.903780852E0
3.572362731E0,3.745950222E0,1.770000011E-1,1.185000062E0,3.932899339E0
3.574862116E0,3.988050222E0,2.059500068E-1,1.198950052E0,4.169465339E0
3.577361272E0,3.883050203E0,1.339500099E-1,1.779000044E0,4.273273060E0
3.579860645E0,3.796050072E0,-1.639500111E-1,1.048950076E0,3.941721961E0
3.582360030E0,3.885000229E0,1.200000048E-1,6.559500098E-1,3.941813947E0
3.584859340E0,3.985950232E0,-1.590000093E-1,3.379500210E-1,4.003409855E0
3.587358722E0,4.078950405E0,-2.530499995E-1,1.920000017E-1,4.091299880E0
3.589858107E0,4.153050423E0,-4.279500246E-1,-5.400000140E-2,4.175390405E0
3.592357491E0,4.135950089E0,-8.920500278E-1,-7.560000420E-1,4.298066129E0
3.594856647E0,4.078950405E0,-1.000050068E0,-9.330000281E-1,4.302141978E0
3.597356030E0,4.198950291E0,-1.069050074E0,-1.693950057E0,4.652259494E0
3.599855415E0,3.994950294E0,-1.378050089E0,-1.407000065E0,4.454020553E0
3.602354738E0,3.886950254E0,-2.001000166E0,-1.699050069E0,4.690325690E0
3.604854121E0,4.438050270E0,-2.869950056E0,-1.701000094E0,5.552144166E0
3.607353506E0,4.546050072E0,-3.411000252E0,-1.897950053E0,5.991970325E0
3.609852661E0,4.527000427E0,-3.913050175E0,-2.527050018E0,6.495512015E0
3.612352034E0,5.110950470E0,-4.459050179E0,-2.973000050E0,7.405651389E0
3.614851344E0,7.195950508E0,-5.689950466E0,-1.395000100E0,9.279184517E0
3.617350803E0,9.423000336E0,-6.957000256E0,-4.060500264E-1,1.171996862E1
3.619850113E0,1.071105003E1,-7.627050400E0,2.010000050E-1,1.315062324E1
3.622349496E0,1.153005028E1,-7.287000179E0,7.159500122E-1,1.365851439E1
3.624848651E0,1.331595039E1,-7.500000477E0,1.006049991E0,1.531589627E1
3.627348265E0,1.448895073E1,-9.370050430E0,-5.070000291E-1,1.726223008E1
3.629847421E0,1.537995052E1,-1.074405098E1,-5.980500579E-1,1.877059332E1
3.632346726E0,1.558995056E1,-1.245600033E1,-4.159500301E-1,1.995924641E1
3.634846131E0,1.642304993E1,-1.388505077E1,7.729500532E-1,2.151995947E1
3.637345516E0,1.675395012E1,-1.499100113E1,2.113950014E0,2.258082691E1
3.639844900E0,1.690005112E1,-1.620495033E1,2.820000172E0,2.358314110E1
3.642344056E0,1.640205002E1,-1.671000099E1,3.922050238E0,2.374097420E1
3.644843453E0,1.626495171E1,-1.695705032E1,4.384050369E0,2.390209420E1
3.647342837E0,1.561200047E1,-1.720395088E1,4.752000332E0,2.371269684E1
3.649842147E0,1.427100086E1,-1.692405128E1,6.115050316E0,2.296690702E1
3.652341530E0,1.306695080E1,-1.665299988E1,6.424050331E0,2.212094100E1
3.654840914E0,1.074900055E1,-1.684500122E1,8.586000443E0,2.174889612E1
3.657340051E0,7.929000378E0,-1.755300140E1,1.293105030E1,2.319890013E1
3.659839434E0,5.949000359E0,-1.787595177E1,1.504995060E1,2.411309333E1
3.662338818E0,5.110950470E0,-1.691400146E1,1.644105148E1,2.413531508E1
3.664838203E0,4.749000072E0,-1.550100040E1,1.622504997E1,2.293657040E1
3.667337513E0,4.282050133E0,-1.395705032E1,1.654395103E1,2.206439491E1
3.669836904E0,4.572000027E0,-1.299495029E1,1.644795036E1,2.145476610E1
3.672336060E0,4.962000370E0,-1.243395042E1,1.593600082E1,2.081299337E1
3.674835443E0,5.475000381E0,-1.116600037E1,1.493505096E1,1.943478687E1
3.677334827E0,5.355000019E0,-8.946000099E0,1.481295109E1,1.811437172E1
3.679834212E0,5.122950077E0,-7.987950325E0,1.371405029E1,1.667714434E1
3.682333592E0,4.812000275E0,-8.656050682E0,1.180605030E1,1.540991187E1
3.684832901E0,3.853950262E0,-9.990000725E0,1.175100040E1,1.589776895E1
3.687332284E0,3.538050175E0,-8.994000435E0,1.273695087E1,1.598873855E1
3.689831669E0,3.106950045E0,-8.142000198E0,1.244700050E1,1.519450978E1
3.692331053E0,9.949500561E-1,-4.174050331E0,1.558605099E1,1.616593972E1
3.694830205E0,-3.835050106E0,-6.055950165E0,1.625895119E1,1.776895144E1
3.697329511E0,-2.206950188E0,-1.164900017E1,9.844950676E0,1.541080426E1
3.699828895E0,6.889500618E-1,-1.188900089E1,1.012305069E1,1.563007197E1
3.702328280E0,1.311000109E0,-1.380600071E1,1.077900028E1,1.756448758E1
3.704827665E0,1.456950068E0,-1.621695137E1,7.981950283E0,1.813349789E1
3.707326810E0,1.110000014E0,-1.737405014E1,5.185950279E0,1.816545619E1
3.709826193E0,8.830500245E-1,-1.780695152E1,3.067050219E0,1.809071853E1
3.712325578E0,5.640000105E-1,-1.883895111E1,1.378950119E0,1.889776914E1
3.714824887E0,3.319500089E-1,-1.973895073E1,5.340000391E-1,1.974896257E1
3.717324255E0,1.012050033E0,-1.972005081E1,4.429500103E-1,1.975097096E1
3.719823640E0,2.527950048E0,-1.944000053E1,1.164000034E0,1.963820379E1
3.722323024E0,3.763050079E0,-1.886805153E1,2.470950127E0,1.939766762E1
3.724822180E0,4.960050106E0,-1.814895058E1,4.333050251E0,1.930704091E1
3.727321563E0,6.409050465E0,-1.606605148E1,5.434950352E0,1.813098518E1
3.729820951E0,7.648950577E0,-1.402905083E1,6.136050224E0,1.711641973E1
3.732320261E0,8.053050041E0,-1.245795059E1,7.147050381E0,1.646610085E1
3.734819644E0,8.113050461E0,-1.137900066E1,7.695000172E0,1.595356611E1
3.737319028E0,8.242050171E0,-1.047405052E1,8.521050453E0,1.581914745E1
3.739818394E0,8.146950722E0,-9.340950012E0,9.277950287E0,1.548245829E1
3.742317550E0,7.306050301E0,-8.664000511E0,9.055050850E0,1.450645449E1
3.744816932E0,6.271950245E0,-8.178000450E0,9.366000175E0,1.392619871E1
3.747316317E0,5.701950073E0,-7.756050587E0,9.685050011E0,1.365535606E1
3.749815613E0,5.203950405E0,-7.438050270E0,9.997950554E0,1.350424774E1
3.752314995E0,4.897950172E0,-7.216950417E0,1.028805065E1,1.348770831E1
3.754814151E0,4.744950294E0,-7.107000351E0,1.005600071E1,1.319648277E1
3.757313534E0,4.333050251E0,-6.837000370E0,1.002495003E1,1.288485629E1
3.759812927E0,3.897000074E0,-6.766950130E0,9.957000732E0,1.265385662E1
3.762312237E0,3.777000189E0,-6.696000099E0,9.258000374E0,1.203381563E1
3.764811620E0,3.574050188E0,-6.336000443E0,8.491950035E0,1.118176872E1
3.767311004E0,3.186000109E0,-5.878950119E0,7.980000496E0,1.041119874E1
3.769810379E0,2.800050020E0,-5.463000298E0,7.696950436E0,9.845186559E0
3.772309535E0,2.523000002E0,-4.936050415E0,7.324050426E0,9.185414381E0
3.774808917E0,1.684950113E0,-5.722950459E0,6.451950073E0,8.787427302E0
3.777308302E0,1.065000057E0,-6.862950325E0,6.358950138E0,9.416504614E0
3.779807612E0,1.216050029E0,-6.705000401E0,6.189000130E0,9.205407685E0
3.782306970E0,6.600000262E-1,-8.512949944E0,5.605050087E0,1.021383881E1
3.784806355E0,3.030000031E-1,-9.748050690E0,4.864950180E0,1.089880918E1
3.787305740E0,5.329500437E-1,-1.074405098E1,3.892950296E0,1.144000565E1
3.789804895E0,1.029000044E0,-1.174305058E1,3.472050190E0,1.228874324E1
3.792304278E0,1.648950100E0,-1.235100079E1,3.217950106E0,1.286940013E1
3.794803663E0,2.335950136E0,-1.286100101E1,2.806050062E0,1.336921565E1
3.797302972E0,2.608950138E0,-1.329600048E1,2.002050161E0,1.369665851E1
3.799802355E0,2.484000206E0,-1.363200092E1,1.798050046E0,1.397264077E1
3.802301511E0,2.848050117E0,-1.409100056E1,1.269000053E0,1.443184144E1
3.804801129E0,3.334050179E0,-1.370100021E1,1.080000028E-1,1.410123971E1
3.807300285E0,3.294000149E0,-1.328895092E1,-5.740500093E-1,1.370314515E1
3.809799668E0,3.588000059E0,-1.303305054E1,-1.749000072E0,1.363059617E1
3.812298977E0,4.132050037E0,-1.221900082E1,-2.926950216E0,1.322667214E1
3.814798360E0,5.010000229E0,-1.142595100E1,-3.957000256E0,1.308855644E1
3.817297750E0,5.524950027E0,-1.062000084E1,-4.813950062E0,1.290285262E1
3.819796906E0,6.183000088E0,-1.027500057E1,-5.101050377E0,1.303172444E1
3.822296288E0,6.564000130E0,-9.822000504E0,-5.548950195E0,1.305176769E1
3.824795673E0,6.828000546E0,-9.472949982E0,-5.995950222E0,1.312668244E1
3.827295057E0,6.859050274E0,-8.944050789E0,-5.770950317E0,1.266279917E1
3.829794362E0,7.198950291E0,-8.446050644E0,-5.913000107E0,1.257474561E1
3.832293745E0,7.111950397E0,-8.458050728E0,-5.335950375E0,1.227154542E1
3.834793129E0,6.817950249E0,-8.613000870E0,-4.215000153E0,1.176581726E1
3.837292285E0,6.382050514E0,-9.034950256E0,-3.408000231E0,1.157477259E1
3.839791673E0,6.102000237E0,-9.267000198E0,-2.736000061E0,1.142792177E1
3.842291057E0,6.472950459E0,-9.942000389E0,-2.359950066E0,1.209594245E1
3.844790367E0,7.500000477E0,-9.609000206E0,7.180500627E-1,1.221058918E1
3.847289750E0,7.273050308E0,-9.171000481E0,4.980000257E-1,1.171548184E1
3.849789134E0,6.174000263E0,-9.139950752E0,3.060000241E-1,1.103406611E1
3.852288514E0,5.785950184E0,-8.929050446E0,7.110000253E-1,1.066352111E1
3.854787670E0,5.683050156E0,-9.102000237E0,6.610500216E-1,1.075083506E1
3.857287053E0,5.697000504E0,-9.418050766E0,6.010500193E-1,1.102346389E1
3.859786362E0,5.997000217E0,-9.609000206E0,6.199500561E-1,1.134377515E1
3.862285745E0,6.331950188E0,-9.789000511E0,3.970500231E-1,1.166515207E1
3.864785134E0,6.531000137E0,-9.145050049E0,2.269500047E-1,1.123999153E1
3.867284519E0,6.528000355E0,-8.560950279E0,4.305000231E-2,1.076598865E1
3.869783675E0,6.222000122E0,-8.343000412E0,-3.220500052E-1,1.041262011E1
3.872283058E0,6.082950115E0,-7.738950253E0,-4.590000212E-1,9.854152127E0
3.874782442E0,5.772000313E0,-7.000050545E0,-6.409500241E-1,9.095466573E0
3.877281832E0,5.584950447E0,-6.553950310E0,-9.610500336E-1,8.664268770E0
3.879781141E0,5.980050087E0,-6.295950413E0,-4.540500343E-1,8.695179819E0
3.882280524E0,6.259950161E0,-6.145050526E0,-3.299999982E-2,8.772098437E0
3.884779680E0,6.030000210E0,-6.099000454E0,-1.519500017E-1,8.577983322E0
3.887279293E0,6.160050392E0,-5.806950092E0,3.709500134E-1,8.473753249E0
3.889778468E0,6.468000412E0,-5.248950481E0,1.530000091E0,8.469203668E0
3.892277851E0,6.346050262E0,-4.792050362E0,1.606050134E0,8.112675122E0
3.894777161E0,5.319000244E0,-3.834000111E0,6.079500318E-1,6.584901190E0
3.897276543E0,3.112050056E0,-3.042000055E0,-3.933000088E0,5.865757375E0
3.899775937E0,2.524950027E0,-2.391000032E0,-4.693950176E0,5.841696847E0
3.902275093E0,3.100050211E0,-3.400950193E0,-4.725000381E0,6.595635082E0
3.904774475E0,4.033050060E0,-4.294050217E0,-3.856050253E0,7.040843955E0
3.907273860E0,4.126950264E0,-5.086950302E0,-3.540000200E0,7.445829925E0
3.909773244E0,4.021950245E0,-5.695050240E0,-3.418050051E0,7.764840446E0
3.912272569E0,3.928050280E0,-6.415050507E0,-3.078000069E0,8.127517236E0
3.914771952E0,4.077000141E0,-7.255950451E0,-2.709000111E0,8.752681229E0
3.917271336E0,5.044050217E0,-7.629000187E0,-1.426050067E0,9.256225215E0
3.919770492E0,5.317050457E0,-1.018395042E1,-7.240500450E-1,1.151121715E1
3.922269875E0,5.187000275E0,-1.095195007E1,6.180000305E-1,1.213392378E1
3.924769250E0,4.953000069E0,-1.076100063E1,2.131050110E0,1.203630836E1
3.927268634E0,4.789950371E0,-1.014600086E1,3.643950224E0,1.179675088E1
3.929767944E0,4.303950310E0,-9.616050720E0,4.530000210E0,1.146792578E1
3.932267326E0,4.014000416E0,-8.914950371E0,4.815000057E0,1.089829184E1
3.934766721E0,3.373050213E0,-8.488950729E0,4.377000332E0,1.012906136E1
3.937265877E0,2.884050131E0,-8.082000732E0,3.859050274E0,9.408971783E0
3.939765260E0,2.614050150E0,-7.975950241E0,4.015050411E0,9.304282360E0
3.942264569E0,2.398050070E0,-7.753950596E0,4.468050003E0,9.264872628E0
3.944764029E0,1.861950040E0,-7.750950336E0,4.360050201E0,9.085930158E0
3.947263338E0,1.431000113E0,-7.993050575E0,4.434000015E0,9.251863324E0
3.949762492E0,9.780000448E-1,-8.473950386E0,4.570950031E0,9.677701350E0
3.952261875E0,4.690500200E-1,-9.004050255E0,4.410000324E0,1.003698320E1
3.954761260E0,4.230000079E-1,-9.195000648E0,4.423950195E0,1.021265398E1
3.957260644E0,6.979500055E-1,-9.268950462E0,4.993950367E0,1.055178265E1
3.959759963E0,7.219500542E-1,-9.231000900E0,5.631000042E0,1.083700840E1
3.962259346E0,8.200500607E-1,-9.063000679E0,5.811000347E0,1.079713797E1
3.964758730E0,1.192050099E0,-8.845950127E0,5.875050068E0,1.068587995E1
3.967257886E0,1.608000040E0,-8.731050491E0,5.962050438E0,1.069406154E1
3.969757269E0,1.857000113E0,-8.817000389E0,5.713050365E0,1.066896854E1
3.972256649E0,1.837950110E0,-9.147000313E0,5.614050388E0,1.088867472E1
3.974756034E0,1.555050015E0,-9.589950562E0,5.446950436E0,1.113798013E1
3.977255344E0,1.618050098E0,-9.822000504E0,5.464050293E0,1.135542274E1
3.979754726E0,1.644000053E0,-9.882000923E0,5.784000397E0,1.156768512E1
3.982254111E0,2.143949986E0,-9.805950165E0,5.772000313E0,1.157882411E1
3.984753257E0,3.175950050E0,-9.363000870E0,5.968950272E0,1.154906106E1
3.987252639E0,3.805950165E0,-8.814000130E0,6.012000084E0,1.132766525E1
3.989752024E0,4.558050156E0,-8.380949974E0,6.442950249E0,1.151206982E1
3.992251409E0,5.190000057E0,-8.230050087E0,6.732000351E0,1.183172235E1
3.994750718E0,5.251950264E0,-8.395050049E0,6.385050297E0,1.178255975E1
3.997250106E0,5.097000122E0,-8.665950775E0,5.788950443E0,1.160129563E1
3.999749262E0,5.107950211E0,-8.937000275E0,5.344050407E0,1.159827591E1
4.002248644E0,5.532000065E0,-9.010950089E0,4.626000404E0,1.154123589E1
4.004748029E0,5.791050434E0,-9.223950386E0,4.029000282E0,1.161250917E1
4.007247310E0,5.578050137E0,-9.676050186E0,3.481050253E0,1.169864528E1
4.009746692E0,5.404950142E0,-1.019295025E1,2.932950258E0,1.190428150E1
4.012246077E0,7.081050396E0,-8.623050690E0,2.538000107E0,1.144288960E1
4.014745233E0,8.752050400E0,-6.075000286E0,7.300500274E-1,1.067881022E1
4.017244615E0,8.178000450E0,-5.347950459E0,-2.494050026E0,1.008466911E1
4.019743996E0,6.781950474E0,-6.400950432E0,-3.154950142E0,9.844832607E0
4.022243381E0,5.137050152E0,-7.306050301E0,-2.484000206E0,9.270270346E0
4.024742690E0,4.110000134E0,-8.857950211E0,-1.111950040E0,9.828113548E0
4.027242073E0,4.828050137E0,-9.169050217E0,2.539499998E-1,1.036561820E1
4.029741462E0,6.322050095E0,-8.755050659E0,7.159500122E-1,1.082274521E1
4.032240617E0,7.909950256E0,-8.314050674E0,1.602000117E0,1.158693903E1
4.034740000E0,8.386050224E0,-9.396000862E0,2.286000013E0,1.279986198E1
4.037239385E0,9.022950172E0,-9.232950211E0,1.969950080E0,1.305916164E1
4.039738769E0,1.004805088E1,-9.514050484E0,2.422950029E0,1.404817319E1
4.042238070E0,1.051905060E1,-9.715050697E0,2.619000196E0,1.455650362E1
4.044737453E0,1.147500038E1,-1.001895046E1,2.446950197E0,1.542862818E1
4.047236608E0,1.140000057E1,-1.111995029E1,2.533050060E0,1.612543488E1
4.049735991E0,1.166595078E1,-1.148595047E1,2.569050074E0,1.657170733E1
4.052235385E0,1.229295063E1,-1.200795078E1,2.020950079E0,1.730294069E1
4.054734769E0,1.223100090E1,-1.275300026E1,2.111999989E0,1.779598108E1
4.057234079E0,1.276500034E1,-1.264995098E1,2.542950153E0,1.815029171E1
4.059733462E0,1.368705082E1,-1.252995014E1,2.983050108E0,1.879450980E1
4.062232860E0,1.403595066E1,-1.268595028E1,3.390000105E0,1.922064895E1
4.064732016E0,1.459200096E1,-1.282695103E1,3.984000206E0,1.983253444E1
4.067231399E0,1.467795086E1,-1.286100101E1,4.165950298E0,1.995501768E1
4.069730783E0,1.461105061E1,-1.301595020E1,3.985950232E0,1.996961589E1
4.072230093E0,1.462800026E1,-1.336305046E1,4.590000153E0,2.033759107E1
4.074729548E0,1.475205040E1,-1.346895027E1,4.024950027E0,2.037733631E1
4.077228857E0,1.461795044E1,-1.359600067E1,3.831000090E0,2.032762335E1
4.079728240E0,1.432605076E1,-1.344705105E1,3.559950113E0,1.996827877E1
4.082227396E0,1.359600067E1,-1.351695061E1,3.469050169E0,1.948315932E1
4.084726778E0,1.318695068E1,-1.339695072E1,2.947050095E0,1.902784962E1
4.087226163E0,1.276005077E1,-1.281000042E1,2.133000135E0,1.820617192E1
4.089725473E0,1.218105030E1,-1.247295094E1,1.611000061E0,1.750850687E1
4.092224855E0,1.160205078E1,-1.230300045E1,9.340500236E-1,1.693646515E1
4.094724240E0,1.100805092E1,-1.222905064E1,5.770500302E-1,1.646389538E1
4.097223406E0,1.023705006E1,-1.209195042E1,1.560000032E-1,1.584414071E1
4.099722788E0,9.628950119E0,-1.207305050E1,-2.740500271E-1,1.544507469E1
4.102222173E0,9.202950478E0,-1.194600010E1,-4.849500358E-1,1.508762382E1
4.104721483E0,8.518050194E0,-1.203495026E1,-9.349500537E-1,1.477400888E1
4.107220875E0,7.926000595E0,-1.225200081E1,-1.207950115E0,1.464213621E1
4.109720260E0,7.366050243E0,-1.246605015E1,-1.291950107E0,1.453720185E1
4.112219645E0,7.500000477E0,-1.250400066E1,-1.105050087E0,1.462262546E1
4.114718800E0,7.333050251E0,-1.239900017E1,-7.990500331E-1,1.442731133E1
4.117218187E0,7.584000587E0,-1.242705059E1,-6.720000505E-1,1.457395744E1
4.119717572E0,7.306050301E0,-1.243200016E1,-4.110000134E-1,1.442573811E1
4.122216956E0,7.467000484E0,-1.228395081E1,-3.289500177E-1,1.437914294E1
4.124716266E0,6.841950417E0,-1.227900028E1,-4.200000167E-1,1.406280674E1
4.127215649E0,6.265050411E0,-1.239105034E1,-6.550500393E-1,1.390029049E1
4.129714809E0,5.772000313E0,-1.229295063E1,-7.530000210E-1,1.360145697E1
4.132214192E0,5.559000492E0,-1.211100101E1,-7.630500197E-1,1.334769933E1
4.134713577E0,4.986000061E0,-1.200300026E1,-7.009500265E-1,1.301627991E1
4.137212961E0,4.912050247E0,-1.194105053E1,-6.169500351E-1,1.292662186E1
4.139712271E0,4.459950447E0,-1.188405037E1,-3.820500076E-1,1.269912491E1
4.142211654E0,3.946950197E0,-1.167795086E1,-6.000000052E-3,1.232692128E1
4.144711038E0,3.600000143E0,-1.134495068E1,4.140000343E-1,1.190963068E1
4.147210194E0,3.463950157E0,-1.095000076E1,7.570500374E-1,1.150976073E1
4.149709577E0,3.217050076E0,-1.069395065E1,8.760000467E-1,1.120166808E1
4.152208961E0,3.034950256E0,-1.036605072E1,1.048950076E0,1.085201488E1
4.154708300E0,2.947050095E0,-1.006905079E1,1.101000071E0,1.054908002E1
4.157207683E0,2.925000191E0,-9.769950867E0,9.739500284E-1,1.024481062E1
4.159707067E0,2.737950087E0,-9.544950485E0,8.710500598E-1,9.968007757E0
4.162206223E0,2.416950226E0,-9.717000008E0,2.899500132E-1,1.001727551E1
4.164705620E0,2.218950033E0,-9.597000122E0,2.470500171E-1,9.853282920E0
4.167204929E0,1.855050087E0,-9.673950195E0,-2.295000106E-2,9.850230957E0
4.169704389E0,1.630050063E0,-9.685950279E0,-1.500000060E-1,9.823298632E0
4.172203699E0,1.273050070E0,-9.834000587E0,-3.370500207E-1,9.921785462E0
4.174703081E0,1.186950088E0,-9.856050491E0,-3.730500042E-1,9.934271393E0
4.177202466E0,1.072050095E0,-9.952050209E0,-3.799500167E-1,1.001683367E1
