"Time (s)","Acceleration x (m/s^2)","Acceleration y (m/s^2)","Acceleration z (m/s^2)","Absolute acceleration (m/s^2)"
8.093185000E-3,-2.143949986E0,3.460950136E0,6.222000122E0,7.435588941E0
1.059073300E-2,-1.954950094E0,3.444000244E0,6.358950138E0,7.491275887E0
1.308927100E-2,-1.810950041E0,3.400950193E0,6.529050350E0,7.581193886E0
1.558773300E-2,-1.636950135E0,3.262050152E0,6.655050278E0,7.590143025E0
1.808619500E-2,-1.549950123E0,3.175950050E0,6.864000320E0,7.720330596E0
2.058465600E-2,-1.531050086E0,3.169050217E0,7.149000168E0,7.968387355E0
2.308309900E-2,-1.534050107E0,3.193050146E0,7.431000233E0,8.232171246E0
2.558178900E-2,-1.507050037E0,3.163950205E0,7.683000565E0,8.444541337E0
2.808025200E-2,-1.423950076E0,3.118950129E0,7.857000351E0,8.572510615E0
3.057871400E-2,-1.270050049E0,3.064050198E0,7.993950367E0,8.654748593E0
3.307717600E-2,-1.167000055E0,2.908050060E0,8.116050720E0,8.699938136E0
3.557571200E-2,-1.048050046E0,2.820000172E0,8.250000000E0,8.781418443E0
3.807417600E-2,-9.090000391E-1,2.748000145E0,8.367000580E0,8.853501261E0
4.057263700E-2,-8.899500370E-1,2.571000099E0,8.401050568E0,8.830611713E0
4.307109900E-2,-8.730000257E-1,2.488950014E0,8.422050476E0,8.825414179E0
4.556957900E-2,-8.749500513E-1,2.392950058E0,8.500950813E0,8.874565471E0
4.806827000E-2,-9.420000315E-1,2.286000013E0,8.485050201E0,8.837943032E0
5.056673300E-2,-9.570000172E-1,2.230950117E0,8.506050110E0,8.845669897E0
5.306519500E-2,-7.050000429E-1,2.403000116E0,8.497050285E0,8.858402687E0
5.556373100E-2,-7.600500584E-1,2.401050091E0,8.503950119E0,8.869040831E0
5.806219500E-2,-9.349500537E-1,2.317050219E0,8.491950035E0,8.851896335E0
6.056065600E-2,-9.349500537E-1,2.319000006E0,8.449049950E0,8.811261980E0
6.305934600E-2,-9.450000525E-1,2.371950150E0,8.367000580E0,8.747906682E0
6.555757900E-2,-9.300000668E-1,2.403000116E0,8.311950684E0,8.702174088E0
6.805627000E-2,-9.139500260E-1,2.476950169E0,8.275950432E0,8.686883350E0
7.055472800E-2,-8.800500631E-1,2.508000135E0,8.239950180E0,8.658021238E0
7.305319000E-2,-8.200500607E-1,2.587050200E0,8.266950607E0,8.701021962E0
7.555172600E-2,-7.560000420E-1,2.653950214E0,8.266950607E0,8.715357718E0
7.805019000E-2,-6.979500055E-1,2.773950100E0,8.209050179E0,8.693125917E0
8.054865100E-2,-6.409500241E-1,2.848050117E0,8.202000618E0,8.706033571E0
8.304711800E-2,-6.000000238E-1,2.929950237E0,8.097000122E0,8.631686938E0
8.554557900E-2,-5.659500360E-1,2.962950230E0,8.013000488E0,8.561982850E0
8.804427000E-2,-4.369500279E-1,3.010950089E0,7.924050331E0,8.488069239E0
9.054273300E-2,-2.980500162E-1,3.115950108E0,7.797000408E0,8.401856595E0
9.304119500E-2,-1.590000093E-1,3.217050076E0,7.714050293E0,8.359501427E0
9.553966100E-2,-1.800000109E-2,3.331950188E0,7.603950500E0,8.301944306E0
9.803819800E-2,1.339500099E-1,3.456000090E0,7.558050156E0,8.311798926E0
1.005366610E-1,2.710500062E-1,3.567000151E0,7.477050304E0,8.288741728E0
1.030351230E-1,3.970500231E-1,3.717000246E0,7.438050270E0,8.324561933E0
1.055335840E-1,5.119500160E-1,3.862950087E0,7.456950188E0,8.413713942E0
1.080322700E-1,6.060000062E-1,3.990000248E0,7.495950222E0,8.513319430E0
1.105307330E-1,5.959500074E-1,4.122000217E0,7.510050297E0,8.587601392E0
1.130291950E-1,5.910000205E-1,4.219950199E0,7.576950550E0,8.692953488E0
1.155276560E-1,5.340000391E-1,4.314000130E0,7.611000538E0,8.764877771E0
1.180261880E-1,4.690500200E-1,4.416000366E0,7.623000145E0,8.822199180E0
1.205245740E-1,3.930000067E-1,4.480950356E0,7.606050491E0,8.836592622E0
1.230231110E-1,2.490000129E-1,4.576950073E0,7.572000504E0,8.851308638E0
1.255215740E-1,4.995000362E-2,4.632000446E0,7.567950249E0,8.873093829E0
1.280200360E-1,-1.789500117E-1,4.656000137E0,7.564950466E0,8.884753004E0
1.305187350E-1,-3.730500042E-1,4.761000156E0,7.540950298E0,8.925929654E0
1.330171990E-1,-5.310000181E-1,4.879050255E0,7.540950298E0,8.997389833E0
1.355156600E-1,-6.790500283E-1,4.972050190E0,7.546050549E0,9.062299428E0
1.380141970E-1,-8.080500364E-1,5.032050133E0,7.548000336E0,9.107512419E0
1.405126600E-1,-8.779500127E-1,5.116050243E0,7.564950466E0,9.174597641E0
1.430111270E-1,-9.259500504E-1,5.194950104E0,7.588950157E0,9.243216678E0
1.455095880E-1,-9.229500294E-1,5.286000252E0,7.659000397E0,9.351680196E0
1.480080500E-1,-9.379500151E-1,5.326050282E0,7.692000389E0,9.402841688E0
1.505067400E-1,-9.900000691E-1,5.368950367E0,7.797000408E0,9.518347732E0
1.530052040E-1,-1.033050060E0,5.368950367E0,7.920000553E0,9.623888467E0
1.555036650E-1,-1.050000072E0,5.398050308E0,8.061000824E0,9.758134123E0
1.580021270E-1,-1.030950069E0,5.403000355E0,8.202000618E0,9.875630867E0
1.605006630E-1,-9.810000658E-1,5.403000355E0,8.221050262E0,9.886376555E0
1.629991270E-1,-8.869500160E-1,5.416950226E0,8.226000786E0,9.889242590E0
1.654976070E-1,-7.440000176E-1,5.436000347E0,8.212050438E0,9.876305392E0
1.679960690E-1,-6.499500275E-1,5.439000130E0,8.311950684E0,9.954580936E0
1.704945310E-1,-5.110500455E-1,5.407950401E0,8.713950157E0,1.026839944E1
1.729932210E-1,-3.439500034E-1,5.338050365E0,8.938950539E0,1.041719348E1
1.754916930E-1,-1.999500096E-1,5.274000168E0,8.997000694E0,1.043077558E1
1.779901550E-1,-4.500000179E-2,5.197050095E0,8.917950630E0,1.032187958E1
1.804886910E-1,8.100000024E-2,5.137050152E0,8.893950462E0,1.027123167E1
1.829871550E-1,1.870500147E-1,5.017050266E0,8.743050575E0,1.008199953E1
1.854856170E-1,-3.299999982E-2,4.749000072E0,9.496950150E0,1.061819913E1
1.879840870E-1,-2.190000117E-1,4.539000034E0,1.010805035E1,1.108256126E1
1.904825490E-1,-7.995000482E-2,4.548000336E0,1.012200069E1,1.109709859E1
1.929812390E-1,3.019500077E-1,4.620000362E0,9.727050781E0,1.077270134E1
1.954797020E-1,5.770500302E-1,4.651050091E0,9.588000298E0,1.067216020E1
1.979781640E-1,4.860000312E-1,4.503000259E0,9.825000763E0,1.081868048E1
2.004766130E-1,2.490000129E-1,4.327950001E0,1.018905067E1,1.107293574E1
2.029750740E-1,0.000000000E0,4.114950180E0,1.026105022E1,1.105540441E1
2.054736110E-1,-1.330500096E-1,3.988050222E0,1.018200016E1,1.093596700E1
2.079720740E-1,-2.860500216E-1,3.856050253E0,1.015800095E1,1.086903544E1
2.104705360E-1,-3.250500262E-1,3.792000294E0,1.013400078E1,1.082510487E1
2.129692540E-1,-2.620500028E-1,3.757950068E0,1.016505051E1,1.084062317E1
2.154677180E-1,-2.260500044E-1,3.732000113E0,1.024695015E1,1.090774545E1
2.179661790E-1,-1.879500151E-1,3.739050150E0,1.040700054E1,1.105990423E1
2.204646410E-1,-6.105000153E-2,3.813000202E0,1.062705040E1,1.129056676E1
2.229631770E-1,1.150500029E-1,3.906000137E0,1.078995037E1,1.147576153E1
2.254616600E-1,3.540000021E-1,4.048050404E0,1.096995068E1,1.169836937E1
2.279601210E-1,6.319500208E-1,4.186950207E0,1.102500057E1,1.181018842E1
2.304585830E-1,1.009950042E0,4.408950329E0,1.125000095E1,1.212523664E1
2.329570440E-1,1.360050082E0,4.564949989E0,1.156395054E1,1.250653656E1
2.354557350E-1,1.723950028E0,4.800000191E0,1.161405087E1,1.268456476E1
2.379541880E-1,2.100000143E0,4.974000454E0,1.173105049E1,1.291387729E1
2.404526500E-1,2.434950113E0,5.056050301E0,1.172595024E1,1.299963599E1
2.429511860E-1,2.799000025E0,5.191950321E0,1.175295067E1,1.315000375E1
2.454495730E-1,3.151050091E0,5.286000252E0,1.165200043E1,1.317725424E1
2.479481000E-1,3.318000078E0,5.281050205E0,1.153500080E1,1.311315596E1
2.504465640E-1,3.364050150E0,5.190000057E0,1.142505074E1,1.299171730E1
2.529450250E-1,3.262950182E0,5.061000347E0,1.127895069E1,1.278574586E1
2.554437160E-1,3.024000168E0,4.906949997E0,1.122405052E1,1.261752929E1
2.579421790E-1,2.824950218E0,4.807050228E0,1.134105015E1,1.263754304E1
2.604406310E-1,2.698050022E0,4.821000099E0,1.162305069E1,1.286921999E1
2.629390920E-1,2.629050016E0,4.936050415E0,1.194405079E1,1.318851193E1
2.654376290E-1,2.377050161E0,5.221050262E0,1.219995022E1,1.348141382E1
2.679360920E-1,1.851000071E0,5.503050327E0,1.225995064E1,1.356525539E1
2.704345540E-1,1.207050085E0,5.805000305E0,1.222695065E1,1.358872034E1
2.729330100E-1,5.770500302E-1,6.109050274E0,1.218105030E1,1.363933534E1
2.754317010E-1,6.195000187E-2,6.399000168E0,1.222200012E1,1.379595332E1
2.779301640E-1,-3.079500198E-1,6.655050278E0,1.219305038E1,1.389442353E1
2.804286260E-1,-4.279500246E-1,7.108050346E0,1.194705009E1,1.390825391E1
2.829270820E-1,-4.039500058E-1,7.366050243E0,1.174800014E1,1.387218005E1
2.854255440E-1,-3.169500232E-1,7.510050297E0,1.164000034E1,1.385607884E1
2.879240800E-1,-7.605000585E-2,7.561950207E0,1.145805073E1,1.372864891E1
2.904225440E-1,2.010000050E-1,7.588950157E0,1.120695019E1,1.353618477E1
2.929210050E-1,4.639500082E-1,7.591050148E0,1.090800095E1,1.329751017E1
2.954194670E-1,7.660500407E-1,7.633950233E0,1.064205074E1,1.311934727E1
2.979181570E-1,1.060950041E0,7.656000137E0,1.039305019E1,1.295204406E1
3.004166210E-1,1.269000053E0,7.708050251E0,1.016505051E1,1.282000981E1
3.029150820E-1,1.410000086E0,7.741950512E0,9.924000740E0,1.266537361E1
3.054136060E-1,1.459950089E0,7.797000408E0,9.664950371E0,1.250343694E1
3.079119920E-1,1.420050025E0,7.845000267E0,9.406050682E0,1.233022144E1
3.104105290E-1,1.336050034E0,7.894950390E0,9.136050224E0,1.214836141E1
3.129089920E-1,1.175999999E0,7.924050331E0,8.872050285E0,1.195352776E1
3.154074540E-1,1.278000116E0,7.996050358E0,8.611050606E0,1.182033410E1
3.179061570E-1,1.144050002E0,8.035950661E0,8.386050224E0,1.167095505E1
3.204046210E-1,9.960000515E-1,8.038949966E0,8.215950012E0,1.153770199E1
3.229030820E-1,8.280000687E-1,8.017050743E0,8.157000542E0,1.146714195E1
3.254016190E-1,7.110000253E-1,7.941000462E0,8.164050102E0,1.141125424E1
3.279000050E-1,5.580000281E-1,7.867050171E0,8.190000534E0,1.137004623E1
3.303985420E-1,3.330000043E-1,7.771050453E0,8.272050858E0,1.135459993E1
3.328970050E-1,1.290000081E-1,7.704000473E0,8.367000580E0,1.137431154E1
3.353954670E-1,-1.429500133E-1,7.585950375E0,8.530050278E0,1.141616554E1
3.378941570E-1,-4.590000212E-1,7.483050346E0,8.656949997E0,1.145205251E1
3.403926170E-1,-7.129500508E-1,7.515000343E0,8.674050331E0,1.149881199E1
3.428910780E-1,-9.259500504E-1,7.603050232E0,8.713950157E0,1.160158108E1
3.453895400E-1,-1.138950109E0,7.576950550E0,8.884050369E0,1.173174062E1
3.478880760E-1,-1.359000087E0,7.414050579E0,9.232050896E0,1.191829648E1
3.503865400E-1,-1.561950088E0,7.126950264E0,9.505050659E0,1.198244951E1
3.528849920E-1,-1.816050053E0,6.717000484E0,9.780000687E0,1.200268915E1
3.553834530E-1,-1.996050119E0,6.267000198E0,1.001895046E1,1.198494372E1
3.578819150E-1,-2.206050158E0,5.878950119E0,1.008900070E1,1.188346107E1
3.603803760E-1,-2.383949995E0,5.532000065E0,1.017000008E1,1.182011607E1
3.628790660E-1,-2.539050102E0,5.173050404E0,1.023495007E1,1.174569831E1
3.653775250E-1,-2.724000216E0,4.855050087E0,1.019595051E1,1.161675924E1
3.678759870E-1,-2.877000093E0,4.504950047E0,1.012005043E1,1.144496069E1
3.703744480E-1,-2.970000029E0,4.157999992E0,1.003605080E1,1.126197939E1
3.728729850E-1,-3.066000223E0,3.871050119E0,9.925950050E0,1.108647242E1
3.753714480E-1,-3.091950178E0,3.598050117E0,9.805950165E0,1.089324466E1
3.778698960E-1,-3.169050217E0,3.351000071E0,9.640950203E0,1.068737580E1
3.803685860E-1,-3.315000057E0,3.195000172E0,9.411000252E0,1.047684004E1
3.828670500E-1,-3.315000057E0,3.121050119E0,9.138000488E0,1.020946777E1
3.853655110E-1,-3.226050138E0,3.040050030E0,8.880000114E0,9.924903310E0
3.878640480E-1,-3.187950134E0,2.982000113E0,8.566050529E0,9.614185998E0
3.903624340E-1,-3.253050089E0,2.965950251E0,8.272050858E0,9.370486709E0
3.928609710E-1,-3.181050062E0,2.994000196E0,8.011050224E0,9.124694097E0
3.953594340E-1,-3.043950081E0,3.082950115E0,7.840950489E0,8.958276513E0
3.978578960E-1,-2.929950237E0,3.148050070E0,7.675050259E0,8.797796548E0
4.003565810E-1,-2.839050055E0,3.226950169E0,7.572000504E0,8.706813667E0
4.028548140E-1,-2.676000118E0,3.301050186E0,7.528950214E0,8.645403420E0
4.053535040E-1,-2.563050032E0,3.385050058E0,7.515000343E0,8.631513165E0
4.078519680E-1,-2.380950212E0,3.454050064E0,7.515000343E0,8.606661137E0
4.103504290E-1,-2.271000147E0,3.538050175E0,7.504950523E0,8.602297546E0
4.128489420E-1,-2.106000185E0,3.568950176E0,7.548000336E0,8.610746263E0
4.153474050E-1,-1.974000096E0,3.610050201E0,7.630050182E0,8.668725663E0
4.178458670E-1,-1.798950076E0,3.601950169E0,7.666050434E0,8.659018169E0
4.203445570E-1,-1.629000068E0,3.574050188E0,7.735050201E0,8.675164413E0
4.228430250E-1,-1.558050036E0,3.540000200E0,7.848000526E0,8.749299035E0
4.253414860E-1,-1.435950041E0,3.514050245E0,7.999050617E0,8.854112741E0
4.278399480E-1,-1.287000060E0,3.466050148E0,8.145000458E0,8.944881511E0
4.303384090E-1,-1.108050108E0,3.444000244E0,8.251950264E0,9.010193998E0
4.328368710E-1,-9.400500655E-1,3.382050276E0,8.307000160E0,9.018215447E0
4.353354220E-1,-8.029500246E-1,3.358050108E0,8.274000168E0,8.965506569E0
4.378338860E-1,-6.480000019E-1,3.327000141E0,8.236050606E0,8.906254180E0
4.403323470E-1,-5.040000081E-1,3.282000065E0,8.206950188E0,8.853223809E0
4.428308090E-1,-3.990000188E-1,3.271950245E0,8.185050011E0,8.823825876E0
4.453295040E-1,-2.190000117E-1,3.265050173E0,8.158950806E0,8.790733296E0
4.478279680E-1,-7.304999977E-2,3.238950253E0,8.085000038E0,8.709957558E0
4.503265040E-1,3.105000220E-2,3.229050159E0,7.966950417E0,8.596512547E0
4.528248910E-1,1.219500080E-1,3.207000256E0,7.837950230E0,8.469544630E0
4.553234270E-1,1.579500139E-1,3.145050049E0,7.740000248E0,8.356069163E0
4.578219100E-1,1.360500008E-1,3.121050119E0,7.543950558E0,8.165209946E0
4.603203710E-1,4.995000362E-2,3.090000153E0,7.362000465E0,7.984337593E0
4.628190620E-1,3.600000218E-2,3.082950115E0,7.207950115E0,7.839669781E0
4.653172950E-1,-2.505000122E-2,3.079950094E0,7.054950237E0,7.697989539E0
4.678159940E-1,-1.069500074E-1,3.088050127E0,6.883050442E0,7.544791268E0
4.703144570E-1,-2.170500159E-1,3.085050106E0,6.754050255E0,7.428448001E0
4.728129190E-1,-3.130500019E-1,3.073050261E0,6.598050117E0,7.285321102E0
4.753114550E-1,-3.529500067E-1,3.057000160E0,6.493050098E0,7.185368694E0
4.778099100E-1,-4.009500146E-1,3.042000055E0,6.351000309E0,7.053348862E0
4.803083710E-1,-4.969500303E-1,2.965950251E0,6.198000431E0,6.889051427E0
4.828070620E-1,-6.100500226E-1,2.902950048E0,6.076050282E0,6.761484085E0
4.853052950E-1,-7.080000043E-1,2.824050188E0,5.956050396E0,6.629559547E0
4.878039850E-1,-8.149500489E-1,2.745000124E0,5.845950127E0,6.509554681E0
4.903024670E-1,-8.350500464E-1,2.644950151E0,5.679000378E0,6.320135693E0
4.928009290E-1,-8.629500270E-1,2.551050186E0,5.499000072E0,6.123033692E0
4.952994650E-1,-9.469500184E-1,2.460000038E0,5.343000412E0,5.957849270E0
4.977979290E-1,-1.045050025E0,2.359950066E0,5.161050320E0,5.770436229E0
5.002963910E-1,-1.198950052E0,2.287950039E0,5.116050243E0,5.731157536E0
5.027948470E-1,-1.348950028E0,2.218950033E0,5.101950169E0,5.724797023E0
5.052933090E-1,-1.432950020E0,2.158950090E0,5.238000393E0,5.843890773E0
5.077919990E-1,-1.711050034E0,2.092050076E0,5.401050091E0,6.039512217E0
5.102904620E-1,-1.869000077E0,2.092050076E0,5.604000092E0,6.266949165E0
5.127889240E-1,-1.924050093E0,2.049000025E0,5.734050274E0,6.385898715E0
5.152873810E-1,-1.998000145E0,1.981950045E0,5.983050346E0,6.611884906E0
5.177859170E-1,-2.032050133E0,1.879050136E0,6.090000153E0,6.689406477E0
5.202843810E-1,-2.182950020E0,1.945950150E0,6.450000286E0,7.081983936E0
5.227828420E-1,-2.191950083E0,1.891050100E0,6.627000332E0,7.231725178E0
5.252815320E-1,-1.966950059E0,1.816050053E0,6.778050423E0,7.287585187E0
5.277799960E-1,-1.804050088E0,1.771050096E0,6.955050468E0,7.400266359E0
5.302784580E-1,-1.681950092E0,1.737000108E0,6.985950470E0,7.392538769E0
5.327769940E-1,-1.471050024E0,1.720950127E0,7.126950264E0,7.477905962E0
5.352753810E-1,-1.146000028E0,1.747050047E0,7.338000298E0,7.629662397E0
5.377739170E-1,-9.730500579E-1,1.753950119E0,7.398000240E0,7.665088062E0
5.402723810E-1,-9.210000634E-1,1.800000072E0,7.417050362E0,7.687709506E0
5.427708420E-1,-6.289500594E-1,1.869000077E0,7.419000149E0,7.676607498E0
5.452693040E-1,-3.439500034E-1,1.993950129E0,7.684950352E0,7.946861055E0
5.477680080E-1,-1.069500074E-1,2.061000109E0,8.125050545E0,8.383054700E0
5.502664720E-1,2.370000184E-1,2.167950153E0,8.391000748E0,8.669779145E0
5.527649330E-1,6.180000305E-1,2.275950193E0,8.446050644E0,8.769130219E0
5.552633950E-1,9.859500527E-1,2.392950058E0,8.427000046E0,8.815477143E0
5.577619310E-1,1.305000067E0,2.496000051E0,8.355000496E0,8.816976507E0
5.602603960E-1,1.578000069E0,2.575050116E0,8.260050774E0,8.794851113E0
5.627588570E-1,1.786050081E0,2.689950228E0,8.142000198E0,8.758879743E0
5.652575480E-1,2.059050083E0,2.721000195E0,8.026950836E0,8.722125259E0
5.677557800E-1,2.344050169E0,2.743050098E0,7.893000603E0,8.678614725E0
5.702544700E-1,2.380050182E0,2.745000124E0,7.639050484E0,8.459004483E0
5.727529330E-1,2.180999994E0,2.793000221E0,7.285050392E0,8.101207961E0
5.752513950E-1,1.954050064E0,2.853000164E0,7.027050495E0,7.831817174E0
5.777499310E-1,1.810050130E0,2.848050117E0,6.933000565E0,7.710652876E0
5.802483950E-1,1.798050046E0,2.853000164E0,6.924000263E0,7.701582535E0
5.827468470E-1,2.013000011E0,2.779050112E0,6.877950191E0,7.686448296E0
5.852453090E-1,2.040000200E0,2.692950010E0,6.703050137E0,7.506294806E0
5.877437700E-1,1.888950109E0,2.592000008E0,6.483000278E0,7.232972360E0
5.902424610E-1,1.839000106E0,2.542050123E0,6.109950066E0,6.868437233E0
5.927409380E-1,1.246950030E0,2.518050194E0,6.265050411E0,6.866317631E0
5.952394000E-1,8.089500666E-1,2.488950014E0,6.505050182E0,7.011772262E0
5.977378610E-1,3.299999982E-2,2.413050175E0,6.756000519E0,7.174081346E0
6.002363980E-1,-6.360000372E-1,2.392950058E0,6.982950211E0,7.408933774E0
6.027348610E-1,-9.469500184E-1,2.415000200E0,7.036050320E0,7.498996227E0
6.052333140E-1,-1.171950102E0,2.452950001E0,7.270950317E0,7.762547859E0
6.077320040E-1,-1.251000047E0,2.499000072E0,7.714050293E0,8.204667842E0
6.102304680E-1,-1.287000060E0,2.512950182E0,8.110950470E0,8.588294668E0
6.127289290E-1,-1.266000032E0,2.472000122E0,8.314949989E0,8.766523485E0
6.152273910E-1,-1.210950017E0,2.377050161E0,8.353050232E0,8.768706609E0
6.177258420E-1,-1.114950061E0,2.254050016E0,8.302950859E0,8.675416306E0
6.202243790E-1,-9.469500184E-1,2.119950056E0,8.254950523E0,8.575261554E0
6.227228420E-1,-7.560000420E-1,1.957950115E0,8.322000504E0,8.582586854E0
6.252213040E-1,-5.520000458E-1,1.885950089E0,8.371950150E0,8.599480280E0
6.277197650E-1,-4.320000112E-1,1.828050137E0,8.434050560E0,8.640694426E0
6.302182320E-1,-3.220500052E-1,1.809000134E0,8.515950203E0,8.711923183E0
6.327169220E-1,-2.290500104E-1,1.819050074E0,8.584950447E0,8.778540953E0
6.352153860E-1,-3.299999982E-2,1.879050136E0,8.554050446E0,8.758064708E0
6.377138470E-1,1.099500060E-1,1.972050071E0,8.451000214E0,8.678736953E0
6.402123840E-1,2.509500086E-1,2.098950148E0,8.425050735E0,8.686198681E0
6.427108180E-1,3.300000131E-1,2.221050024E0,8.343000412E0,8.639885363E0
6.452092800E-1,4.260000288E-1,2.359950066E0,8.302950859E0,8.642328003E0
6.477077410E-1,5.940000415E-1,2.487000227E0,8.104050636E0,8.497861078E0
6.502062030E-1,7.969500422E-1,2.664000034E0,8.014950752E0,8.483599538E0
6.527048930E-1,9.649500251E-1,2.832000017E0,7.909950256E0,8.456870917E0
6.552033520E-1,1.183050036E0,3.054000139E0,7.831050396E0,8.488337561E0
6.577018130E-1,1.426950097E0,3.247950077E0,7.740000248E0,8.514280364E0
6.602002750E-1,1.566000104E0,3.427950144E0,7.821000576E0,8.681661622E0
6.626988110E-1,1.555950046E0,3.451950073E0,7.884000301E0,8.746107740E0
6.651972750E-1,1.549050093E0,3.499050140E0,7.929000378E0,8.804087407E0
6.676957470E-1,1.674000025E0,3.681000233E0,7.972050190E0,8.938994520E0
6.701942080E-1,1.816950083E0,3.934950113E0,8.029950142E0,9.124978865E0
6.726928980E-1,1.872000098E0,4.075950146E0,8.104050636E0,9.262472169E0
6.751913620E-1,1.846050143E0,4.144050121E0,8.190000534E0,9.362540322E0
6.776897940E-1,1.753050089E0,4.198950291E0,8.149050713E0,9.333348578E0
6.801882560E-1,1.621050119E0,4.198950291E0,7.975050449E0,9.157533331E0
6.826867920E-1,1.827000141E0,4.057050228E0,7.789950371E0,8.971115474E0
6.851852560E-1,1.812000036E0,3.961950302E0,7.612950325E0,8.771397094E0
6.876837180E-1,1.305000067E0,3.916050196E0,7.426050186E0,8.496157701E0
6.901823930E-1,8.689500690E-1,3.868050098E0,7.266000271E0,8.277176193E0
6.926806260E-1,4.549500346E-1,3.793950081E0,7.240050316E0,8.186535612E0
6.951793160E-1,1.410000026E-1,3.661950111E0,7.261050224E0,8.133425476E0
6.976777800E-1,-8.295000345E-2,3.583050251E0,7.156050205E0,8.003385805E0
7.001762410E-1,-2.359500080E-1,3.459000111E0,7.134000301E0,7.931854416E0
7.026747880E-1,-3.319500089E-1,3.319950104E0,7.161000252E0,7.900138233E0
7.051732510E-1,-3.250500262E-1,3.253050089E0,7.170000553E0,7.880158649E0
7.076717130E-1,-3.010500073E-1,3.186000109E0,7.299000263E0,7.969732282E0
7.101704030E-1,-1.879500151E-1,3.151950121E0,7.462050438E0,8.102611401E0
7.126686360E-1,-3.705000132E-2,3.118950129E0,7.632000446E0,8.244795535E0
7.151673260E-1,1.050000042E-1,3.061050177E0,7.809000492E0,8.388178698E0
7.176657900E-1,4.170000255E-1,2.925000191E0,7.849950314E0,8.387564310E0
7.201642510E-1,4.549500346E-1,2.913000107E0,8.008049965E0,8.533546355E0
7.226627880E-1,3.379500210E-1,2.970000029E0,8.197050095E0,8.725063933E0
7.251612410E-1,3.570000231E-1,3.057000160E0,8.353050232E0,8.902030508E0
7.276597030E-1,4.789500237E-1,3.126000166E0,8.286000252E0,8.868994889E0
7.301583930E-1,6.700500250E-1,3.174000263E0,8.499000549E0,9.097046501E0
7.326566260E-1,1.522950053E0,3.171000242E0,8.524950027E0,9.222222746E0
7.351553160E-1,1.603950024E0,3.388950109E0,8.599950790E0,9.381726500E0
7.376537850E-1,1.393050075E0,3.613950253E0,8.740950584E0,9.560619334E0
7.401522460E-1,1.261950016E0,3.874950171E0,9.001950264E0,9.881440443E0
7.426507830E-1,1.333950043E0,4.102950096E0,9.262950897E0,1.021840895E1
7.451492460E-1,1.561050057E0,4.261050224E0,9.411000252E0,1.044798316E1
7.476476980E-1,1.834050059E0,4.378050327E0,9.526050568E0,1.064315290E1
7.501461590E-1,2.032950163E0,4.443000317E0,9.631050110E0,1.079954927E1
7.526446210E-1,1.858050108E0,4.455000401E0,9.757950783E0,1.088655052E1
7.551433110E-1,1.471950054E0,4.471950054E0,9.969000816E0,1.102478805E1
7.576417750E-1,1.494000077E0,4.366050243E0,1.011705017E1,1.111976327E1
7.601402460E-1,1.506000042E0,4.285050392E0,1.017705059E1,1.114459742E1
7.626387080E-1,1.626000047E0,4.146000385E0,1.012695026E1,1.106292534E1
7.651372440E-1,1.824000120E0,3.981000185E0,9.945000648E0,1.086638748E1
7.676357080E-1,2.083050013E0,3.820050240E0,9.696000099E0,1.062752554E1
7.701341690E-1,2.377050161E0,3.679050207E0,9.409049988E0,1.037863187E1
7.726328500E-1,2.689050198E0,3.564000130E0,9.126000404E0,1.015957535E1
7.751310820E-1,2.953950167E0,3.459000111E0,8.913000107E0,1.000660153E1
7.776297730E-1,3.205950260E0,3.394050121E0,8.764950752E0,9.930863758E0
7.801282360E-1,3.357000113E0,3.325050116E0,8.674050331E0,9.877477268E0
7.826266980E-1,3.514950275E0,3.282000065E0,8.644950867E0,9.892500965E0
7.851252340E-1,3.643950224E0,3.253050089E0,8.619000435E0,9.906961018E0
7.876236980E-1,3.643950224E0,3.291000128E0,8.650050163E0,9.946477914E0
7.901221590E-1,3.247050047E0,3.400950193E0,8.710050583E0,9.898220920E0
7.926206210E-1,3.043050051E0,3.528000116E0,8.844000816E0,9.996163708E0
7.951190820E-1,3.076950073E0,3.624000072E0,9.001950264E0,1.018018206E1
7.976177690E-1,3.229950190E0,3.693000078E0,9.160050392E0,1.039121509E1
8.001162320E-1,3.442950249E0,3.673950195E0,9.241050720E0,1.052372723E1
8.026146940E-1,3.703950167E0,3.586050272E0,9.301050186E0,1.063430947E1
8.051132300E-1,3.838050127E0,3.456000090E0,9.289050102E0,1.062831206E1
8.076116940E-1,3.937950134E0,3.282000065E0,9.157050133E0,1.049431002E1
8.101101790E-1,4.123050213E0,2.950950146E0,9.648000717E0,1.089915445E1
8.126088700E-1,4.563000202E0,2.383949995E0,1.094595051E1,1.209619862E1
8.151071020E-1,5.337000370E0,1.765950084E0,1.299795055E1,1.416152786E1
8.176057930E-1,5.491950035E0,1.567050099E0,1.289505100E1,1.410317346E1
8.201042560E-1,4.501049995E0,1.563000083E0,1.097205067E1,1.196195286E1
8.226027130E-1,3.531000137E0,1.777950048E0,9.976050377E0,1.073082706E1
8.251012490E-1,3.208050251E0,1.749000072E0,9.829950333E0,1.048706399E1
8.275996360E-1,3.637050152E0,1.383000016E0,9.751049995E0,1.049875225E1
8.300981720E-1,4.233000278E0,9.709500670E-1,9.595950127E0,1.053296227E1
8.325966360E-1,4.537050247E0,7.249500155E-1,9.427950859E0,1.048792805E1
8.350953450E-1,4.570050240E0,5.449500084E-1,9.271950722E0,1.035139604E1
8.375938090E-1,4.503000259E0,4.330500066E-1,9.343950272E0,1.038142333E1
8.400922700E-1,4.398000240E0,3.870000243E-1,9.414000511E0,1.039786424E1
8.425907320E-1,4.216050148E0,4.350000322E-1,9.190950394E0,1.012115967E1
8.450891930E-1,4.183050156E0,4.969500303E-1,8.695050240E0,9.661716546E0
8.475877300E-1,4.219050407E0,4.590000212E-1,8.176050186E0,9.211887103E0
8.500861930E-1,4.221000195E0,3.750000298E-1,7.729950428E0,8.815304946E0
8.525846550E-1,4.242000103E0,2.190000117E-1,7.237050533E0,8.391509179E0
8.550831170E-1,4.183050156E0,1.159500033E-1,6.823050499E0,8.004084652E0
8.575815780E-1,4.183050156E0,3.705000132E-2,6.447000504E0,7.685251902E0
8.600802730E-1,4.305000305E0,-4.995000362E-2,6.126000404E0,7.487549905E0
8.625787370E-1,4.366950035E0,-1.339500099E-1,5.853000164E0,7.303821338E0
8.650771990E-1,4.294950008E0,-2.200500071E-1,5.643000126E0,7.094960747E0
8.675757350E-1,4.198950291E0,-3.229500055E-1,5.395950317E0,6.844834554E0
8.700741990E-1,4.108050346E0,-4.380000234E-1,5.169000149E0,6.617135650E0
8.725726740E-1,3.976950169E0,-6.370500326E-1,4.900050163E0,6.342906037E0
8.750713640E-1,3.796950102E0,-8.310000300E-1,4.639950275E0,6.052811717E0
8.775695970E-1,3.565050125E0,-1.075049996E0,4.297049999E0,5.685943509E0
8.800682870E-1,3.358950138E0,-1.362000108E0,3.940050125E0,5.353651587E0
8.825667560E-1,3.132000208E0,-1.711950064E0,3.627000093E0,5.088745229E0
8.850652180E-1,2.932950258E0,-2.035050154E0,3.331950188E0,4.883187320E0
8.875637540E-1,2.907000065E0,-2.361000061E0,3.117000103E0,4.872438846E0
8.900622180E-1,2.854050159E0,-2.770050049E0,3.043050051E0,5.007887099E0
8.925606790E-1,2.974050045E0,-3.081000090E0,3.109950066E0,5.292383644E0
8.950591460E-1,3.229950190E0,-3.249000072E0,3.184050083E0,5.579135653E0
8.975576070E-1,3.439950228E0,-3.352050066E0,3.193050146E0,5.767587576E0
9.000562980E-1,3.606000185E0,-3.454950094E0,3.271950245E0,5.970391603E0
9.025547610E-1,3.820950270E0,-3.603000164E0,3.313050270E0,6.209474474E0
9.050532080E-1,4.123050213E0,-3.763950109E0,3.363000154E0,6.517410032E0
9.075517440E-1,4.558950424E0,-3.949950218E0,3.426000118E0,6.937118458E0
9.100501310E-1,4.783950329E0,-4.075050354E0,3.471000195E0,7.179140512E0
9.125486670E-1,4.930050373E0,-4.216050148E0,3.487950087E0,7.365206809E0
9.150471310E-1,5.290950298E0,-4.351950169E0,3.559950113E0,7.720548565E0
9.175458120E-1,5.808000088E0,-4.447950363E0,3.672000170E0,8.185396307E0
9.200442760E-1,6.436050415E0,-4.530000210E0,3.840000153E0,8.757239749E0
9.225427370E-1,7.261950493E0,-4.630050182E0,4.052999973E0,9.518408398E0
9.250411990E-1,8.212050438E0,-4.726050377E0,4.375950336E0,1.043658306E1
9.275396450E-1,9.133950233E0,-4.744950294E0,4.788000107E0,1.135202824E1
9.300381070E-1,1.000305080E1,-4.702050209E0,5.305050373E0,1.226025534E1
9.325366430E-1,1.081500053E1,-4.594050407E0,5.841000080E0,1.312199747E1
9.350351070E-1,1.155000019E1,-4.378950119E0,6.334950447E0,1.388197773E1
9.375335680E-1,1.233705044E1,-4.101000309E0,7.074000359E0,1.480076005E1
9.400322590E-1,1.304595089E1,-3.807000160E0,7.666050434E0,1.560315398E1
9.425307220E-1,1.366095066E1,-3.538050175E0,8.158950806E0,1.630054754E1
9.450291840E-1,1.416600037E1,-3.367950201E0,8.539950371E0,1.688044452E1
9.475276450E-1,1.455405045E1,-3.226950169E0,8.829000473E0,1.732584316E1
9.500261680E-1,1.490595055E1,-3.151050091E0,8.989950180E0,1.768998820E1
9.525246310E-1,1.514295101E1,-3.084000111E0,9.097949982E0,1.793300633E1
9.550230930E-1,1.535595036E1,-3.048000097E0,9.129000664E0,1.812275280E1
9.575215540E-1,1.547400093E1,-3.016950130E0,9.121050835E0,1.821373826E1
9.600200160E-1,1.558905029E1,-2.977950096E0,9.136050224E0,1.831267565E1
9.625187010E-1,1.563600063E1,-2.989950180E0,9.121050835E0,1.834714927E1
9.650171650E-1,1.569195080E1,-3.057000160E0,9.094950676E0,1.839295239E1
9.675156260E-1,1.568700027E1,-3.163050175E0,9.057000160E0,1.838793398E1
9.700141630E-1,1.558605099E1,-3.244050264E0,8.962950706E0,1.826973817E1
9.725125490E-1,1.543305111E1,-3.345000267E0,8.889000893E0,1.812132529E1
9.750110860E-1,1.521495056E1,-3.394950151E0,8.752950668E0,1.787832633E1
9.775095490E-1,1.496595097E1,-3.507000208E0,8.595000267E0,1.761115466E1
9.800080110E-1,1.474095058E1,-3.591000080E0,8.414999962E0,1.734944178E1
9.825067010E-1,1.454505062E1,-3.754050255E0,8.218950272E0,1.712315784E1
9.850051550E-1,1.436295033E1,-3.955050230E0,7.966950417E0,1.689405408E1
9.875036160E-1,1.403700066E1,-4.153950214E0,7.644000530E0,1.651434025E1
9.900021530E-1,1.360605049E1,-4.326000214E0,7.381050587E0,1.607229901E1
9.925006160E-1,1.321605110E1,-4.494000435E0,7.003050327E0,1.561738648E1
9.949990780E-1,1.282800102E1,-4.849950314E0,6.531000137E0,1.518991741E1
9.974975250E-1,1.261695099E1,-4.750050068E0,6.157050133E0,1.482092083E1
9.999959870E-1,1.202805042E1,-4.987050056E0,5.865000248E0,1.428085758E1
1.002494677E0,1.170495033E1,-5.085000038E0,5.575950146E0,1.392674792E1
1.004993141E0,1.150905037E1,-5.224050045E0,5.158950329E0,1.365150936E1
1.007491602E0,1.140105057E1,-5.325000286E0,4.771050453E0,1.345743306E1
1.009990153E0,1.135605049E1,-5.442000389E0,4.491000175E0,1.336953004E1
1.012488540E0,1.140795040E1,-5.530050278E0,4.173000336E0,1.334678689E1
1.014987076E0,1.140600014E1,-5.569050312E0,3.888000250E0,1.327507840E1
1.017485540E0,1.138200092E1,-5.571000099E0,3.760950089E0,1.321857529E1
1.019983987E0,1.141995049E1,-5.293050289E0,3.519000053E0,1.306962172E1
1.022482677E0,1.158600044E1,-4.972950459E0,3.202950239E0,1.300863301E1
1.024981141E0,1.165995026E1,-4.716000080E0,3.282000065E0,1.299871614E1
1.027479602E0,1.183500099E1,-4.530000210E0,3.283950090E0,1.309093116E1
1.029978064E0,1.206900024E1,-4.443000317E0,3.385050058E0,1.329885644E1
1.032476605E0,1.242300034E1,-4.317000389E0,3.387000084E0,1.358083942E1
1.034975069E0,1.281900024E1,-4.209000111E0,3.186000109E0,1.386337065E1
1.037473531E0,1.318995094E1,-4.060050011E0,3.169050217E0,1.415986198E1
1.039971992E0,1.363005066E1,-3.883050203E0,3.250950098E0,1.454046204E1
1.042470691E0,1.415400028E1,-3.634050131E0,3.226950169E0,1.496513454E1
1.044969155E0,1.464495087E1,-3.349050045E0,3.262950182E0,1.537327441E1
1.047467617E0,1.506195068E1,-3.055050135E0,3.208050251E0,1.569991325E1
1.049966078E0,1.537995052E1,-2.799000025E0,3.202950239E0,1.595732338E1
1.052464615E0,1.558905029E1,-2.554050207E0,3.174000263E0,1.611260187E1
1.054963064E0,1.573200035E1,-2.329050064E0,3.225000143E0,1.622716658E1
1.057461526E0,1.582095051E1,-2.128050089E0,3.238950253E0,1.628870378E1
1.059959987E0,1.587105083E1,-1.954050064E0,3.202950239E0,1.630850871E1
1.062458449E0,1.588305092E1,-1.816950083E0,3.138000250E0,1.629170524E1
1.064957139E0,1.585395050E1,-1.690050125E0,3.165000200E0,1.625488364E1
1.067455608E0,1.578300095E1,-1.549050093E0,3.193050146E0,1.617709011E1
1.069954069E0,1.565100098E1,-1.486950040E0,3.301050186E0,1.606430155E1
1.072452606E0,1.555005074E1,-1.446000099E0,3.355950117E0,1.597364690E1
1.074951069E0,1.538295078E1,-1.441050053E0,3.327000141E0,1.580445285E1
1.077449521E0,1.522905064E1,-1.471950054E0,3.339000225E0,1.566012589E1
1.079947982E0,1.508805084E1,-1.489050031E0,3.370950222E0,1.553157602E1
1.082446444E0,1.505700111E1,-1.465050101E0,3.373050213E0,1.549958458E1
1.084945134E0,1.519095039E1,-1.386000037E0,3.355950117E0,1.561884667E1
1.087443598E0,1.543305111E1,-1.258950114E0,3.445050240E0,1.586292511E1
1.089942089E0,1.572705078E1,-1.105949998E0,3.711000204E0,1.619675196E1
1.092440626E0,1.604594994E1,-8.899500370E-1,3.880950212E0,1.653258283E1
1.094939012E0,1.628100014E1,-6.870000362E-1,4.221000195E0,1.683329371E1
1.097437549E0,1.642395020E1,-3.540000021E-1,4.423950195E0,1.701301829E1
1.099936012E0,1.655294991E1,-4.095000029E-2,4.431000233E0,1.713579851E1
1.102434493E0,1.659900093E1,2.389500141E-1,4.459950447E0,1.718938879E1
1.104933183E0,1.657995033E1,4.060500264E-1,4.654050350E0,1.722555701E1
1.107431647E0,1.662300110E1,5.809500217E-1,4.728000164E0,1.729206911E1
1.109930108E0,1.671105003E1,7.579500079E-1,4.753950119E0,1.739062170E1
1.112428645E0,1.683795166E1,9.949500561E-1,4.783050060E0,1.753237319E1
1.114927108E0,1.690305138E1,1.311000109E0,4.800000191E0,1.762021194E1
1.117425570E0,1.694400024E1,1.651050091E0,4.768950462E0,1.767959273E1
1.119924031E0,1.703505135E1,2.020050049E0,4.726050377E0,1.779351367E1
1.122422493E0,1.718595123E1,2.407950163E0,4.563000202E0,1.794369289E1
1.124921173E0,1.732200050E1,2.773950100E0,4.300050259E0,1.806203014E1
1.127419637E0,1.743494987E1,3.115950108E0,3.933000088E0,1.814263244E1
1.129918098E0,1.749000168E1,3.400950193E0,3.553050280E0,1.816840079E1
1.132416560E0,1.756605148E1,3.652950287E0,3.004050255E0,1.819160599E1
1.134915096E0,1.767405128E1,3.883050203E0,2.455950022E0,1.826148565E1
1.137413570E0,1.776300049E1,4.123950005E0,1.864950061E0,1.833055342E1
1.139912031E0,1.777005005E1,4.366050243E0,1.186950088E0,1.833700968E1
1.142410493E0,1.766895103E1,4.579050064E0,5.430000424E-1,1.826073326E1
1.144909183E0,1.751399994E1,4.783050060E0,-3.299999982E-2,1.815540831E1
1.147407647E0,1.747305107E1,4.989000320E0,-5.760000348E-1,1.818046793E1
1.149906108E0,1.758300018E1,5.194950104E0,-1.081950068E0,1.836627393E1
1.152404570E0,1.767900085E1,5.460000038E0,-1.525050044E0,1.856567934E1
1.154903106E0,1.779104996E1,5.719050407E0,-1.860000134E0,1.878000524E1
1.157401570E0,1.778205109E1,5.985000134E0,-2.173050165E0,1.888766038E1
1.159900031E0,1.767900085E1,6.195000172E0,-2.451000214E0,1.889265731E1
1.162398502E0,1.749705124E1,6.373050213E0,-2.710050106E0,1.881772948E1
1.164896963E0,1.720695114E1,6.480000496E0,-2.869950056E0,1.860930378E1
1.167395654E0,1.688100052E1,6.523050308E0,-2.977950096E0,1.834084378E1
1.169894117E0,1.652205086E1,6.496950150E0,-3.076050043E0,1.801806343E1
1.172392603E0,1.622100067E1,6.447000504E0,-3.121950150E0,1.773220942E1
1.174891064E0,1.586595058E1,6.363000393E0,-3.130950212E0,1.737869417E1
1.177389601E0,1.545900059E1,6.328950405E0,-3.057000160E0,1.698180092E1
1.179888064E0,1.507905102E1,6.289050102E0,-3.009000063E0,1.661276654E1
1.182386526E0,1.476300049E1,6.247950077E0,-2.961000204E0,1.630185835E1
1.184884983E0,1.446600056E1,6.231000423E0,-2.949000120E0,1.602457925E1
1.187383673E0,1.418295097E1,6.202950478E0,-3.004050255E0,1.576886207E1
1.189882136E0,1.382400036E1,6.157050133E0,-3.076050043E0,1.544261429E1
1.192380598E0,1.355595112E1,6.114000320E0,-3.319950104E0,1.523702331E1
1.194879115E0,1.326600075E1,6.037050247E0,-3.526050091E0,1.499552536E1
1.197377579E0,1.304400063E1,5.893950462E0,-3.604950190E0,1.476076794E1
1.199876040E0,1.292100048E1,5.745000362E0,-3.694050074E0,1.461517323E1
1.202374502E0,1.278000069E1,5.614050388E0,-3.775050163E0,1.446018613E1
1.204872964E0,1.279695034E1,5.536950111E0,-3.948000193E0,1.449159964E1
1.207371654E0,1.291395092E1,5.482050419E0,-4.029000282E0,1.459643273E1
1.209870117E0,1.307895088E1,5.403000355E0,-3.985950232E0,1.470167229E1
1.212368579E0,1.305600071E1,5.410050392E0,-3.877950191E0,1.465490694E1
1.214867041E0,1.300005054E1,5.355000019E0,-3.763050079E0,1.455465167E1
1.217365502E0,1.281600094E1,5.262000084E0,-3.672000170E0,1.433255421E1
1.219864015E0,1.263195038E1,5.155950069E0,-3.531000137E0,1.409318819E1
1.222362478E0,1.234395027E1,5.029050350E0,-3.457050085E0,1.377009989E1
1.224860940E0,1.200000095E1,4.902000427E0,-3.457050085E0,1.341569329E1
1.227359630E0,1.163595009E1,4.740000248E0,-3.460950136E0,1.303231033E1
1.229858088E0,1.119795036E1,4.516950130E0,-3.853950262E0,1.267477272E1
1.232356550E0,1.078605080E1,4.303950310E0,-4.513050079E0,1.245915330E1
1.234855086E0,1.060095024E1,4.162950039E0,-4.729950428E0,1.233218270E1
1.237353473E0,1.050105095E1,4.066950321E0,-4.624950409E0,1.217383761E1
1.239852039E0,1.047000027E1,4.024050236E0,-4.527000427E0,1.209576863E1
1.242350502E0,1.049100018E1,4.038000107E0,-4.390050411E0,1.206810143E1
1.244848964E0,1.065195084E1,4.078950405E0,-4.309050083E0,1.219302283E1
1.247347654E0,1.071405029E1,4.141050339E0,-4.338000298E0,1.227833125E1
1.249846118E0,1.059195042E1,4.036050320E0,-4.845000267E0,1.232692757E1
1.252344569E0,1.044300079E1,3.901950121E0,-5.274000168E0,1.233274333E1
1.254843031E0,1.032900047E1,3.820050240E0,-5.410050392E0,1.226986878E1
1.257341492E0,1.017795086E1,3.696000099E0,-5.470050335E0,1.213146945E1
1.259840029E0,9.876000404E0,3.406050205E0,-5.631000042E0,1.186780196E1
1.262338473E0,9.519000053E0,3.094950199E0,-5.740950108E0,1.153900286E1
1.264836935E0,9.103050232E0,2.673000097E0,-5.644950390E0,1.103974266E1
1.267335625E0,8.703000069E0,2.187000036E0,-5.370000362E0,1.045763277E1
1.269834089E0,8.290950775E0,1.789950132E0,-4.249050140E0,9.486738814E0
1.272332550E0,7.515000343E0,1.114950061E0,-3.562050104E0,8.390860787E0
1.274830987E0,6.583950520E0,5.230500102E-1,-3.097950220E0,7.295154647E0
1.277329448E0,5.995050430E0,1.980000138E-1,-3.247950077E0,6.821217880E0
1.279827985E0,5.734050274E0,-7.605000585E-2,-3.712950230E0,6.831626128E0
1.282326448E0,5.545050144E0,-2.989500165E-1,-4.096050262E0,6.900331874E0
1.284824910E0,5.194950104E0,-5.389500260E-1,-4.098000050E0,6.638642792E0
1.287323361E0,4.792950153E0,-7.399500608E-1,-3.940050125E0,6.248511203E0
1.289822052E0,4.527000427E0,-8.500500321E-1,-3.684000254E0,5.898150201E0
1.292320515E0,4.503000259E0,-8.500500321E-1,-3.363000154E0,5.684132865E0
1.294818977E0,4.386000156E0,-9.340500236E-1,-3.403950214E0,5.629948835E0
1.297317438E0,4.256999969E0,-1.048050046E0,-3.382050276E0,5.537031850E0
1.299815975E0,4.290000439E0,-9.910500646E-1,-3.198000193E0,5.441827747E0
1.302314438E0,4.345050335E0,-1.072050095E0,-3.136050224E0,5.464756612E0
1.304812900E0,4.537050247E0,-1.104000092E0,-3.124050140E0,5.618125170E0
1.307311361E0,4.639950275E0,-1.171050072E0,-3.013950109E0,5.655474524E0
1.309810072E0,4.621050358E0,-1.129950047E0,-2.913000107E0,5.578213257E0
1.312308535E0,4.729050159E0,-1.162950039E0,-2.722050190E0,5.579061340E0
1.314806997E0,4.921950340E0,-1.269000053E0,-2.425050020E0,5.631769161E0
1.317305458E0,5.212050438E0,-1.387950063E0,-2.200050116E0,5.825126235E0
1.319803920E0,5.490000248E0,-1.519950032E0,-1.798050046E0,5.973552945E0
1.322302465E0,5.703000069E0,-1.699950099E0,-1.414050102E0,6.116663945E0
1.324800929E0,6.187050343E0,-1.567950130E0,-9.430500269E-1,6.451930169E0
1.327299390E0,6.333000183E0,-1.657050133E0,-5.310000181E-1,6.567698796E0
1.329798081E0,6.766050339E0,-1.603950024E0,-2.050500065E-1,6.956589565E0
1.332296578E0,6.955050468E0,-1.527000070E0,2.805000171E-2,7.120761408E0
1.334795040E0,7.423950195E0,-1.222950101E0,2.560500205E-1,7.528360051E0
1.337293576E0,7.930050373E0,-9.379500151E-1,2.340000123E-1,7.988754919E0
1.339791963E0,8.487000465E0,-6.870000362E-1,-1.189500093E-1,8.515591292E0
1.342290499E0,9.313050270E0,-3.300000131E-1,-7.459500432E-1,9.348702948E0
1.344788939E0,1.041495037E1,4.159500301E-1,-1.381050110E0,1.051434758E1
1.347287400E0,1.174095058E1,1.468950033E0,-2.166000128E0,1.202910185E1
1.349786091E0,1.276800060E1,2.410050154E0,-3.556950092E0,1.347152831E1
1.352284554E0,1.307700062E1,3.076050043E0,-4.606050014E0,1.420160997E1
1.354783016E0,1.316100025E1,3.418050051E0,-4.399950027E0,1.429176525E1
1.357281477E0,1.276095104E1,2.812050104E0,-4.776000023E0,1.391257250E1
1.359779939E0,1.090800095E1,-5.410500169E-1,-2.213999987E0,1.114356387E1
1.362278475E0,8.182950020E0,-3.397050142E0,-3.780000210E0,9.632705865E0
1.364776939E0,9.153000832E0,-3.562050104E0,-3.313050270E0,1.036541978E1
1.367275401E0,9.214950562E0,-3.427950144E0,-2.454000235E0,1.013352225E1
1.369774100E0,7.602000237E0,-3.700950146E0,-3.904050112E0,9.312843113E0
1.372272563E0,9.318000793E0,-4.903050423E0,-2.170950174E0,1.075072402E1
1.374771025E0,5.835000515E0,-5.089950085E0,-2.544000149E0,8.150261323E0
1.377269561E0,6.687000275E0,-4.045950413E0,-2.206950188E0,8.121349429E0
1.379767958E0,6.013950348E0,-4.678050041E0,-6.750000119E-1,7.649011439E0
1.382266494E0,7.920000553E0,-3.670050144E0,-3.349500299E-1,8.735437502E0
1.384764958E0,8.326950073E0,-3.457050085E0,-9.330000281E-1,9.064203322E0
1.387263420E0,9.145950317E0,-2.758050203E0,-8.659500480E-1,9.591929817E0
1.389762110E0,1.005600071E1,-1.921950102E0,-2.319000006E0,1.049737127E1
1.392260573E0,1.187505054E1,-1.410000026E-1,-4.381050110E0,1.265821103E1
1.394759035E0,1.478205109E1,1.725000024E0,-2.266950130E0,1.505402678E1
1.397257496E0,1.319205093E1,1.654050112E0,-6.169500351E-1,1.330964751E1
1.399755958E0,1.303905106E1,3.919500113E-1,-7.395000011E-2,1.304515028E1
1.402254495E0,1.632795143E1,-4.305000231E-2,-6.630000472E-1,1.634146322E1
1.404752953E0,1.695105171E1,1.740000099E-1,-1.146000028E0,1.699063702E1
1.407251415E0,1.795605087E1,8.320500255E-1,-7.680000067E-1,1.799171738E1
1.409750105E0,1.844295120E1,1.219950080E0,1.840500087E-1,1.848417165E1
1.412248338E0,1.693200111E1,1.587000132E0,-1.081950068E0,1.704059409E1
1.414747028E0,1.592100048E1,1.114950061E0,-2.458050013E0,1.614816955E1
1.417245492E0,1.597605038E1,1.789500117E-1,-4.888050079E0,1.670805920E1
1.419744028E0,1.470300102E1,-6.079500318E-1,-5.748000145E0,1.579833371E1
1.422242492E0,1.343400097E1,-1.036949992E0,-5.650050163E0,1.461063702E1
1.424740953E0,1.218405056E1,-1.044000030E0,-5.307000160E0,1.333061419E1
1.427239391E0,1.160505009E1,-8.110500574E-1,-5.074950218E0,1.269212785E1
1.429738081E0,1.155000019E1,-6.799500585E-1,-5.161050320E0,1.266890985E1
1.432236545E0,1.168800068E1,-3.400500119E-1,-5.892000198E0,1.309353505E1
1.434735006E0,1.085505009E1,9.495000541E-2,-6.076050282E0,1.244023774E1
1.437233468E0,1.159305096E1,0.000000000E0,-7.192050457E0,1.364274240E1
1.439731948E0,1.334805107E1,-2.730000019E-1,-8.590050697E0,1.587557770E1
1.442230485E0,1.245900059E1,-4.090500176E-1,-1.158705044E1,1.701921724E1
1.444728948E0,1.089795017E1,-6.970500350E-1,-9.016050339E0,1.416122736E1
1.447227410E0,1.057800007E1,-9.409500360E-1,-6.418050289E0,1.240849878E1
1.449725886E0,1.006500053E1,-1.177950025E0,-5.530050278E0,1.154440376E1
1.452224577E0,1.014405060E1,-1.237950087E0,-5.506050110E0,1.160822427E1
1.454723040E0,1.024695015E1,-1.393050075E0,-4.936050415E0,1.145884678E1
1.457221502E0,1.049895096E1,-1.491000056E0,-3.945000172E0,1.131433068E1
1.459719963E0,1.095105076E1,-1.423950076E0,-3.727050066E0,1.165521552E1
1.462218495E0,1.104195023E1,-1.417050123E0,-3.415950060E0,1.164480187E1
1.464716958E0,1.144695091E1,-1.221000075E0,-3.085950136E0,1.191833103E1
1.467215420E0,1.142295074E1,-1.108050108E0,-2.596950054E0,1.176672122E1
1.469713881E0,1.149195099E1,-1.021950006E0,-2.226000071E0,1.175008067E1
1.472212572E0,1.168395042E1,-8.860500455E-1,-1.987050056E0,1.188478650E1
1.474711044E0,1.175100040E1,-6.799500585E-1,-1.845000029E0,1.191437651E1
1.477209506E0,1.169100094E1,-4.690500200E-1,-1.474050045E0,1.179289339E1
1.479707967E0,1.174395084E1,-4.140000343E-1,-1.062000036E0,1.179913647E1
1.482206504E0,1.200000095E1,-2.539499998E-1,-3.199500144E-1,1.200695138E1
1.484704967E0,1.192800045E1,-3.810000122E-1,1.549500078E-1,1.193508966E1
1.487203434E0,1.205700016E1,-4.069500268E-1,6.030000448E-1,1.207892670E1
1.489701895E0,1.231800079E1,-4.639500082E-1,1.030950069E0,1.236977167E1
1.492200586E0,1.227300072E1,-5.410500169E-1,1.381050110E0,1.236230485E1
1.494699049E0,1.234005070E1,-5.359500051E-1,1.963050127E0,1.250670458E1
1.497197511E0,1.253400040E1,-4.930500090E-1,2.353049994E0,1.276248834E1
1.499695982E0,1.223895073E1,-6.460500360E-1,2.683050156E0,1.254623664E1
1.502194519E0,1.232505035E1,-6.220500469E-1,3.271950245E0,1.276712461E1
1.504692982E0,1.225095081E1,-5.269500017E-1,3.556950092E0,1.276774710E1
1.507191444E0,1.207200050E1,-5.050500035E-1,3.675000191E0,1.262908936E1
1.509689890E0,1.148295021E1,-7.320000529E-1,3.691050291E0,1.208378343E1
1.512188581E0,1.130295086E1,-8.640000224E-1,4.170000076E0,1.207858000E1
1.514687044E0,1.097295094E1,-1.012950063E0,4.453050137E0,1.188534289E1
1.517185506E0,1.074300098E1,-1.209000111E0,4.522050381E0,1.171847648E1
1.519683967E0,1.068300056E1,-1.362000108E0,4.692000389E0,1.174718745E1
1.522182405E0,1.096095085E1,-1.354950070E0,4.825950146E0,1.205272285E1
1.524680941E0,1.107600021E1,-1.432050109E0,4.527000427E0,1.205082077E1
1.527179405E0,1.118595028E1,-1.695000052E0,4.029000282E0,1.200963580E1
1.529677866E0,1.047195053E1,-1.635000110E0,3.339000225E0,1.111233080E1
1.532176557E0,1.006800079E1,-1.495950103E0,2.631000042E0,1.051307129E1
1.534675025E0,9.865950584E0,-1.495950103E0,2.176050186E0,1.021322878E1
1.537173487E0,9.567000389E0,-1.462950110E0,1.552950025E0,9.802008633E0
1.539672023E0,9.567000389E0,-1.294950008E0,7.110000253E-1,9.680388061E0
1.542170410E0,9.208050728E0,-1.128000021E0,-2.629500031E-1,9.280610161E0
1.544668931E0,9.048000336E0,-8.929500580E-1,-1.045950055E0,9.151922279E0
1.547167395E0,9.037950516E0,-6.180000305E-1,-1.327950120E0,9.155868341E0
1.549665856E0,9.178950310E0,-4.159500301E-1,-1.381050110E0,9.291579124E0
1.552164547E0,9.129000664E0,-2.580000162E-1,-1.297050118E0,9.224291633E0
1.554663010E0,9.108000755E0,-2.320500165E-1,-1.012050033E0,9.166993522E0
1.557161448E0,9.249000549E0,-1.650000066E-1,-7.510500550E-1,9.280911181E0
1.559659909E0,9.282000542E0,-2.610000074E-1,-2.650500238E-1,9.289451360E0
1.562158371E0,9.309000015E0,-4.360500276E-1,-3.105000220E-2,9.319258823E0
1.564656907E0,9.442950249E0,-5.820000172E-1,1.909500062E-1,9.462795323E0
1.567155371E0,9.490950584E0,-7.830000520E-1,5.809500217E-1,9.540898019E0
1.569653828E0,9.316050529E0,-9.169500470E-1,1.042950034E0,9.418988249E0
1.572152518E0,9.153000832E0,-9.340500236E-1,1.371000051E0,9.302124210E0
1.574650981E0,9.109950066E0,-9.220500588E-1,1.680000067E0,9.309337610E0
1.577149443E0,9.000000000E0,-1.008000016E0,1.762050033E0,9.226098002E0
1.579647974E0,8.896950722E0,-1.065000057E0,2.001000166E0,9.181174159E0
1.582146361E0,8.727000237E0,-1.081950068E0,2.142000198E0,9.050928899E0
1.584644897E0,8.748000145E0,-1.135050058E0,2.362950087E0,9.132326006E0
1.587143361E0,8.904000282E0,-1.153950095E0,2.650050163E0,9.361388130E0
1.589641823E0,9.115050316E0,-1.165950060E0,2.851050138E0,9.621437974E0
1.592140518E0,9.145950317E0,-1.324050069E0,2.869950056E0,9.676679654E0
1.594638981E0,9.358950615E0,-1.420050025E0,3.129000187E0,9.969811475E0
1.597137443E0,1.014900017E1,-1.374000072E0,3.457050085E0,1.080931431E1
1.599635905E0,9.855000496E0,-1.543950081E0,3.490050077E0,1.056812501E1
1.602134371E0,1.017795086E1,-1.590000033E0,3.519000053E0,1.088586906E1
1.604632908E0,1.030200005E1,-1.827000141E0,4.198950291E0,1.127387768E1
1.607131371E0,1.100400066E1,-1.804950118E0,4.309050083E0,1.195465550E1
1.609629833E0,1.182300091E1,-1.609050035E0,4.471950054E0,1.274247738E1
1.612128523E0,1.266300106E1,-1.252050042E0,4.624950409E0,1.353917987E1
1.614627010E0,1.314900017E1,-1.048050046E0,4.666050434E0,1.399166327E1
1.617125472E0,1.311300087E1,-8.590500355E-1,4.744950294E0,1.397151789E1
1.619624008E0,1.305105019E1,-7.470000386E-1,5.074950218E0,1.402294690E1
1.622122472E0,1.305105019E1,-5.980500579E-1,5.037000179E0,1.400210504E1
1.624620934E0,1.300995064E1,-4.980000257E-1,4.137000084E0,1.366095126E1
1.627119390E0,1.341495037E1,-4.000500143E-1,3.469050169E0,1.386200716E1
1.629617852E0,1.414305115E1,-2.029500157E-1,2.985000134E0,1.445604753E1
1.632116542E0,1.412295055E1,-1.890000105E-1,2.500950098E0,1.434392571E1
1.634615006E0,1.393395042E1,-1.819500029E-1,1.675050020E0,1.403545057E1
1.637113467E0,1.362795067E1,-2.010000050E-1,1.291950107E0,1.369052868E1
1.639611929E0,1.360605049E1,-2.299500108E-1,1.591950059E0,1.370079530E1
1.642110390E0,1.285695076E1,-5.389500260E-1,1.936050057E0,1.301306804E1
1.644608927E0,1.211505032E1,-1.045950055E0,2.089950085E0,1.233840942E1
1.647107390E0,1.198500061E1,-1.207050085E0,2.077950001E0,1.222354637E1
1.649605852E0,1.241400051E1,-1.128000021E0,1.596000075E0,1.256690133E1
1.652104318E0,1.299105072E1,-1.069950104E0,1.201050043E0,1.309025260E1
1.654603009E0,1.357005024E1,-1.075049996E0,1.150950074E0,1.366113766E1
1.657101472E0,1.361595058E1,-1.041000009E0,1.137000084E0,1.370293985E1
1.659599934E0,1.365405083E1,-8.710500598E-1,1.149000049E0,1.372996844E1
1.662098395E0,1.284705067E1,-9.310500622E-1,2.949000120E0,1.321401403E1
1.664596937E0,1.273005104E1,-6.439500451E-1,2.545050144E0,1.299792873E1
1.667095400E0,1.340700054E1,-2.869500220E-1,2.272050142E0,1.360118435E1
1.669593862E0,1.449900055E1,3.460500240E-1,2.500950098E0,1.471718448E1
1.672092323E0,1.542600060E1,7.650000453E-1,3.078000069E0,1.574867626E1
1.674591014E0,1.568895054E1,1.093050003E0,4.114950180E0,1.625640619E1
1.677089472E0,1.597905064E1,1.411950111E0,3.178950071E0,1.635326836E1
1.679587934E0,1.639305115E1,1.893000126E0,4.950000346E-1,1.650940945E1
1.682086395E0,1.715400124E1,2.383949995E0,1.140000075E-1,1.731923705E1
1.684584932E0,1.760700035E1,2.902950048E0,3.040500283E-1,1.784729746E1
1.687083395E0,1.867200089E1,3.496950150E0,-8.710500598E-1,1.901659816E1
1.689581838E0,1.979505157E1,3.934950113E0,-1.132050037E0,2.021409005E1
1.692080299E0,1.979295158E1,4.108050346E0,-1.357050061E0,2.026027134E1
1.694578990E0,2.024805069E1,4.311000347E0,-1.989000082E0,2.079722102E1
1.697077453E0,2.062605095E1,4.427999973E0,-2.262000084E0,2.121692263E1
1.699575915E0,2.055195045E1,4.444950104E0,-2.554050207E0,2.118167655E1
1.702074446E0,2.012100029E1,4.596000195E0,-2.341050148E0,2.077157640E1
1.704572910E0,1.881105042E1,4.471950054E0,-2.500950098E0,1.949637675E1
1.707071371E0,1.737000084E1,4.198950291E0,-2.632950068E0,1.806323722E1
1.709569833E0,1.666394997E1,3.733950138E0,-2.632950068E0,1.727894783E1
1.712068294E0,1.655100060E1,3.100050211E0,-2.346000195E0,1.700146020E1
1.714566990E0,1.592100048E1,2.434050083E0,-2.001000166E0,1.622981386E1
1.717065453E0,1.523400116E1,1.852050066E0,-1.362000108E0,1.540648971E1
1.719563915E0,1.433895111E1,1.369050026E0,-2.302950144E0,1.458709691E1
1.722062376E0,1.313205051E1,7.560000420E-1,-2.449050188E0,1.337984057E1
1.724560852E0,1.166895008E1,4.200000316E-2,-1.956000090E0,1.183182557E1
1.727059388E0,9.555000305E0,-9.720000625E-1,2.719500065E-1,9.608161726E0
1.729557852E0,7.678050518E0,-8.449500203E-1,5.074950218E0,9.242376318E0
1.732056313E0,8.350950241E0,-2.595000155E-2,-1.708950043E0,8.524057343E0
1.734555004E0,8.322000504E0,-6.439500451E-1,-4.588950157E0,9.525168113E0
1.737053467E0,7.599000454E0,-1.348050117E0,-3.796950102E0,8.601097435E0
1.739551929E0,6.418950081E0,-2.277000189E0,-3.864000082E0,7.830590440E0
1.742050465E0,5.217000484E0,-2.932950258E0,-3.724950075E0,7.049435746E0
1.744548852E0,4.491000175E0,-3.133950233E0,-2.358000040E0,5.962456778E0
1.747047388E0,3.864000082E0,-3.237000227E0,-8.970000148E-1,5.119890246E0
1.749545867E0,3.247050047E0,-3.354000092E0,6.220500469E-1,4.709521938E0
1.752044328E0,2.701050043E0,-3.531000137E0,1.660950065E0,4.745775850E0
1.754543019E0,2.397000074E0,-3.640950203E0,2.331000090E0,4.943246823E0
1.757041482E0,1.810050130E0,-3.703950167E0,2.671050072E0,4.912233382E0
1.759539944E0,1.651950121E0,-3.685050249E0,3.046950102E0,5.058897060E0
1.762038475E0,1.293000102E0,-3.606000185E0,3.234000206E0,5.013366527E0
1.764536862E0,7.450500131E-1,-3.519000053E0,3.088050127E0,4.740729320E0
1.767035398E0,1.440000087E-1,-3.388050079E0,3.028050184E0,4.546284996E0
1.769533862E0,-6.139500141E-1,-3.229950190E0,2.365050077E0,4.050058606E0
1.772032348E0,-1.147950053E0,-3.007050037E0,1.333050013E0,3.483842934E0
1.774531038E0,-1.299000025E0,-2.689050198E0,2.149500102E-1,2.994093442E0
1.777029501E0,-1.531050086E0,-2.374950171E0,-5.910000205E-1,2.886829351E0
1.779527963E0,-1.834950089E0,-2.169000149E0,-1.276050091E0,3.114467420E0
1.782026499E0,-1.972050071E0,-1.906050086E0,-1.905000091E0,3.339316361E0
1.784524891E0,-1.845000029E0,-1.555950046E0,-2.410050154E0,3.410769326E0
1.787023428E0,-1.789950132E0,-1.254000068E0,-2.832000017E0,3.577242198E0
1.789521891E0,-2.139000177E0,-1.195050001E0,-2.923050165E0,3.814143224E0
1.792020353E0,-2.098950148E0,-1.104000092E0,-3.208050251E0,3.989485473E0
1.794519043E0,-1.488000035E0,-7.900500298E-1,-3.040050030E0,3.475662144E0
1.797017491E0,-9.880500436E-1,-4.519500136E-1,-2.947050095E0,3.140956218E0
1.799515953E0,-5.279999971E-1,-6.405000389E-2,-2.869950056E0,2.918818207E0
1.802014415E0,-1.189500093E-1,3.130500019E-1,-2.323950052E0,2.347955122E0
1.804512951E0,3.400500119E-1,6.070500016E-1,-1.660950065E0,1.800805051E0
1.807011415E0,8.140500188E-1,8.470500112E-1,-1.077000022E0,1.593769181E0
1.809509852E0,1.321950078E0,1.065000057E0,-8.400000334E-1,1.894037272E0
1.812008314E0,1.920000076E0,1.285050035E0,-8.179500103E-1,2.450876599E0
1.814507004E0,2.581050158E0,1.584000111E0,-9.330000281E-1,3.168811342E0
1.817005467E0,3.478950262E0,1.954950094E0,-8.230500221E-1,4.074596438E0
1.819503934E0,3.972000122E0,2.199000120E0,-6.990000606E-1,4.593581128E0
1.822002396E0,4.161000252E0,2.359950066E0,-4.710000157E-1,4.806779423E0
1.824500857E0,4.324050426E0,2.518050194E0,-2.560500205E-1,5.010344348E0
1.826999394E0,4.642050266E0,2.713950157E0,2.560500205E-1,5.383281317E0
1.829497871E0,4.803000450E0,2.857950211E0,4.759500325E-1,5.609208604E0
1.831996333E0,5.478000164E0,3.186000109E0,6.220500469E-1,6.367576364E0
1.834495023E0,6.072000504E0,3.625950098E0,1.021950006E0,7.145704027E0
1.836993487E0,6.202950478E0,3.985950232E0,7.630500197E-1,7.412600030E0
1.839491948E0,5.985000134E0,4.198950291E0,5.650500059E-1,7.332850172E0
1.841990510E0,5.526000500E0,4.351950169E0,5.070000291E-1,7.052177027E0
1.844488973E0,4.930050373E0,4.291950226E0,6.630000472E-1,6.570068682E0
1.846987435E0,4.129950047E0,4.036050320E0,8.419500589E-1,5.835672153E0
1.849486125E0,3.381000042E0,3.664950132E0,1.174950004E0,5.122843768E0
1.851984358E0,2.923050165E0,3.258000135E0,1.563000083E0,4.647768971E0
1.854483039E0,2.643000126E0,2.845950127E0,1.903050065E0,4.325098998E0
1.856981503E0,2.322000027E0,2.455950022E0,2.029950142E0,3.942597140E0
1.859479964E0,2.028000116E0,2.044049978E0,2.281050205E0,3.673433656E0
1.861978426E0,1.804950118E0,1.594050050E0,2.350950003E0,3.365383545E0
1.864476971E0,1.900950074E0,1.279950023E0,2.110949993E0,3.115765254E0
1.866975435E0,2.728950024E0,1.251000047E0,1.789950132E0,3.495152475E0
1.869473896E0,3.402000189E0,1.326000094E0,1.477050066E0,3.938725483E0
1.871972358E0,3.586050272E0,1.536000013E0,1.312050104E0,4.115887276E0
1.874471048E0,3.442950249E0,1.804050088E0,1.342950106E0,4.112422415E0
1.876969517E0,3.529050112E0,2.128050089E0,1.479000092E0,4.378382480E0
1.879467978E0,3.855000257E0,2.452950001E0,1.579950094E0,4.834690579E0
1.881966515E0,3.886050224E0,2.278050184E0,1.447950125E0,4.731538709E0
1.884464901E0,4.549050331E0,2.428950071E0,1.419000030E0,5.348571627E0
1.886963438E0,5.212050438E0,2.515050173E0,1.470000029E0,5.970916782E0
1.889461915E0,6.033000469E0,2.629950047E0,1.575000048E0,6.767152803E0
1.891960377E0,6.676950455E0,2.767050028E0,1.780950069E0,7.443790458E0
1.894459067E0,7.345050335E0,2.934000254E0,1.960050106E0,8.148614504E0
1.896957531E0,7.873950481E0,3.138000250E0,2.185050011E0,8.753318531E0
1.899455992E0,8.407950401E0,3.322050095E0,2.466000080E0,9.370741869E0
1.901954534E0,8.679000854E0,3.418050051E0,2.818050146E0,9.744204873E0
1.904452920E0,8.818050385E0,3.358050108E0,2.829000235E0,9.850774357E0
1.906951457E0,8.779950142E0,3.079950094E0,2.638050079E0,9.671242180E0
1.909449920E0,8.731950760E0,2.737950087E0,2.370000124E0,9.453054286E0
1.911948382E0,8.902050018E0,2.377050161E0,2.286000013E0,9.493295427E0
1.914447067E0,9.036000252E0,2.044049978E0,2.533050060E0,9.604362731E0
1.916945531E0,9.214950562E0,1.741950035E0,2.964000225E0,9.835395320E0
1.919443992E0,9.388050079E0,1.531050086E0,3.487950087E0,1.013140634E1
1.921942529E0,9.442950249E0,1.396950126E0,4.005000114E0,1.035185032E1
1.924441007E0,9.727950096E0,1.114950061E0,5.331000328E0,1.114879775E1
1.926939469E0,9.889950752E0,7.920000553E-1,6.756000519E0,1.200341339E1
1.929437930E0,9.831000328E0,5.230500102E-1,7.489050388E0,1.236964124E1
1.931936621E0,9.703950882E0,3.300000131E-1,7.836000443E0,1.247711768E1
1.934435084E0,9.687000275E0,1.519500017E-1,8.149050713E0,1.265970342E1
1.936933560E0,9.949950218E0,1.950000064E-3,8.281050682E0,1.294516564E1
1.939432021E0,1.017495060E1,-2.440500110E-1,8.140049934E0,1.303263569E1
1.941930483E0,1.048695087E1,-4.570500255E-1,8.053950310E0,1.323068966E1
1.944429019E0,1.097700024E1,-6.850500107E-1,8.191950798E0,1.371393035E1
1.946927483E0,1.142505074E1,-9.670500755E-1,8.451000214E0,1.424381883E1
1.949425944E0,1.162905025E1,-1.258950114E0,8.539950371E0,1.448276623E1
1.951924406E0,1.191105080E1,-1.555950046E0,8.487000465E0,1.470793284E1
1.954423096E0,1.198995018E1,-1.807050109E0,8.329050064E0,1.471045242E1
1.956921560E0,1.202595043E1,-2.001000166E0,8.214000702E0,1.470024806E1
1.959420021E0,1.206195068E1,-2.107050180E0,8.572950363E0,1.494743432E1
1.961918558E0,1.217205048E1,-2.260050058E0,8.260050774E0,1.488271070E1
1.964417021E0,1.229205036E1,-2.350950003E0,8.074950218E0,1.489383393E1
1.966915483E0,1.229700089E1,-2.470950127E0,8.011050224E0,1.488283410E1
1.969414173E0,1.237800026E1,-2.538000107E0,7.807050228E0,1.485282358E1
1.971912406E0,1.251195049E1,-2.667000055E0,7.576950550E0,1.486848930E1
1.974411115E0,1.274400043E1,-2.740950108E0,7.587000370E0,1.508260353E1
1.976909579E0,1.285905075E1,-2.818050146E0,7.536000252E0,1.516864835E1
1.979408040E0,1.255800056E1,-3.013950109E0,7.168050289E0,1.477051856E1
1.981906577E0,1.235895061E1,-3.117000103E0,6.430050373E0,1.427602528E1
1.984405040E0,1.256505013E1,-3.129000187E0,4.993950367E0,1.387842452E1
1.986903507E0,1.258395100E1,-3.244050264E0,4.390950203E0,1.371714724E1
1.989401969E0,1.263195038E1,-3.297000170E0,3.742050171E0,1.358084386E1
1.991900430E0,1.282095051E1,-3.330000162E0,2.980050087E0,1.357742139E1
1.994399120E0,1.290195084E1,-3.385050058E0,2.386950016E0,1.355051400E1
1.996897584E0,1.289505100E1,-3.606000185E0,1.867050052E0,1.351929930E1
1.999396059E0,1.274400043E1,-3.945000172E0,2.248050213E0,1.352872142E1
2.001894596E0,1.306995106E1,-4.221000195E0,2.506050110E0,1.396140217E1
2.004393059E0,1.293105030E1,-4.297049999E0,1.347000122E0,1.369273931E1
2.006891521E0,1.284000015E1,-4.360050201E0,3.795000166E-2,1.356012839E1
2.009389969E0,1.301700020E1,-4.237950325E0,-1.306950092E0,1.375175028E1
2.011888430E0,1.304595089E1,-4.138950348E0,-2.935050249E0,1.399793787E1
2.014387120E0,1.308195019E1,-3.814050198E0,-4.993950367E0,1.451288875E1
2.016885584E0,1.365195084E1,-3.361050129E0,-7.206000328E0,1.579869806E1
2.019384046E0,1.391700077E1,-2.760000229E0,-9.679050446E0,1.717511366E1
2.021882577E0,1.398195076E1,-2.289000034E0,-1.143195057E1,1.820505320E1
2.024380964E0,1.412805080E1,-1.903050065E0,-1.141305065E1,1.826146610E1
2.026879500E0,1.467900085E1,-1.614000082E0,-1.063005066E1,1.819549503E1
2.029377964E0,1.491600037E1,-1.116000056E0,-1.072500038E1,1.840538389E1
2.031876425E0,1.487805080E1,-7.560000420E-1,-1.083795071E1,1.842251631E1
2.034375104E0,1.481805038E1,-5.700000525E-1,-1.029705048E1,1.805349733E1
2.036873568E0,1.476705074E1,-4.039500058E-1,-9.064050674E0,1.733164672E1
2.039372030E0,1.494900036E1,-3.180000186E-1,-7.953000546E0,1.693587770E1
2.041870566E0,1.483200073E1,-2.730000019E-1,-6.435000420E0,1.617009601E1
2.044369030E0,1.481505108E1,-2.820000052E-1,-4.699050426E0,1.554497788E1
2.046867491E0,1.481805038E1,-4.120500088E-1,-3.861000299E0,1.531834605E1
2.049365953E0,1.470495033E1,-6.130500436E-1,-3.196050167E0,1.506074803E1
2.051864643E0,1.467405033E1,-8.710500598E-1,-2.583000183E0,1.492509200E1
2.054363107E0,1.401105022E1,-9.739500284E-1,-1.977000117E0,1.418332248E1
2.056861578E0,1.296195030E1,-9.769500494E-1,-9.019500613E-1,1.302996934E1
2.059360040E0,1.261695099E1,-1.108050108E0,6.720000505E-1,1.268332809E1
2.061858576E0,1.239000034E1,-1.150950074E0,2.209050179E0,1.263790716E1
2.064357040E0,1.191405010E1,-9.739500284E-1,3.196050167E0,1.237367792E1
2.066855501E0,1.118595028E1,-7.950000167E-1,3.916050196E0,1.187825567E1
2.069353968E0,1.042200089E1,-6.060000062E-1,4.692000389E0,1.144553215E1
2.071852658E0,9.967050552E0,-4.690500200E-1,5.142000198E0,1.122507330E1
2.074351122E0,9.670050621E0,-4.879500270E-1,5.664000034E0,1.121734686E1
2.076849583E0,9.550050735E0,-4.789500237E-1,6.265050411E0,1.143169799E1
2.079348045E0,9.294000626E0,-4.069500268E-1,7.029000282E0,1.165979849E1
2.081846571E0,8.860950470E0,-2.010000050E-1,7.639050484E0,1.170093742E1
2.084345035E0,8.407950401E0,3.510000110E-1,7.219950199E0,1.108803462E1
2.086843496E0,7.855050564E0,1.053000093E0,6.937950134E0,1.053308030E1
2.089342187E0,7.945950508E0,1.870950103E0,6.724950314E0,1.057655617E1
2.091840429E0,8.346000671E0,2.571000099E0,6.672000408E0,1.099005724E1
2.094339120E0,8.851050377E0,2.968050241E0,6.687000275E0,1.148330909E1
2.096837583E0,9.298950195E0,3.076050043E0,6.718050480E0,1.187706870E1
2.099336045E0,9.526050568E0,2.992050171E0,6.880050182E0,1.212572036E1
2.101834581E0,9.727950096E0,2.865000248E0,7.122000217E0,1.239209936E1
2.104333059E0,9.772950172E0,2.365050077E0,7.141050339E0,1.233282680E1
2.106831520E0,9.451950073E0,1.395000100E0,7.153050423E0,1.193530543E1
2.109330211E0,9.141000748E0,6.139500141E-1,7.354950428E0,1.174862226E1
2.111828443E0,9.196050644E0,2.530499995E-1,7.465050220E0,1.184729322E1
2.114327134E0,9.270000458E0,-2.400000021E-2,7.539000511E0,1.194864064E1
2.116825597E0,9.454950333E0,-2.490000129E-1,7.696950436E0,1.219430739E1
2.119324059E0,9.819000244E0,-5.980500579E-1,8.008049965E0,1.268460854E1
2.121822595E0,9.907050133E0,-1.092000008E0,8.461050034E0,1.307407641E1
2.124321059E0,1.019895077E1,-1.306950092E0,8.631000519E0,1.342463725E1
2.126819520E0,1.069500065E1,-1.503000021E0,8.857950211E0,1.396801095E1
2.129318187E0,1.098495007E1,-1.743000031E0,9.112050056E0,1.437833903E1
2.131816419E0,1.129095078E1,-2.025000095E0,9.193050385E0,1.470028470E1
2.134315110E0,1.162395096E1,-2.169000149E0,9.430050850E0,1.512437293E1
2.136813573E0,1.226505089E1,-2.260050058E0,9.544950485E0,1.570494761E1
2.139312035E0,1.252200031E1,-2.466000080E0,9.121050835E0,1.568678477E1
2.141810571E0,1.286595058E1,-2.698050022E0,8.932050705E0,1.589319629E1
2.144309035E0,1.292595100E1,-2.929950237E0,8.226000786E0,1.559909955E1
2.146807496E0,1.303200054E1,-3.036000252E0,7.204050541E0,1.519699575E1
2.149306187E0,1.306005096E1,-3.037950039E0,5.836950302E0,1.462409178E1
2.151804640E0,1.312305069E1,-3.175050259E0,4.363950253E0,1.418941385E1
2.154303102E0,1.330200100E1,-3.514950275E0,2.935050249E0,1.406814224E1
2.156801563E0,1.359900093E1,-3.667950153E0,1.446000099E0,1.415901130E1
2.159300025E0,1.402800083E1,-3.619950056E0,1.339500099E-1,1.448816028E1
2.161798561E0,1.459695053E1,-3.433050156E0,-9.829500318E-1,1.502740792E1
2.164297016E0,1.514295101E1,-3.072000027E0,-1.789950132E0,1.555474432E1
2.166795477E0,1.553100109E1,-2.719950199E0,-2.121000051E0,1.590939236E1
2.169293939E0,1.619205093E1,-1.879050136E0,-3.001950026E0,1.657483173E1
2.171792400E0,1.656495094E1,-1.230000019E0,-3.007050037E0,1.688054649E1
2.174291091E0,1.598400116E1,-1.606050134E0,-2.041949987E0,1.619374107E1
2.176789558E0,1.462905025E1,-2.478000164E0,-2.032050133E0,1.497594150E1
2.179288020E0,1.408005047E1,-2.298000097E0,-2.290950060E0,1.444912031E1
2.181786556E0,1.337595081E1,-2.310000181E0,-1.675050020E0,1.367691316E1
2.184285020E0,1.283805084E1,-2.262000084E0,-7.609500289E-1,1.305799520E1
2.186783481E0,1.253595066E1,-1.987050056E0,2.440500110E-1,1.269480159E1
2.189282182E0,1.251000023E1,-1.486950040E0,1.017000079E0,1.263904329E1
2.191780645E0,1.260795021E1,-1.150950074E0,1.948050141E0,1.280937133E1
2.194279107E0,1.281405067E1,-9.240000248E-1,2.371950150E0,1.306444864E1
2.196777568E0,1.309095097E1,-7.950000167E-1,3.078000069E0,1.347141814E1
2.199276030E0,1.324500084E1,-9.910500646E-1,3.651000261E0,1.377468803E1
2.201774566E0,1.333305073E1,-1.257000089E0,3.604950190E0,1.386888448E1
2.204273030E0,1.330905056E1,-1.702050090E0,3.988050222E0,1.399758357E1
2.206771492E0,1.347495079E1,-1.980000138E0,4.291950226E0,1.427989972E1
2.209269953E0,1.384800053E1,-2.286000013E0,4.354950428E0,1.469552680E1
2.211768643E0,1.433895111E1,-2.494950056E0,4.600950241E0,1.526430601E1
2.214267117E0,1.492995071E1,-2.418000221E0,4.708950043E0,1.584059228E1
2.216765578E0,1.532295036E1,-2.686050177E0,4.765950203E0,1.627027826E1
2.219264040E0,1.560795116E1,-2.977950096E0,4.525050163E0,1.652127130E1
2.221762576E0,1.718100166E1,-3.613050222E0,6.289050102E0,1.864921181E1
2.224261040E0,1.728404999E1,-4.144050121E0,6.339000225E0,1.887046526E1
2.226759502E0,1.669005013E1,-4.549050331E0,5.038950443E0,1.801784265E1
2.229258192E0,1.608195114E1,-4.996950150E0,3.694050074E0,1.724078505E1
2.231756425E0,1.588800049E1,-5.143050194E0,2.446050167E0,1.687787564E1
2.234255124E0,1.561995029E1,-5.353050232E0,1.987050056E0,1.663088578E1
2.236753587E0,1.512195110E1,-5.563950062E0,2.454000235E0,1.629886691E1
2.239252049E0,1.424505043E1,-5.917950153E0,1.660950065E0,1.551458510E1
2.241750586E0,1.365900040E1,-6.627000332E0,-4.759500325E-1,1.518920517E1
2.244249035E0,1.153005028E1,-7.645050526E0,-7.609500289E-1,1.385524817E1
2.246747497E0,1.218195057E1,-7.111050129E0,-2.113950014E0,1.426309007E1
2.249246187E0,1.111095047E1,-7.218000412E0,-7.579500079E-1,1.327129378E1
2.251744420E0,9.481050491E0,-7.431000233E0,-6.550500393E-1,1.206396176E1
2.254243110E0,1.021800041E1,-6.352050304E0,-1.174950004E0,1.208869650E1
2.256741574E0,1.167600060E1,-5.370000362E0,-1.260000020E-1,1.285230601E1
2.259240035E0,1.204800034E1,-4.351950169E0,1.462050080E0,1.289307461E1
2.261738572E0,1.178400040E1,-3.562050104E0,2.056050062E0,1.248111406E1
2.264237035E0,1.168605042E1,-3.049950123E0,2.688000202E0,1.237300752E1
2.266735497E0,1.080705070E1,-2.992950201E0,3.493050098E0,1.174527543E1
2.269234191E0,1.059900093E1,-2.848950148E0,2.367000103E0,1.122755660E1
2.271732655E0,1.298595047E1,-2.293050051E0,2.116050005E0,1.335554775E1
2.274231116E0,1.369500065E1,-2.610000134E0,2.911050081E0,1.424216824E1
2.276729578E0,1.357500076E1,-3.804000139E0,2.832000017E0,1.437954404E1
2.279228039E0,1.294800091E1,-6.865950108E0,2.290950060E0,1.483376050E1
2.281726552E0,9.562050819E0,-1.012695026E1,3.069000244E0,1.426207208E1
2.284225015E0,5.643000126E0,-1.211205101E1,2.065950155E0,1.352084983E1
2.286723477E0,4.948950291E0,-1.255005074E1,2.418000221E0,1.370556849E1
2.289222167E0,4.441050053E0,-1.098000050E1,1.915050149E0,1.199794789E1
2.291720400E0,3.534000158E0,-9.601050377E0,1.852950096E0,1.039724721E1
2.294219077E0,2.728950024E0,-8.377050400E0,1.707000136E0,8.974184704E0
2.296717541E0,2.667000055E0,-7.173000336E0,1.507950068E0,7.799919007E0
2.299216002E0,1.906050086E0,-6.258000374E0,2.355000019E0,6.952813869E0
2.301714539E0,1.531950116E0,-5.776950359E0,2.308050156E0,6.406802801E0
2.304213002E0,7.470000386E-1,-5.533050060E0,3.220050097E0,6.445259859E0
2.306711464E0,-2.295000106E-2,-5.272050381E0,2.904000044E0,6.018991458E0
2.309210154E0,1.270500124E-1,-4.981950283E0,2.014950037E0,5.375499417E0
2.311708618E0,4.549500346E-1,-4.908000469E0,2.050950050E0,5.338711853E0
2.314207079E0,3.970500231E-1,-4.723950386E0,2.329050064E0,5.281839658E0
2.316705639E0,4.050000310E-1,-4.651950359E0,2.238000154E0,5.178157188E0
2.319204025E0,5.430000424E-1,-4.290000439E0,2.121000051E0,4.816388069E0
2.321702562E0,4.620000124E-1,-4.084050179E0,1.861950040E0,4.512179941E0
2.324201025E0,3.880500197E-1,-3.796950102E0,1.366950035E0,4.054129412E0
2.326699487E0,1.319999993E-1,-3.727950096E0,1.150950074E0,3.903808652E0
2.329197962E0,-5.400000140E-2,-3.687000275E0,6.630000472E-1,3.746525869E0
2.331696653E0,-6.795000285E-2,-3.639000177E0,7.905000448E-2,3.640492878E0
2.334195116E0,-5.400000140E-2,-3.685050249E0,-1.605000161E-2,3.685480829E0
2.336693578E0,-3.705000132E-2,-3.696000099E0,3.495000303E-2,3.696351030E0
2.339192054E0,-1.309500039E-1,-3.594000101E0,3.439500034E-1,3.612794796E0
2.341690591E0,2.440050125E0,-2.929950237E0,7.200000286E-1,3.880316101E0
2.344189054E0,4.573050022E0,-2.631000042E0,6.769500375E-1,5.319136121E0
2.346687516E0,4.855050087E0,-2.727000237E0,6.409500241E-1,5.605252766E0
2.349186206E0,5.025000095E0,-2.722050190E0,6.120000482E-1,5.747584471E0
2.351684670E0,4.984950066E0,-2.736000061E0,7.390500307E-1,5.734249597E0
2.354183131E0,5.071050167E0,-2.650050163E0,6.240000129E-1,5.755666050E0
2.356681593E0,5.265000343E0,-2.452050209E0,3.490500152E-1,5.818471857E0
2.359180054E0,5.344050407E0,-2.254950047E0,1.650000066E-1,5.802663136E0
2.361678596E0,5.289000034E0,-2.133000135E0,3.469500244E-1,5.713456507E0
2.364177059E0,5.104050159E0,-1.980000138E0,7.080000043E-1,5.520234831E0
2.366675521E0,5.169000149E0,-1.735950112E0,6.559500098E-1,5.492026561E0
2.369174211E0,5.305950165E0,-1.411950111E0,6.990000606E-1,5.534917466E0
2.371672660E0,5.334000111E0,-1.261950016E0,6.000000238E-1,5.513989033E0
2.374171121E0,5.326950073E0,-1.185000062E0,5.449500084E-1,5.484304217E0
2.376669583E0,5.554950237E0,-1.314000010E0,6.000000238E-1,5.739692343E0
2.379168119E0,5.509050369E0,-1.161000013E0,4.399500191E-1,5.647221708E0
2.381666583E0,5.569050312E0,-9.670500755E-1,4.039500058E-1,5.666805346E0
2.384165049E0,5.595000267E0,-8.160000443E-1,9.495000541E-2,5.654988909E0
2.386663511E0,5.653050423E0,-6.649500132E-1,7.605000585E-2,5.692532056E0
2.389162201E0,5.806050301E0,-5.719500184E-1,-1.789500117E-1,5.836897294E0
2.391660665E0,5.784000397E0,-5.269500017E-1,-3.390000165E-1,5.817839625E0
2.394159126E0,5.854050159E0,-4.930500090E-1,-2.839500010E-1,5.881634907E0
2.396657588E0,5.956950188E0,-4.930500090E-1,-2.749500275E-1,5.983640311E0
2.399156124E0,5.725050449E0,-6.220500469E-1,-4.260000288E-1,5.774480490E0
2.401654588E0,4.767000198E0,-6.769500375E-1,-1.030950069E0,4.923962864E0
2.404153049E0,2.425050020E0,-7.849500179E-1,-2.307000160E0,3.437915629E0
2.406651511E0,-5.569500327E-1,-4.549500346E-1,-3.375000238E0,3.450767955E0
2.409150196E0,-6.405000389E-2,-1.170000061E-1,-3.682050228E0,3.684465400E0
2.411648660E0,2.670000076E0,5.895000324E-2,-3.196050167E0,4.164986456E0
2.414147121E0,4.125000000E0,2.340000123E-1,-2.359950066E0,4.758124139E0
2.416645583E0,3.673050165E0,2.629500031E-1,-1.783050060E0,4.091418793E0
2.419144119E0,2.980950117E0,2.050500065E-1,-1.338000059E0,3.273889623E0
2.421642583E0,3.184050083E0,2.839500010E-1,-8.130000234E-1,3.298449874E0
2.424141044E0,3.903000116E0,4.369500279E-1,-5.670000315E-1,3.968100839E0
2.426639506E0,3.960000277E0,3.460500240E-1,-4.159500301E-1,3.996794620E0
2.429138196E0,4.065000057E0,1.570500135E-1,-3.540000021E-1,4.083406197E0
2.431636660E0,4.590000153E0,-5.505000427E-2,4.695000127E-2,4.590570357E0
2.434135121E0,5.254950047E0,-1.030500084E-1,5.290500522E-1,5.282519593E0
2.436633658E0,5.701050282E0,-1.630500108E-1,9.600000381E-1,5.783611302E0
2.439132045E0,6.579000473E0,3.630000055E-1,1.240050077E0,6.704680486E0
2.441630581E0,7.033950329E0,2.359500080E-1,1.336050034E0,7.163599607E0
2.444129045E0,7.827000141E0,1.810500026E-1,1.618050098E0,7.994547919E0
2.446627735E0,8.145000458E0,-6.195000187E-2,1.708950043E0,8.322582562E0
2.449126198E0,8.284049988E0,-2.269500047E-1,1.848000050E0,8.490706372E0
2.451624660E0,8.728950500E0,-3.180000186E-1,2.068050146E0,8.976220377E0
2.454123121E0,9.220050812E0,-4.039500058E-1,2.353049994E0,9.524145991E0
2.456621597E0,9.748950005E0,-4.519500136E-1,2.500950098E0,1.007477228E1
2.459120133E0,9.937950134E0,-5.940000415E-1,2.415000200E0,1.024440896E1
2.461618597E0,1.008405018E1,-6.700500250E-1,2.422049999E0,1.039246656E1
2.464117059E0,9.991050720E0,-7.680000067E-1,2.188050032E0,1.025663110E1
2.466615749E0,9.574050903E0,-8.760000467E-1,1.804950118E0,9.782007550E0
2.469114222E0,9.571950912E0,-8.590500355E-1,1.546050072E0,9.733985929E0
2.471612684E0,9.439949989E0,-9.289500713E-1,1.051050067E0,9.543600488E0
2.474111146E0,9.322950363E0,-1.009950042E0,6.960000396E-1,9.403287649E0
2.476609682E0,9.000000000E0,-1.273950100E0,1.720500141E-1,9.091344789E0
2.479108146E0,9.076050758E0,-1.420050025E0,-9.000000358E-2,9.186911311E0
2.481606621E0,9.487950325E0,-1.585050106E0,-2.130000144E-1,9.621795789E0
2.484105083E0,9.940950394E0,-1.543950081E0,-2.959500253E-1,1.006448523E1
2.486603544E0,1.072800064E1,-1.435950041E0,-3.130500019E-1,1.082820163E1
2.489102234E0,1.095795059E1,-1.450950027E0,-4.350000322E-1,1.106214998E1
2.491600688E0,1.119300079E1,-1.381050110E0,-6.150000095E-1,1.129463550E1
2.494099150E0,1.142700100E1,-1.306950092E0,-8.569500446E-1,1.153337911E1
2.496597611E0,1.158600044E1,-1.137000084E0,-8.730000257E-1,1.167434386E1
2.499096148E0,1.169595051E1,-9.529500604E-1,-6.820500493E-1,1.175451251E1
2.501594611E0,1.176495075E1,-8.830500245E-1,-6.120000482E-1,1.181390653E1
2.504093073E0,1.177695084E1,-8.830500245E-1,-4.210500121E-1,1.181751376E1
2.506591763E0,1.162095070E1,-9.480000734E-1,7.050000131E-3,1.165955612E1
2.509090227E0,1.133700085E1,-1.207050085E0,1.050000042E-1,1.140156056E1
2.511588688E0,1.119795036E1,-1.138950109E0,1.650000066E-1,1.125693229E1
2.514087136E0,1.087695026E1,-1.084050059E0,2.610000074E-1,1.093395320E1
2.516585597E0,1.020195007E1,-1.132050037E0,4.159500301E-1,1.027299066E1
2.519084134E0,9.967050552E0,-1.081950068E0,7.849500179E-1,1.005628456E1
2.521582597E0,9.904950142E0,-9.930000305E-1,1.030950069E0,1.000784414E1
2.524081059E0,9.667950630E0,-8.899500370E-1,1.216050029E0,9.784684876E0
2.526579749E0,9.759000778E0,-7.540500164E-1,1.491000056E0,9.900998373E0
2.529078213E0,9.823050499E0,-7.519500256E-1,1.347000122E0,9.943448058E0
2.531576674E0,9.505050659E0,-9.139500260E-1,1.371000051E0,9.646809515E0
2.534075136E0,9.210000038E0,-9.240000248E-1,1.459950089E0,9.370663318E0
2.536573696E0,9.310950279E0,-8.740500212E-1,1.410000086E0,9.457582079E0
2.539072160E0,9.322950363E0,-8.640000224E-1,1.429050088E0,9.471329562E0
2.541570621E0,9.067049980E0,-8.899500370E-1,1.620000124E0,9.253529425E0
2.544069083E0,8.752950668E0,-8.929500580E-1,1.828950047E0,8.986465572E0
2.546567773E0,8.631000519E0,-9.460500479E-1,1.756950140E0,8.858671144E0
2.549066227E0,8.419950485E0,-1.003050089E0,2.008050203E0,8.714008336E0
2.551564688E0,7.888950348E0,-1.218000054E0,2.272050142E0,8.299474295E0
2.554063150E0,7.683000565E0,-1.245000005E0,2.169000149E0,8.079794820E0
2.556561611E0,7.386000156E0,-1.302000046E0,2.338950157E0,7.856137108E0
2.559060148E0,7.234950542E0,-1.201950073E0,2.370000124E0,7.707534879E0
2.561558616E0,7.150950432E0,-1.237950087E0,2.302950144E0,7.613947193E0
2.564057078E0,6.997950554E0,-1.459950089E0,1.893000126E0,7.395012894E0
2.566555768E0,7.087050438E0,-1.642050028E0,1.813950062E0,7.497534730E0
2.569054232E0,7.398000240E0,-1.537050128E0,1.198950052E0,7.650517099E0
2.571552693E0,7.681050301E0,-1.365000010E0,8.280000687E-1,7.845211461E0
2.574051155E0,8.053950310E0,-1.330950022E0,2.370000184E-1,8.166621857E0
2.576549691E0,8.818050385E0,-1.113000035E0,-2.100000083E-1,8.890493893E0
2.579048155E0,9.064050674E0,-1.053000093E0,-5.050500035E-1,9.138976930E0
2.581546616E0,9.388050079E0,-1.053000093E0,-9.040500522E-1,9.490079029E0
2.584045078E0,9.433050156E0,-9.340500236E-1,-1.096050024E0,9.542337782E0
2.586543749E0,8.908950806E0,-1.209000111E0,-1.764000058E0,9.162029357E0
2.589042213E0,8.776950836E0,-1.402950048E0,-2.149049997E0,9.144481982E0
2.591540674E0,8.581050873E0,-1.482000113E0,-2.101950169E0,8.958177991E0
2.594039136E0,8.680950165E0,-1.723950028E0,-1.756950140E0,9.023179775E0
2.596537692E0,9.225000381E0,-1.743000031E0,-1.642050028E0,9.530740236E0
2.599036156E0,9.619950294E0,-1.891050100E0,-1.738050103E0,9.956923838E0
2.601534617E0,1.044300079E1,-1.810050130E0,-1.981950045E0,1.078242426E1
2.604033079E0,1.132905006E1,-1.791000128E0,-2.044049978E0,1.165045910E1
2.606531769E0,1.243800068E1,-1.606050134E0,-2.089950085E0,1.271421053E1
2.609030233E0,1.359405041E1,-1.309050083E0,-2.272050142E0,1.384463905E1
2.611528694E0,1.459005070E1,-9.889500737E-1,-2.518050194E0,1.483873911E1
2.614027231E0,1.567695045E1,-6.130500436E-1,-2.521050215E0,1.589019509E1
2.616525694E0,1.737195015E1,-1.480500102E-1,-2.164050102E0,1.750684676E1
2.619024156E0,1.857405090E1,1.570500135E-1,-2.170950174E0,1.870115120E1
2.621522627E0,1.939995003E1,3.559500277E-1,-2.500950098E0,1.956372952E1
2.624021089E0,2.040600014E1,4.560000300E-1,-2.278950214E0,2.053792569E1
2.626519779E0,2.107905006E1,5.140500069E-1,-2.299950123E0,2.121038353E1
2.629018243E0,2.151405144E1,4.399500191E-1,-2.329050064E0,2.164422416E1
2.631516704E0,2.169405174E1,4.399500191E-1,-2.272050142E0,2.181714117E1
2.634015250E0,2.185695076E1,5.190000534E-1,-2.017950058E0,2.195604199E1
2.636513713E0,2.185395050E1,5.350500345E-1,-1.801950097E0,2.193464053E1
2.639012175E0,2.178705025E1,5.119500160E-1,-1.435950041E0,2.184032060E1
2.641510865E0,2.147805023E1,4.729500115E-1,-1.194000006E0,2.151641140E1
2.644009079E0,2.129205132E1,4.249500334E-1,-9.210000634E-1,2.131619743E1
2.646507769E0,2.106405067E1,4.470000267E-1,-6.480000019E-1,2.107875575E1
2.649006233E0,2.047800064E1,3.510000110E-1,-3.420000076E-1,2.048386378E1
2.651504694E0,1.974000168E1,8.805000782E-2,-1.669500023E-1,1.974090402E1
2.654003231E0,1.866495132E1,-2.680500150E-1,3.180000186E-1,1.866958443E1
2.656501699E0,1.720200157E1,-6.870000362E-1,7.129500508E-1,1.723047083E1
2.659000161E0,1.484205055E1,-1.398000121E0,8.659500480E-1,1.493287442E1
2.661498623E0,1.369695091E1,-2.085000038E0,1.063050032E0,1.389545842E1
2.663997313E0,1.354905033E1,-2.607000113E0,1.309050083E0,1.385953919E1
2.666495776E0,1.326900101E1,-3.129000187E0,1.318950057E0,1.369659298E1
2.668994238E0,1.296195030E1,-3.550050259E0,1.173000097E0,1.349040184E1
2.671492699E0,1.250700092E1,-3.898050070E0,1.351950049E0,1.316995199E1
2.673991236E0,1.159995079E1,-4.213950157E0,1.318950057E0,1.241192425E1
2.676489623E0,1.138905048E1,-4.513050079E0,1.435950041E0,1.233450625E1
2.678988159E0,1.112805080E1,-4.861950397E0,1.627950072E0,1.225244048E1
2.681486632E0,1.112295055E1,-5.059050083E0,2.049000025E0,1.239001283E1
2.683985093E0,1.088595009E1,-5.266950130E0,2.358000040E0,1.232091057E1
2.686483783E0,1.108995056E1,-5.359950066E0,2.896950245E0,1.265339436E1
2.688982247E0,1.119495010E1,-5.463000298E0,3.421050072E0,1.291800541E1
2.691480709E0,1.119300079E1,-5.676000118E0,3.931050301E0,1.315117487E1
2.693979236E0,1.103700066E1,-5.916000366E0,4.258950233E0,1.322698382E1
2.696477700E0,1.121895027E1,-6.079050064E0,4.891050339E0,1.366536016E1
2.698976161E0,1.171695042E1,-6.165000439E0,5.712000370E0,1.441946967E1
2.701474851E0,1.144695091E1,-6.547950268E0,6.073950291E0,1.451899480E1
2.703973315E0,1.135995007E1,-6.763050556E0,6.615000248E0,1.478328606E1
2.706471780E0,1.114995098E1,-6.747000217E0,7.066950321E0,1.482515449E1
2.708970242E0,1.100100040E1,-6.514050484E0,7.548000336E0,1.484678998E1
2.711468704E0,1.112805080E1,-6.249000072E0,7.648950577E0,1.487917879E1
2.713967240E0,1.078095055E1,-5.916000366E0,7.564950466E0,1.443802031E1
2.716465704E0,1.106805038E1,-5.416050434E0,7.539000511E0,1.444547923E1
2.718964170E0,1.136805058E1,-4.987050056E0,7.366050243E0,1.443474760E1
2.721462632E0,1.135605049E1,-4.507950306E0,6.876000404E0,1.402001713E1
2.723961093E0,1.165500069E1,-3.907050133E0,6.217050076E0,1.377518760E1
2.726459784E0,1.194000053E1,-3.367950201E0,5.908050060E0,1.374087904E1
2.728958247E0,1.224405098E1,-2.854050159E0,5.607000351E0,1.376593039E1
2.731456695E0,1.236405087E1,-2.071050167E0,5.062950134E0,1.352007643E1
2.733955231E0,1.253100014E1,-1.345050097E0,4.692000389E0,1.344804788E1
2.736453695E0,1.271295071E1,-8.809500337E-1,4.447950363E0,1.349738682E1
2.738952156E0,1.304595089E1,-7.180500627E-1,4.052999973E0,1.367988448E1
2.741450846E0,1.360605049E1,-6.750000119E-1,3.646050215E0,1.410226638E1
2.743949088E0,1.054905033E1,-9.790500402E-1,3.346950054E0,1.111049398E1
2.746447779E0,9.021000862E0,-1.057950020E0,3.289050102E0,9.659998208E0
2.748946242E0,8.872950554E0,-9.220500588E-1,3.478050232E0,9.574772126E0
2.751444704E0,8.671950340E0,-7.590000629E-1,3.778050184E0,9.489597831E0
2.753943240E0,8.434950829E0,-7.710000277E-1,3.864000082E0,9.309851404E0
2.756441714E0,8.169000626E0,-8.640000224E-1,3.952050209E0,9.115797722E0
2.758940175E0,8.020950317E0,-1.096050024E0,3.991050243E0,9.025821386E0
2.761438866E0,8.001000404E0,-1.603950024E0,4.006950378E0,9.090891842E0
2.763937098E0,8.088000298E0,-2.218950033E0,4.065000057E0,9.320070468E0
2.766435799E0,7.836000443E0,-2.820000172E0,4.237050056E0,9.343869492E0
2.768934262E0,7.633050442E0,-3.379950047E0,4.410000324E0,9.441166465E0
2.771432724E0,7.554000378E0,-3.843000174E0,4.563000202E0,9.625619091E0
2.773931260E0,7.378950119E0,-4.104000092E0,4.735050201E0,9.680517652E0
2.776429724E0,7.405050278E0,-4.361999989E0,4.833000183E0,9.860005288E0
2.778928189E0,7.420050144E0,-4.609050274E0,4.932000160E0,1.003120701E1
2.781426651E0,7.470000267E0,-4.909950256E0,5.070000172E0,1.027683887E1
2.783925341E0,7.732950211E0,-5.029950142E0,5.226000309E0,1.060235807E1
2.786423805E0,8.028000832E0,-5.134950161E0,5.334000111E0,1.092099207E1
2.788922256E0,8.193000793E0,-5.277000427E0,5.410050392E0,1.114632858E1
2.791420718E0,8.503950119E0,-5.392050266E0,5.518050194E0,1.148217103E1
2.793919254E0,8.743950844E0,-5.461050034E0,5.640000343E0,1.175114240E1
2.796417718E0,8.872950554E0,-5.527950287E0,5.536950111E0,1.182984795E1
2.798916164E0,8.932950020E0,-5.575950146E0,5.206950188E0,1.174738892E1
2.801414626E0,8.923050880E0,-5.647950172E0,4.786050320E0,1.159424236E1
2.803913316E0,8.944950104E0,-5.719950199E0,4.225049973E0,1.142720482E1
2.806411780E0,8.703000069E0,-5.779050350E0,4.029000282E0,1.119698515E1
2.808910241E0,8.458950043E0,-5.740950108E0,3.841950178E0,1.092121445E1
2.811408680E0,8.281949997E0,-5.623950481E0,3.780000210E0,1.070083718E1
2.813907216E0,8.332050323E0,-5.581050396E0,3.676950216E0,1.068134584E1
2.816405680E0,8.274000168E0,-5.557050228E0,3.286950111E0,1.049494769E1
2.818904141E0,8.109000206E0,-5.458950043E0,3.270000219E0,1.030771174E1
2.821402832E0,8.265000343E0,-5.370000362E0,3.021000147E0,1.030890763E1
2.823901295E0,8.434950829E0,-5.188050270E0,2.808000088E0,1.029315916E1
2.826399757E0,8.598000526E0,-4.855050087E0,2.592000008E0,1.020860365E1
2.828898218E0,8.656949997E0,-4.515000343E0,2.422049999E0,1.005953963E1
2.831396755E0,8.866050720E0,-4.216050148E0,2.326950073E0,1.008943164E1
2.833895218E0,8.887050629E0,-3.864000082E0,2.455950022E0,9.997092378E0
2.836393685E0,9.067049980E0,-3.352050066E0,2.518050194E0,9.989404976E0
2.838892375E0,9.310950279E0,-2.724000216E0,2.772000074E0,1.008949735E1
2.841390608E0,9.673050880E0,-2.185950041E0,2.935050249E0,1.034218598E1
2.843889298E0,9.961950302E0,-1.812000036E0,2.896950245E0,1.053167217E1
2.846387771E0,9.949950218E0,-1.518000126E0,3.009000063E0,1.050523275E1
2.848886232E0,1.002405071E1,-1.384050012E0,2.872950077E0,1.051907930E1
2.851384769E0,1.037895012E1,-1.386000037E0,2.536950111E0,1.077402977E1
2.853883232E0,1.062795067E1,-1.507950068E0,2.188050032E0,1.095512719E1
2.856381685E0,1.065705013E1,-1.681050062E0,1.888950109E0,1.095293474E1
2.858880375E0,1.060395050E1,-1.876950145E0,1.632000089E0,1.089174607E1
2.861378839E0,1.035195065E1,-2.097000122E0,1.300050020E0,1.064191814E1
2.863877300E0,9.913950920E0,-2.344050169E0,1.141950011E0,1.025109964E1
2.866375762E0,9.832950592E0,-2.487000227E0,1.206000090E0,1.021403562E1
2.868874213E0,9.706050873E0,-2.607000113E0,1.402950048E0,1.014751901E1
2.871372750E0,9.538050652E0,-2.770050049E0,1.584000111E0,1.005766592E1
2.873871213E0,9.325050354E0,-2.935050249E0,1.798050046E0,9.940023543E0
2.876369675E0,8.875050545E0,-3.139050245E0,2.049000025E0,9.634238928E0
2.878868370E0,8.380050659E0,-3.289050102E0,2.287950039E0,9.288585199E0
2.881366834E0,8.004000664E0,-3.430950165E0,2.584950209E0,9.083909579E0
2.883865295E0,7.609050274E0,-3.493050098E0,2.889000177E0,8.856938923E0
2.886363757E0,7.399950504E0,-3.543000221E0,3.105000257E0,8.772294149E0
2.888862218E0,7.384050369E0,-3.619950056E0,3.282000065E0,8.854364048E0
2.891360755E0,7.302000523E0,-3.748950243E0,3.198000193E0,8.809145520E0
2.893859218E0,6.907050133E0,-3.919050217E0,3.220050097E0,8.569423479E0
2.896357680E0,6.495000362E0,-4.108050346E0,3.378000259E0,8.394759860E0
2.898856370E0,6.072000504E0,-4.273050308E0,3.495000124E0,8.206288742E0
2.901354834E0,5.928000450E0,-4.506000042E0,3.565050125E0,8.255592535E0
2.903853281E0,6.009000301E0,-4.683000088E0,3.823050261E0,8.523748456E0
2.906351818E0,5.169000149E0,-4.834050179E0,4.126950264E0,8.192577259E0
2.908850204E0,4.915050030E0,-4.906050205E0,4.254000187E0,8.143927984E0
2.911348741E0,4.884000301E0,-4.903050423E0,4.261050224E0,8.127109659E0
2.913847204E0,4.659000397E0,-4.858050346E0,4.290000439E0,7.981919671E0
2.916345666E0,4.417050362E0,-4.810050011E0,4.246950150E0,7.789961526E0
2.918844356E0,4.417050362E0,-4.756950378E0,4.156050205E0,7.707896218E0
2.921342589E0,4.470000267E0,-4.600950241E0,4.074000359E0,7.599152876E0
2.923841279E0,4.531949997E0,-4.422000408E0,4.125000000E0,7.557002275E0
2.926339743E0,4.750050068E0,-4.312050343E0,4.210950375E0,7.673907535E0
2.928838269E0,4.996950150E0,-4.125000000E0,4.361999989E0,7.811029362E0
2.931336733E0,5.404050350E0,-3.808950186E0,4.564949989E0,8.034340677E0
2.933835195E0,5.914050102E0,-3.370950222E0,4.968000412E0,8.427355582E0
2.936333656E0,6.189000130E0,-3.052050114E0,5.188050270E0,8.633342233E0
2.938832346E0,6.253950119E0,-2.538000107E0,5.413050175E0,8.651846556E0
2.941330800E0,6.400050163E0,-1.936950088E0,5.535000324E0,8.680359804E0
2.943829261E0,6.438000202E0,-1.489050031E0,5.499000072E0,8.596750456E0
2.946327723E0,6.685050488E0,-9.360000491E-1,5.587950230E0,8.763057907E0
2.948826185E0,7.024950504E0,-4.710000157E-1,5.889000416E0,9.178894078E0
2.951324721E0,7.312050343E0,-4.279500246E-1,5.499000072E0,9.159051437E0
2.953823161E0,7.936950207E0,-7.609500289E-1,4.213050365E0,9.017982974E0
2.956321622E0,7.999050617E0,-2.800500095E-1,3.463950157E0,8.721363969E0
2.958820312E0,7.981950283E0,4.729500115E-1,3.028050184E0,8.550105260E0
2.961318776E0,7.642050266E0,8.970000148E-1,2.727000237E0,8.163459536E0
2.963817238E0,7.633050442E0,1.282050014E0,2.638050079E0,8.177188973E0
2.966315774E0,7.477050304E0,1.261050105E0,1.540950060E0,7.737638898E0
2.968814238E0,7.207050323E0,1.219950080E0,9.480000734E-1,7.370790779E0
2.971312699E0,6.916950226E0,1.171950102E0,7.270500064E-1,7.053103514E0
2.973811161E0,6.979050159E0,1.180050015E0,6.390000582E-1,7.106896667E0
2.976309627E0,7.522950172E0,1.540950060E0,1.579500139E-1,7.680771744E0
2.978808317E0,7.566000462E0,1.630050063E0,-3.949500322E-1,7.749671717E0
2.981306781E0,7.422000408E0,1.740000129E0,-7.369500399E-1,7.658771825E0
2.983805243E0,7.258950233E0,2.098950148E0,-1.077000022E0,7.632684931E0
2.986303704E0,6.936000347E0,2.259000063E0,-1.546050072E0,7.456638178E0
2.988802166E0,6.766050339E0,2.407950163E0,-1.860000134E0,7.418710243E0
2.991300702E0,6.720000267E0,2.535000086E0,-1.966950059E0,7.446712131E0
2.993799166E0,6.844950199E0,2.464950085E0,-2.194950104E0,7.599153118E0
2.996297627E0,6.889950275E0,2.434050083E0,-2.494050026E0,7.721159248E0
2.998796347E0,7.048050404E0,2.443950176E0,-2.652000189E0,7.917134075E0
3.001294810E0,7.252050400E0,2.548950195E0,-2.707050085E0,8.149693385E0
3.003793272E0,7.149000168E0,2.391000032E0,-2.695050240E0,8.005521866E0
3.006291808E0,7.051050186E0,2.350050211E0,-2.662050009E0,7.894716903E0
3.008790195E0,7.128000259E0,2.142000198E0,-2.463000059E0,7.839829197E0
3.011288716E0,7.068000317E0,1.692000031E0,-2.169000149E0,7.584461367E0
3.013787180E0,6.874050140E0,1.327950120E0,-1.357050061E0,7.131451586E0
3.016285641E0,6.436050415E0,1.950000077E-1,-6.000000238E-1,6.466898018E0
3.018784332E0,6.202950478E0,-8.070000410E-1,-1.339500099E-1,6.256659356E0
3.021282795E0,5.904000282E0,-1.575000048E0,6.460500360E-1,6.144528064E0
3.023781262E0,5.578050137E0,-2.194950104E0,1.197000027E0,6.112712847E0
3.026279798E0,5.392050266E0,-2.260050058E0,1.774050117E0,6.109769730E0
3.028778262E0,5.551950455E0,-2.107050180E0,2.560950041E0,6.467014723E0
3.031276723E0,6.160050392E0,-1.798050046E0,3.457050085E0,7.289060302E0
3.033775185E0,6.546000481E0,-1.486950040E0,4.297049999E0,7.970306231E0
3.036273875E0,6.840000153E0,-1.282950044E0,4.599000454E0,8.341604646E0
3.038772339E0,6.607950211E0,-1.726050138E0,4.366950035E0,8.106448524E0
3.041270800E0,7.450950146E0,-1.015050054E0,5.487000465E0,9.308821558E0
3.043769262E0,7.474950314E0,-1.029000044E0,4.939050198E0,9.018200493E0
3.046267718E0,7.822050571E0,-7.180500627E-1,4.861950397E0,9.237891139E0
3.048766255E0,7.750050545E0,-9.139500260E-1,4.411950111E0,8.964591005E0
3.051264718E0,7.438950539E0,-1.225950003E0,3.744000196E0,8.417747680E0
3.053763180E0,7.954050541E0,-1.021950006E0,3.670050144E0,8.819329333E0
3.056261870E0,8.116050720E0,-9.810000658E-1,3.226950169E0,8.788961703E0
3.058760344E0,8.513999939E0,-1.045950055E0,2.797950029E0,9.022789527E0
3.061258805E0,8.320050240E0,-1.378950119E0,2.044049978E0,8.677723188E0
3.063757342E0,8.686050415E0,-1.207050085E0,1.996050119E0,8.993812195E0
3.066255728E0,9.108000755E0,-1.156050086E0,1.810050130E0,9.357799476E0
3.068754265E0,9.367950439E0,-1.168050051E0,1.591950059E0,9.573773621E0
3.071252718E0,9.414000511E0,-1.258950114E0,1.141950011E0,9.566211938E0
3.073751180E0,9.562050819E0,-1.116000056E0,1.146000028E0,9.694925893E0
3.076249870E0,9.663000107E0,-1.060050011E0,1.004999995E0,9.772783743E0
3.078748334E0,9.682050705E0,-1.032000065E0,6.319500208E-1,9.757381350E0
3.081246795E0,9.820950508E0,-9.739500284E-1,4.570500255E-1,9.879703552E0
3.083745342E0,9.529050827E0,-1.177950025E0,2.890500128E-1,9.605931805E0
3.086243805E0,9.607950211E0,-1.072050095E0,2.389500141E-1,9.670527171E0
3.088742267E0,9.469050407E0,-1.162950039E0,4.090500176E-1,9.548962788E0
3.091240728E0,9.330000877E0,-1.422000051E0,4.740000367E-1,9.449638964E0
3.093739419E0,9.154950142E0,-1.626000047E0,5.410500169E-1,9.313953155E0
3.096237863E0,9.019050598E0,-1.756950140E0,7.150500417E-1,9.216368268E0
3.098736325E0,8.586000443E0,-2.005950212E0,1.003050089E0,8.874083014E0
3.101234786E0,8.233950615E0,-2.277000189E0,1.266000032E0,8.636285583E0
3.103733323E0,7.864950180E0,-2.515950203E0,1.539000034E0,8.399759988E0
3.106231709E0,7.711950302E0,-2.665050030E0,1.800000072E0,8.355636982E0
3.108730241E0,7.633050442E0,-2.869950056E0,2.038950205E0,8.405795043E0
3.111228704E0,7.602000237E0,-3.073950052E0,2.242950201E0,8.501200040E0
3.113727166E0,7.561050415E0,-3.256050110E0,2.377050161E0,8.568647102E0
3.116225856E0,7.530000210E0,-3.439950228E0,2.566050053E0,8.667108722E0
3.118724310E0,7.549050331E0,-3.664950132E0,2.731050014E0,8.824888359E0
3.121222771E0,7.630050182E0,-3.877950191E0,2.776950121E0,8.998200678E0
3.123721308E0,7.786050320E0,-4.036050320E0,2.953950167E0,9.254085765E0
3.126219771E0,7.993950367E0,-4.052999973E0,3.028050184E0,9.460398468E0
3.128718233E0,8.056050301E0,-4.113000393E0,2.952000141E0,9.514779215E0
3.131216923E0,8.161950111E0,-4.165950298E0,2.848950148E0,9.596305980E0
3.133715156E0,8.122950554E0,-4.242000103E0,2.692950010E0,9.551380546E0
3.136213846E0,8.200050354E0,-4.405050278E0,2.500950098E0,9.638466950E0
3.138712310E0,8.140049934E0,-4.651950359E0,2.443950176E0,9.688856875E0
3.141210795E0,8.005949974E0,-4.858050346E0,2.395950079E0,9.666253925E0
3.143709257E0,7.897950172E0,-5.023050308E0,2.311950207E0,9.641253294E0
3.146207793E0,7.530000210E0,-5.427000046E0,2.367000103E0,9.578931159E0
3.148706257E0,7.411950588E0,-5.596950054E0,2.137950182E0,9.530671142E0
3.151204719E0,7.426950455E0,-5.722050190E0,1.951050043E0,9.576431888E0
3.153703404E0,7.555950165E0,-5.712000370E0,1.675050020E0,9.618998061E0
3.156201867E0,7.762050152E0,-5.599950314E0,1.644000053E0,9.711416078E0
3.158700329E0,8.310000420E0,-5.140050411E0,1.644000053E0,9.908529728E0
3.161198865E0,9.181950569E0,-4.539000034E0,1.837950110E0,1.040619038E1
3.163697329E0,9.658050537E0,-4.092000008E0,1.924050093E0,1.066416302E1
3.166195780E0,9.922050476E0,-3.934050083E0,2.085000038E0,1.087524992E1
3.168694471E0,9.868950844E0,-4.033950329E0,2.035050154E0,1.085404879E1
3.171192934E0,9.478950500E0,-4.278000355E0,2.106000185E0,1.061070339E1
3.173691396E0,9.345000267E0,-4.471950054E0,2.632950068E0,1.068923727E1
3.176189848E0,9.325050354E0,-4.546050072E0,2.784000158E0,1.074121931E1
3.178688310E0,9.277050018E0,-4.563000202E0,3.286950111E0,1.084844085E1
3.181186846E0,9.333000183E0,-4.525050163E0,3.733950138E0,1.102376320E1
3.183685310E0,9.364050865E0,-4.486950397E0,4.000050068E0,1.112737943E1
3.186183772E0,9.442950249E0,-4.417050362E0,4.345050335E0,1.129420673E1
3.188682228E0,9.451950073E0,-4.441050053E0,4.467000008E0,1.135853753E1
3.191180918E0,9.184050560E0,-4.546050072E0,4.266000271E0,1.110009524E1
3.193679382E0,9.136050224E0,-4.609050274E0,4.752000332E0,1.128238739E1
3.196177918E0,8.593050003E0,-4.695000172E0,4.600950241E0,1.081907011E1
3.198676305E0,8.395950317E0,-4.672950268E0,5.062950134E0,1.086102712E1
3.201174841E0,7.872000217E0,-4.633050442E0,4.861950397E0,1.034756520E1
3.203673305E0,7.732950211E0,-4.597050190E0,5.272050381E0,1.042717146E1
3.206171767E0,7.324050426E0,-4.611000061E0,5.106000423E0,1.004859575E1
3.208670457E0,7.216050148E0,-4.651950359E0,5.014950275E0,9.942924527E0
3.211168676E0,6.712950230E0,-4.882050037E0,4.489050388E0,9.436614157E0
3.213667366E0,6.366000175E0,-5.194950104E0,4.429050446E0,9.334342648E0
3.216165830E0,5.691000462E0,-5.671950340E0,4.285050392E0,9.106050943E0
3.218664291E0,6.345000267E0,-6.076050282E0,5.623950481E0,1.043102269E1
3.221162828E0,6.190950394E0,-6.667950153E0,4.896000385E0,1.033248498E1
3.223661291E0,5.736000061E0,-7.161000252E0,4.386000156E0,1.016949451E1
3.226159753E0,5.506950378E0,-7.570050240E0,3.756000280E0,1.008661000E1
3.228658443E0,5.595000267E0,-7.699950218E0,3.073950052E0,1.000212129E1
3.231156676E0,5.464050293E0,-7.831050396E0,2.169000149E0,9.792127325E0
3.233655366E0,5.776950359E0,-7.843050480E0,1.888950109E0,9.922435628E0
3.236153830E0,8.065950394E0,-7.702050209E0,1.108050108E0,1.120753801E1
3.238652291E0,9.852000237E0,-7.819050312E0,3.660000265E-1,1.258306054E1
3.241150828E0,1.064895058E1,-7.987050533E0,-1.429500133E-1,1.331215833E1
3.243649291E0,1.077105045E1,-7.905000210E0,-3.130500019E-1,1.336422674E1
3.246147743E0,1.183905029E1,-7.587000370E0,-3.660000265E-1,1.406625901E1
3.248646433E0,1.279200077E1,-7.357050419E0,-5.329500437E-1,1.476636415E1
3.251144897E0,1.247595024E1,-7.302000523E0,-4.759500325E-1,1.446357751E1
3.253643358E0,1.352505112E1,-6.928950310E0,4.590000212E-1,1.520355357E1
3.256141820E0,1.513905048E1,-6.355950356E0,1.459950089E0,1.648394397E1
3.258640300E0,1.495200062E1,-5.997000217E0,2.644950151E0,1.632550445E1
3.261138837E0,1.407795048E1,-5.875050068E0,4.807050228E0,1.599414377E1
3.263637300E0,1.376700020E1,-5.680950165E0,6.970950127E0,1.644377192E1
3.266135762E0,1.371600056E1,-5.925000191E0,8.212050438E0,1.704910763E1
3.268634223E0,1.228500080E1,-6.322950363E0,9.030000687E0,1.650581287E1
3.271132885E0,1.079805088E1,-6.664950371E0,1.020405006E1,1.628318470E1
3.273631348E0,1.067805004E1,-7.068000317E0,1.096500015E1,1.685848776E1
3.276129810E0,1.011795044E1,-7.477050304E0,1.187700081E1,1.730151296E1
3.278628346E0,9.412050247E0,-7.885950565E0,1.289700031E1,1.780751311E1
3.281126820E0,8.712000847E0,-8.442000389E0,1.321605110E1,1.793963032E1
3.283625281E0,8.197950363E0,-8.941950798E0,1.346505070E1,1.812380933E1
3.286123972E0,7.839000225E0,-9.502050400E0,1.336395073E1,1.817509465E1
3.288622435E0,7.186950207E0,-1.030200005E1,1.285200024E1,1.797101467E1
3.291120897E0,7.435950279E0,-1.098900032E1,1.216200066E1,1.799904843E1
3.293619348E0,8.145000458E0,-1.158495045E1,1.155900097E1,1.828011523E1
3.296117810E0,7.000950336E0,-1.235895061E1,1.108695030E1,1.801880776E1
3.298616346E0,7.530000210E0,-1.293600082E1,1.035195065E1,1.819900829E1
3.301114810E0,7.261950493E0,-1.358505058E1,9.796950340E0,1.825567748E1
3.303613290E0,7.261950493E0,-1.412100029E1,8.611050606E0,1.806346497E1
3.306111981E0,7.491000175E0,-1.401300049E1,8.037000656E0,1.780653380E1
3.308610444E0,7.977000237E0,-1.377600098E1,7.456950188E0,1.757887487E1
3.311108906E0,8.116050720E0,-1.385295105E1,7.024050236E0,1.752460595E1
3.313607442E0,8.788949966E0,-1.398000050E1,6.354000092E0,1.769348390E1
3.316105901E0,8.752950668E0,-1.421400070E1,5.875050068E0,1.769655827E1
3.318604362E0,9.025950432E0,-1.465500069E1,5.322000027E0,1.801556301E1
3.321102824E0,8.800950050E0,-1.517700100E1,4.783050060E0,1.818448924E1
3.323601285E0,8.655000687E0,-1.569600105E1,3.829950094E0,1.832872073E1
3.326099976E0,7.912950516E0,-1.610805130E1,2.968050241E0,1.819047621E1
3.328598430E0,6.831000328E0,-1.660800171E1,1.774050117E0,1.804537448E1
3.331096892E0,5.911050320E0,-1.668704987E1,1.399950027E0,1.775832225E1
3.333595353E0,4.921950340E0,-1.686495018E1,8.689500690E-1,1.758997481E1
3.336093890E0,4.282950401E0,-1.693200111E1,4.810500145E-1,1.747191275E1
3.338592353E0,3.787950277E0,-1.711800003E1,-1.600500047E-1,1.753282945E1
3.341090829E0,3.352050066E0,-1.712100029E1,-3.589500189E-1,1.744974887E1
3.343589290E0,3.096000195E0,-1.694400024E1,-2.100000083E-1,1.722580801E1
3.346087981E0,2.566950083E0,-1.688100052E1,-1.690500081E-1,1.707588912E1
3.348586444E0,2.185950041E0,-1.678605080E1,-3.490500152E-1,1.693138254E1
3.351084906E0,2.092050076E0,-1.644600105E1,-4.399500191E-1,1.658436553E1
3.353583436E0,2.479950190E0,-1.563405037E1,-2.595000155E-2,1.582954065E1
3.356081823E0,3.012000084E0,-1.495200062E1,4.350000322E-1,1.525856127E1
3.358580359E0,3.172050238E0,-1.411605072E1,1.443000078E0,1.453984319E1
3.361078823E0,3.342000246E0,-1.333800030E1,2.085000038E0,1.390749592E1
3.363577284E0,3.412050247E0,-1.235895061E1,2.971050024E0,1.316103664E1
3.366075999E0,3.550950050E0,-1.143495083E1,3.817950249E0,1.256758095E1
3.368574462E0,3.438000202E0,-1.036695004E1,4.465050220E0,1.179958355E1
3.371072924E0,3.292050123E0,-9.297000885E0,4.528950214E0,1.085279731E1
3.373571460E0,2.677050114E0,-8.241000175E0,4.762050152E0,9.887254566E0
3.376069833E0,1.980000138E0,-7.405050278E0,4.944000244E0,9.121310683E0
3.378568369E0,1.045950055E0,-6.780000210E0,4.951050282E0,8.460219457E0
3.381066833E0,2.299500108E-1,-6.060000420E0,5.128050327E0,7.941875235E0
3.383565294E0,-5.590500236E-1,-5.224050045E0,5.049000263E0,7.286675474E0
3.386063985E0,-9.040500522E-1,-4.372050285E0,5.005950451E0,6.707583031E0
3.388562453E0,-9.469500184E-1,-3.795000076E0,5.226000309E0,6.527619715E0
3.391060915E0,-1.030950069E0,-3.346950054E0,5.214000225E0,6.280981695E0
3.393559451E0,-8.029500246E-1,-2.880000114E0,4.888050079E0,5.729935687E0
3.396057915E0,-5.689499974E-1,-2.497050047E0,4.282950401E0,4.990253218E0
3.398556376E0,-1.020000055E-1,-2.076000214E0,3.658050060E0,4.207316381E0
3.401054838E0,4.450500309E-1,-1.630050063E0,3.286950111E0,3.695831946E0
3.403553528E0,8.449500203E-1,-1.153950095E0,2.887050152E0,3.221893843E0
3.406051992E0,1.036949992E0,-9.000000358E-1,2.652000189E0,2.986364069E0
3.408550453E0,1.141950011E0,-7.950000167E-1,2.250000000E0,2.645481970E0
3.411048990E0,1.213950038E0,-7.519500256E-1,1.836000085E0,2.325940637E0
3.413547376E0,1.105949998E0,-9.529500604E-1,1.096050024E0,1.825531394E0
3.416045913E0,1.101000071E0,-1.249950051E0,5.550000072E-1,1.755733834E0
3.418544376E0,9.150000215E-1,-1.795050144E0,-1.339500099E-1,2.019250521E0
3.421042838E0,6.990000606E-1,-2.329050064E0,-6.360000372E-1,2.513477936E0
3.423541528E0,6.660000086E-1,-2.698050022E0,-9.640500546E-1,2.941500032E0
3.426039982E0,6.030000448E-1,-3.201000214E0,-1.228050113E0,3.481108803E0
3.428538443E0,4.240500331E-1,-3.754050255E0,-1.470000029E0,4.053839147E0
3.431036980E0,3.259500265E-1,-4.173000336E0,-1.402050018E0,4.414285840E0
3.433535443E0,4.020000100E-1,-4.539000034E0,-1.297050118E0,4.737769974E0
3.436033915E0,5.479500294E-1,-4.780950069E0,-1.110000014E0,4.938606365E0
3.438532377E0,6.780000329E-1,-5.004000187E0,-8.230500221E-1,5.116357420E0
3.441030838E0,6.889500618E-1,-5.350950241E0,-5.209500194E-1,5.420213058E0
3.443529528E0,6.940500140E-1,-5.641050339E0,-1.500000060E-1,5.685565438E0
3.446027992E0,6.559500098E-1,-5.923050404E0,3.079500198E-1,5.967212893E0
3.448526433E0,5.580000281E-1,-6.241950512E0,7.440000176E-1,6.310851468E0
3.451024970E0,3.900000155E-1,-6.553050518E0,1.141950011E0,6.663229017E0
3.453523357E0,2.560500205E-1,-6.799050331E0,1.573050022E0,6.983346862E0
3.456021893E0,2.149500102E-1,-7.081950188E0,1.953000069E0,7.349451084E0
3.458520357E0,1.219500080E-1,-7.338000298E0,2.334000111E0,7.701212676E0
3.461018852E0,-1.605000161E-2,-7.636950493E0,2.668950081E0,8.089905127E0
3.463517542E0,-2.500500083E-1,-7.948950291E0,2.889000177E0,8.461362642E0
3.466016006E0,-4.080000222E-1,-8.277000427E0,2.973000050E0,8.804199531E0
3.468514468E0,-6.259500384E-1,-8.619000435E0,3.121950150E0,9.188337972E0
3.471013004E0,-8.419500589E-1,-9.032999992E0,3.105000257E0,9.588795303E0
3.473511473E0,-1.134000063E0,-9.447000504E0,3.121950150E0,1.001390770E1
3.476009934E0,-1.503000021E0,-9.826050758E0,3.088050127E0,1.040895461E1
3.478508624E0,-1.861950040E0,-1.022805023E1,3.126000166E0,1.085595443E1
3.481006857E0,-2.163000107E0,-1.062300014E1,3.157050133E0,1.129130936E1
3.483505547E0,-2.398050070E0,-1.094895077E1,3.069000244E0,1.162105544E1
3.486004011E0,-2.640000105E0,-1.118595028E1,2.983050108E0,1.187407563E1
3.488502473E0,-2.748000145E0,-1.135605049E1,2.889000177E0,1.203568484E1
3.491000934E0,-2.865000248E0,-1.146600056E1,2.749950171E0,1.213423344E1
3.493499471E0,-2.865000248E0,-1.149405098E1,2.569050074E0,1.212111598E1
3.495997934E0,-2.611050129E0,-1.136805058E1,2.427000046E0,1.191387787E1
3.498496396E0,-2.436000109E0,-1.129800034E1,2.068050146E0,1.174119839E1
3.500995086E0,-2.341050148E0,-1.110405064E1,1.690050125E0,1.147330492E1
3.503493550E0,-2.077050209E0,-1.078605080E1,1.330950022E0,1.106455861E1
3.505992011E0,-1.717950106E0,-1.034805012E1,1.041000009E0,1.054121316E1
3.508490538E0,-1.203000069E0,-9.957000732E0,4.980000257E-1,1.004176662E1
3.510989001E0,-8.350500464E-1,-9.795000076E0,-2.050500065E-1,9.832669047E0
3.513487463E0,-4.849500358E-1,-9.640950203E0,-6.750000119E-1,9.676710307E0
3.515985924E0,-1.549500078E-1,-9.592950821E0,-1.033950090E0,9.649754802E0
3.518484614E0,2.400000021E-2,-9.556950569E0,-1.306950092E0,9.645931719E0
3.520983078E0,5.050500035E-1,-9.391950607E0,-1.543950081E0,9.531400399E0
3.523481540E0,8.790000677E-1,-9.328050613E0,-1.438050032E0,9.479090529E0
3.525980001E0,1.246950030E0,-9.189000130E0,-1.311000109E0,9.365432667E0
3.528478538E0,1.474950075E0,-9.070950508E0,-9.520500302E-1,9.239265128E0
3.530977001E0,1.738050103E0,-8.916000366E0,-7.510500550E-1,9.114820727E0
3.533475444E0,2.053950071E0,-8.763000488E0,-4.260000288E-1,9.010569598E0
3.535973905E0,2.161950111E0,-8.671950340E0,-1.570500135E-1,8.938759181E0
3.538472367E0,2.169000149E0,-8.617050171E0,2.440500110E-1,8.889188698E0
3.540971057E0,2.205000162E0,-8.539950371E0,7.320000529E-1,8.850344746E0
3.543469521E0,2.278950214E0,-8.434950829E0,1.258950114E0,8.827625102E0
3.545967997E0,2.289000034E0,-8.403000832E0,1.861950040E0,8.905998096E0
3.548466534E0,2.334000111E0,-8.407950401E0,2.338950157E0,9.033929062E0
3.550964997E0,2.229000092E0,-8.359950066E0,2.659050226E0,9.051395175E0
3.553463459E0,2.107050180E0,-8.437050819E0,3.013950109E0,9.203661350E0
3.555962149E0,1.957950115E0,-8.607000351E0,3.301050186E0,9.423956495E0
3.558460353E0,1.860000134E0,-8.664000511E0,3.598050117E0,9.564019553E0
3.560959043E0,1.846050143E0,-8.695950508E0,3.757950068E0,9.651406378E0
3.563457507E0,2.052000046E0,-8.581050873E0,3.691050291E0,9.563942206E0
3.565955968E0,2.362950087E0,-8.418000221E0,3.382950068E0,9.374999306E0
3.568454505E0,2.626050234E0,-8.253000259E0,3.022950172E0,9.173133644E0
3.570952983E0,2.923050165E0,-8.092050552E0,2.683050156E0,9.012450419E0
3.573451445E0,3.241950035E0,-7.891050339E0,2.106000185E0,8.787158372E0
3.575950135E0,3.250950098E0,-7.774050236E0,1.459950089E0,8.551958131E0
3.578448599E0,3.268050194E0,-7.594050407E0,7.560000420E-1,8.301884709E0
3.580947055E0,3.105000257E0,-7.459950447E0,-9.495000541E-2,8.080897399E0
3.583445517E0,2.662050009E0,-7.387950420E0,-1.162950039E0,7.938562493E0
3.585943978E0,2.278950214E0,-7.342950344E0,-1.849950075E0,7.907897895E0
3.588442515E0,1.824000120E0,-7.374000549E0,-1.788000107E0,7.803832707E0
3.590940978E0,1.578000069E0,-7.290000439E0,-1.584000111E0,7.625171930E0
3.593439430E0,1.482000113E0,-7.182000160E0,-1.302000046E0,7.447996694E0
3.595938120E0,1.480050087E0,-7.056000233E0,-1.018950105E0,7.281205042E0
3.598436584E0,1.329000115E0,-6.925950527E0,-7.129500508E-1,7.088252943E0
3.600935045E0,1.048950076E0,-6.904950142E0,-5.290500522E-1,7.004179230E0
3.603433507E0,7.920000553E-1,-6.900000095E0,-2.389500141E-1,6.949414545E0
3.605932034E0,7.159500122E-1,-6.804000378E0,1.309500039E-1,6.842817655E0
3.608430498E0,5.359500051E-1,-6.696000099E0,4.189500213E-1,6.730466466E0
3.610928959E0,1.920000017E-1,-6.589050293E0,6.319500208E-1,6.622069812E0
3.613427650E0,-7.605000585E-2,-6.475950241E0,7.180500627E-1,6.516080956E0
3.615925882E0,-3.490500152E-1,-6.379950523E0,6.270000339E-1,6.420181745E0
3.618424582E0,-5.449500084E-1,-6.226950169E0,5.449500084E-1,6.274460090E0
3.620923045E0,-6.360000372E-1,-6.112050056E0,4.620000124E-1,6.162393687E0
3.623421507E0,-6.910500526E-1,-6.043050289E0,3.319500089E-1,6.091485679E0
3.625920043E0,-6.450000405E-1,-5.995050430E0,2.650500238E-1,6.035470672E0
3.628418507E0,-7.009500265E-1,-6.028050423E0,2.080500126E-1,6.072232509E0
3.630916968E0,-6.979500055E-1,-6.061950207E0,2.490000129E-1,6.107075857E0
3.633415659E0,-6.100500226E-1,-6.160050392E0,1.189500093E-1,6.191327077E0
3.635914122E0,-5.230500102E-1,-6.237000465E0,-3.105000220E-2,6.258971179E0
3.638412584E0,-5.500500202E-1,-6.379950523E0,-9.795000404E-2,6.404367097E0
3.640911045E0,-4.800000191E-1,-6.498000145E0,-1.480500102E-1,6.517386340E0
3.643409507E0,-3.850500286E-1,-6.649050236E0,-1.099500060E-1,6.661097625E0
3.645908043E0,-2.670000196E-1,-6.799050331E0,-7.395000011E-2,6.804692720E0
3.648406507E0,-1.279500127E-1,-6.868950367E0,-1.189500093E-1,6.871171622E0
3.650904968E0,2.205000073E-2,-6.925950527E0,-8.805000782E-2,6.926545294E0
3.653403645E0,3.229500055E-1,-6.943050385E0,-9.000000544E-3,6.950563024E0
3.655902108E0,5.389500260E-1,-6.945000172E0,-1.099500060E-1,6.966748418E0
3.658400570E0,8.710500598E-1,-6.904950142E0,-2.149500102E-1,6.962992760E0
3.660899031E0,9.240000248E-1,-6.991050243E0,-3.850500286E-1,7.062352517E0
3.663397568E0,1.069950104E0,-7.053000450E0,-3.490500152E-1,7.142229658E0
3.665896036E0,1.021950006E0,-7.204050541E0,-1.960500032E-1,7.278815949E0
3.668394498E0,7.950000167E-1,-7.360050201E0,-2.920500040E-1,7.408620465E0
3.670892959E0,7.830000520E-1,-7.435950279E0,-3.270000219E-1,7.484208352E0
3.673391650E0,7.249500155E-1,-7.543950558E0,-3.490500152E-1,7.586737010E0
3.675890113E0,8.239500523E-1,-7.531950474E0,-5.050500035E-1,7.593697856E0
3.678388579E0,1.077000022E0,-7.455000401E0,-6.270000339E-1,7.558444884E0
3.680887040E0,1.456050038E0,-7.306950569E0,-7.200000286E-1,7.485319524E0
3.683385577E0,2.037000179E0,-7.075050354E0,-8.689500690E-1,7.413553902E0
3.685884040E0,2.530950069E0,-6.973950386E0,-1.054949999E0,7.493638084E0
3.688382502E0,2.677050114E0,-6.993000507E0,-1.069950104E0,7.563957075E0
3.690881183E0,2.670000076E0,-7.048050404E0,-1.165050030E0,7.626352763E0
3.693379647E0,2.157000065E0,-7.342950344E0,-1.222950101E0,7.750301671E0
3.695878108E0,1.597050071E0,-7.714050293E0,-1.137000084E0,7.959265672E0
3.698376645E0,1.357050061E0,-7.929000378E0,-1.141050100E0,8.124815517E0
3.700875108E0,1.420050025E0,-8.047050476E0,-9.619500637E-1,8.227813280E0
3.703373584E0,1.570950031E0,-8.122950554E0,-8.590500355E-1,8.317943055E0
3.705872045E0,1.762050033E0,-8.158950806E0,-6.990000606E-1,8.376270032E0
3.708370507E0,1.735950112E0,-8.310000420E0,-5.329500437E-1,8.506095786E0
3.710869197E0,1.554000020E0,-8.562000275E0,-3.990000188E-1,8.711025530E0
3.713367656E0,1.432050109E0,-8.779050827E0,-2.959500253E-1,8.900004908E0
3.715866117E0,1.354950070E0,-8.985000610E0,-1.290000081E-1,9.087506075E0
3.718364579E0,1.326000094E0,-9.178950310E0,1.309500039E-1,9.275157839E0
3.720863115E0,1.252050042E0,-9.370950699E0,2.700000107E-1,9.458078363E0
3.723361579E0,1.240050077E0,-9.538050652E0,3.370500207E-1,9.624226574E0
3.725860051E0,1.156050086E0,-9.703950882E0,4.690500200E-1,9.783819420E0
3.728358512E0,9.859500527E-1,-9.967050552E0,5.910000205E-1,1.003311892E1
3.730857202E0,8.400000334E-1,-1.020900059E1,7.489500642E-1,1.027084316E1
3.733355666E0,7.489500642E-1,-1.044105053E1,9.480000734E-1,1.051071675E1
3.735854111E0,6.780000329E-1,-1.069695091E1,1.246950030E0,1.079070560E1
3.738352648E0,6.850500107E-1,-1.092495060E1,1.563000083E0,1.105743227E1
3.740851111E0,9.499500394E-1,-1.108995056E1,1.872000098E0,1.128688588E1
3.743349573E0,1.246950030E0,-1.120500088E1,2.224050045E0,1.149144585E1
3.745848263E0,1.435950041E0,-1.139100075E1,2.560950041E0,1.176330377E1
3.748346742E0,1.609050035E0,-1.156605053E1,2.851050138E0,1.202044316E1
3.750845203E0,1.827000141E0,-1.181505013E1,3.363000154E0,1.241946492E1
3.753343665E0,1.684950113E0,-1.216500092E1,3.318000078E0,1.272145545E1
3.755842127E0,1.602000117E0,-1.250700092E1,3.583950281E0,1.310862983E1
3.758340663E0,1.609050035E0,-1.286895084E1,3.790050268E0,1.351160312E1
3.760839103E0,1.401000023E0,-1.327095032E1,3.745950222E0,1.386048579E1
3.763337564E0,1.120050073E0,-1.361595058E1,3.627000093E0,1.413519551E1
3.765836026E0,7.279500365E-1,-1.396500111E1,3.295950174E0,1.436713105E1
3.768334716E0,3.850500286E-1,-1.426905060E1,2.928000212E0,1.457145338E1
3.770833193E0,1.170000061E-1,-1.441500092E1,2.466000080E0,1.462487938E1
3.773331655E0,-5.400000140E-2,-1.447305107E1,1.888950109E0,1.459589860E1
3.775830191E0,-1.930500120E-1,-1.447995090E1,1.411950111E0,1.454990892E1
3.778328655E0,-3.010500073E-1,-1.443900108E1,8.830500245E-1,1.446911057E1
3.780827117E0,-3.529500067E-1,-1.435995102E1,2.719500065E-1,1.436686200E1
3.783325826E0,-4.039500058E-1,-1.431705093E1,-1.740000099E-1,1.432380533E1
3.785824059E0,-3.730500042E-1,-1.425000095E1,-5.550000072E-1,1.426568325E1
3.788322749E0,-1.000500023E-1,-1.411395073E1,-1.024049997E0,1.415140606E1
3.790821213E0,1.920000017E-1,-1.398405075E1,-1.278000116E0,1.404363997E1
3.793319674E0,6.060000062E-1,-1.378800106E1,-1.921950102E0,1.393449323E1
3.795818221E0,1.051050067E0,-1.356495094E1,-2.487000227E0,1.383104372E1
3.798316684E0,1.456050038E0,-1.337595081E1,-3.138000250E0,1.381604818E1
3.800815146E0,2.008949995E0,-1.321095085E1,-3.610050201E0,1.384187722E1
3.803313836E0,2.476050138E0,-1.300005054E1,-4.150950432E0,1.386948189E1
3.805812069E0,2.902050257E0,-1.282800102E1,-4.399950027E0,1.386863606E1
3.808310764E0,3.354000092E0,-1.258605099E1,-4.387950420E0,1.374453000E1
3.810809228E0,3.913950205E0,-1.225305080E1,-4.479000092E0,1.362048832E1
3.813307689E0,4.135050297E0,-1.200405025E1,-4.264050007E0,1.339320671E1
3.815806226E0,4.177950382E0,-1.186095047E1,-4.117050171E0,1.323206399E1
3.818304665E0,3.967050076E0,-1.182195091E1,-3.876000166E0,1.305830720E1
3.820803127E0,3.451950073E0,-1.203300095E1,-3.562050104E0,1.301527072E1
3.823301588E0,3.220050097E0,-1.227705097E1,-3.402000189E0,1.314033137E1
3.825800279E0,3.328050137E0,-1.247100067E1,-3.136050224E0,1.328294344E1
3.828298742E0,3.286950111E0,-1.260795021E1,-2.986950159E0,1.336736028E1
3.830797218E0,3.223050117E0,-1.275405025E1,-2.710050106E0,1.343124051E1
3.833295754E0,3.189000130E0,-1.290495014E1,-2.443950176E0,1.351592958E1
3.835794218E0,3.253950119E0,-1.301505089E1,-2.188050032E0,1.359291374E1
3.838292679E0,3.289950132E0,-1.313400078E1,-1.978950143E0,1.368363957E1
3.840791369E0,3.378000259E0,-1.328805065E1,-1.753950119E0,1.382242804E1
3.843289612E0,3.439950228E0,-1.341900063E1,-1.507950068E0,1.393473174E1
3.845788303E0,3.457050085E0,-1.349805069E1,-1.489050031E0,1.401305954E1
3.848286766E0,3.322950125E0,-1.366095066E1,-1.447950125E0,1.413365240E1
3.850785228E0,3.249000072E0,-1.377600098E1,-1.255950093E0,1.420956069E1
3.853283764E0,3.136050224E0,-1.391505051E1,-9.280500412E-1,1.429421976E1
3.855782237E0,2.743950129E0,-1.411800098E1,-5.260500312E-1,1.439180123E1
3.858280698E0,2.545050144E0,-1.424295044E1,-2.269500047E-1,1.447032908E1
3.860779389E0,2.397000074E0,-1.439595032E1,6.405000389E-2,1.459428303E1
3.863277852E0,2.071050167E0,-1.458795071E1,3.589500189E-1,1.473860237E1
3.865776314E0,1.759950042E0,-1.475505066E1,4.540500343E-1,1.486657679E1
3.868274761E0,1.417050123E0,-1.481295109E1,6.000000238E-1,1.489266769E1
3.870773223E0,1.175999999E0,-1.486995029E1,8.539500237E-1,1.494080414E1
3.873271759E0,1.089000106E0,-1.483395100E1,1.048050046E0,1.491074888E1
3.875770223E0,9.889500737E-1,-1.476705074E1,1.206000090E0,1.484918335E1
3.878268684E0,7.920000553E-1,-1.470495033E1,1.558050036E0,1.480845530E1
3.880767375E0,6.750000119E-1,-1.461600113E1,1.843050122E0,1.474720135E1
3.883265838E0,3.469500244E-1,-1.454205036E1,2.014950037E0,1.468508177E1
3.885764300E0,-1.429500133E-1,-1.447800064E1,2.266950130E0,1.465510151E1
3.888262761E0,-5.260500312E-1,-1.432905102E1,2.628000021E0,1.457754492E1
3.890761298E0,-8.820000291E-1,-1.421400070E1,3.213000059E0,1.459928455E1
3.893259756E0,-1.246050000E0,-1.407300091E1,3.607950211E0,1.458147112E1
3.895758218E0,-1.639050126E0,-1.395795059E1,4.017000198E0,1.461667406E1
3.898256908E0,-1.950000048E0,-1.381695080E1,4.459950447E0,1.464929307E1
3.900755372E0,-2.151000023E0,-1.364205074E1,4.872000217E0,1.464475113E1
3.903253833E0,-2.134950161E0,-1.337100029E1,5.209050179E0,1.450778635E1
3.905752309E0,-1.972050071E0,-1.315095043E1,5.803050041E0,1.450902714E1
3.908250845E0,-1.870950103E0,-1.296000099E1,6.241050243E0,1.450561230E1
3.910749309E0,-1.960050106E0,-1.271505070E1,6.246000290E0,1.430128771E1
3.913247770E0,-1.876050115E0,-1.242300034E1,6.301050186E0,1.405538099E1
3.915746242E0,-1.918950081E0,-1.224900055E1,6.189000130E0,1.385727630E1
3.918244932E0,-1.897950053E0,-1.197795010E1,6.190950394E0,1.361621716E1
3.920743165E0,-1.728000045E0,-1.172895050E1,6.142950058E0,1.335253157E1
3.923241855E0,-1.474050045E0,-1.147305012E1,6.073950291E0,1.306508992E1
3.925740334E0,-1.122000098E0,-1.112100029E1,5.827050209E0,1.260515949E1
3.928238795E0,-6.859500408E-1,-1.068000031E1,5.664000034E0,1.210841981E1
3.930737332E0,-1.380000114E-1,-1.019400024E1,5.512950420E0,1.159005208E1
3.933235795E0,3.160500228E-1,-9.687000275E0,5.001000404E0,1.090632234E1
3.935734257E0,6.580500603E-1,-9.222000122E0,4.525050163E0,1.029341513E1
3.938232933E0,1.128000021E0,-8.674050331E0,4.243950367E0,9.722275861E0
3.940731397E0,1.681050062E0,-8.113950729E0,3.982950211E0,9.193803246E0
3.943229858E0,2.143050194E0,-7.599000454E0,3.670050144E0,8.706706616E0
3.945728395E0,2.446950197E0,-7.108050346E0,3.334950209E0,8.223979444E0
3.948226882E0,2.574000120E0,-6.778050423E0,3.019050121E0,7.853795757E0
3.950725344E0,2.617050171E0,-6.502050400E0,2.746050119E0,7.527708965E0
3.953223805E0,2.932950258E0,-6.258000374E0,2.749950171E0,7.438211602E0
3.955722496E0,3.060000181E0,-6.061950207E0,2.824950218E0,7.354670975E0
3.958220959E0,3.060000181E0,-5.929950237E0,2.920050144E0,7.283859126E0
3.960719406E0,2.856000185E0,-5.842050076E0,3.090000153E0,7.199610204E0
3.963217942E0,2.658000231E0,-5.788950443E0,3.579000235E0,7.306583000E0
3.965716329E0,2.626050234E0,-5.662050247E0,4.081950188E0,7.457698718E0
3.968214865E0,2.491950035E0,-5.595000267E0,4.366950035E0,7.522240064E0
3.970713329E0,2.398950100E0,-5.587950230E0,4.780950069E0,7.735478842E0
3.973211785E0,2.233950138E0,-5.655000210E0,5.314950466E0,8.075782256E0
3.975710476E0,2.125950098E0,-5.716950417E0,5.911050320E0,8.493744861E0
3.978208939E0,2.230950117E0,-5.758050442E0,6.526050091E0,8.984520750E0
3.980707401E0,2.365050077E0,-5.860950470E0,6.955050468E0,9.397708726E0
3.983205937E0,2.349000216E0,-6.009000301E0,7.309050560E0,9.749261855E0
3.985704377E0,2.454000235E0,-6.181950092E0,7.635000229E0,1.012580133E1
3.988202838E0,2.511000156E0,-6.378000259E0,7.675050259E0,1.029030639E1
3.990701300E0,2.410950184E0,-6.661050320E0,7.744950294E0,1.049602435E1
3.993199761E0,2.490000010E0,-6.964950562E0,7.728000164E0,1.069731849E1
3.995698462E0,2.479950190E0,-7.306950569E0,7.525050163E0,1.077812876E1
3.998196925E0,2.602050066E0,-7.527000427E0,7.450050354E0,1.090548716E1
4.000695387E0,2.916000128E0,-7.695000172E0,7.081950188E0,1.085679984E1
4.003193848E0,3.178950071E0,-7.933950424E0,6.658050537E0,1.083434030E1
4.005692385E0,3.358950138E0,-8.284049988E0,6.379950523E0,1.098234032E1
4.008190872E0,3.406950235E0,-8.707950592E0,6.114000320E0,1.117214005E1
4.010689563E0,3.333000183E0,-9.133950233E0,5.808000088E0,1.132567005E1
4.013188026E0,3.316050053E0,-9.538050652E0,5.374950409E0,1.143943574E1
4.015686488E0,3.370950222E0,-9.841950417E0,4.867050171E0,1.148544604E1
4.018184949E0,3.415950060E0,-1.020405006E1,4.375950336E0,1.161638041E1
4.020683486E0,3.469050169E0,-1.045500088E1,4.108050346E0,1.175659092E1
4.023181949E0,3.615000248E0,-1.065900040E1,3.768000126E0,1.186930247E1
4.025680411E0,3.553050280E0,-1.088400078E1,3.370950222E0,1.193519772E1
4.028178872E0,3.676950216E0,-1.100805092E1,2.901000023E0,1.196298245E1
4.030677320E0,3.676950216E0,-1.112295055E1,2.533050060E0,1.198567205E1
4.033176010E0,3.723000288E0,-1.120905018E1,2.053950071E0,1.198842141E1
4.035674474E0,3.768000126E0,-1.120905018E1,1.600950122E0,1.193330097E1
4.038172935E0,3.772950172E0,-1.114005089E1,1.330950022E0,1.183669357E1
4.040671472E0,3.811950207E0,-1.098705006E1,1.146000028E0,1.168586965E1
4.043169906E0,3.711000204E0,-1.088400078E1,8.140500188E-1,1.152803855E1
4.045668368E0,3.567000151E0,-1.078800011E1,5.719500184E-1,1.137679934E1
4.048167058E0,3.529050112E0,-1.058205032E1,6.390000582E-1,1.117328532E1
4.050665291E0,3.345000267E0,-1.044795036E1,6.439500451E-1,1.098923861E1
4.053163981E0,3.333000183E0,-1.022805023E1,5.530500412E-1,1.077161855E1
4.055662469E0,3.349050045E0,-9.991050720E0,5.070000291E-1,1.054961041E1
4.058160930E0,3.217950106E0,-9.808950424E0,5.719500184E-1,1.033914107E1
4.060659467E0,3.196050167E0,-9.598050117E0,7.320000529E-1,1.014263905E1
4.063157930E0,3.024000168E0,-9.426000595E0,9.310500622E-1,9.942882804E0
4.065656392E0,2.854050159E0,-9.289050102E0,1.105949998E0,9.780346595E0
4.068155091E0,2.634000063E0,-9.157950401E0,1.411950111E0,9.633255680E0
4.070653555E0,2.341050148E0,-9.043050766E0,1.720950127E0,9.498365769E0
4.073152016E0,2.032950163E0,-8.956950188E0,1.992000103E0,9.398292794E0
4.075650478E0,1.618050098E0,-8.880000114E0,2.287950039E0,9.311670287E0
4.078149014E0,1.345950007E0,-8.836950302E0,2.623950243E0,9.316028496E0
4.080647478E0,1.120050073E0,-8.722050667E0,2.734050035E0,9.208892963E0
4.083145940E0,1.057950020E0,-8.563950539E0,2.818050146E0,9.077549983E0
4.085644630E0,1.039050102E0,-8.335950851E0,2.809950113E0,8.857963725E0
4.088143093E0,9.739500284E-1,-8.098950386E0,2.809950113E0,8.627710916E0
4.090641555E0,1.060950041E0,-7.776000500E0,2.703000069E0,8.300482404E0
4.093140016E0,1.216050029E0,-7.381050587E0,2.406000137E0,7.857959156E0
4.095638478E0,1.324050069E0,-7.033950329E0,2.290950060E0,7.515185825E0
4.098137014E0,1.345950007E0,-6.699000359E0,2.193000078E0,7.176171442E0
4.100635478E0,1.168050051E0,-6.447000504E0,2.275950193E0,6.936000699E0
4.103133945E0,1.245000005E0,-6.196050167E0,2.290950060E0,6.722314695E0
4.105632635E0,1.039050102E0,-6.013950348E0,2.413050175E0,6.562776474E0
4.108130868E0,8.860500455E-1,-5.857950211E0,2.473050117E0,6.420018866E0
4.110629558E0,9.220500588E-1,-5.643000126E0,2.602050066E0,6.282061069E0
4.113128007E0,9.910500646E-1,-5.479950428E0,2.640000105E0,6.162924426E0
4.115626543E0,1.152000070E0,-5.302950382E0,2.655000210E0,6.041308884E0
4.118125007E0,1.065000057E0,-5.214000225E0,2.647950172E0,5.944044379E0
4.120623468E0,9.360000491E-1,-5.089950085E0,2.446050167E0,5.724233519E0
4.123121930E0,6.300000548E-1,-5.035050392E0,2.242950201E0,5.547923767E0
4.125620649E0,6.319500208E-1,-5.017950058E0,2.238000154E0,5.530626394E0
4.128119112E0,6.630000472E-1,-5.047050476E0,2.296050072E0,5.584275558E0
4.130617574E0,7.350000143E-1,-5.109000206E0,2.466000080E0,5.720425205E0
4.133116036E0,6.300000548E-1,-5.262000084E0,2.760000229E0,5.975210977E0
4.135614562E0,5.050500035E-1,-5.382000446E0,2.911050081E0,6.139643059E0
4.138113026E0,4.050000310E-1,-5.503950119E0,3.070950031E0,6.315712631E0
4.140611487E0,4.930500090E-1,-5.590050220E0,3.058950186E0,6.391317237E0
4.143110177E0,6.820500493E-1,-5.509050369E0,2.932050228E0,6.277877570E0
4.145608641E0,8.809500337E-1,-5.535000324E0,2.892000198E0,6.306819063E0
4.148107117E0,1.125000000E0,-5.554050446E0,2.928000212E0,6.378580296E0
4.150605653E0,1.186950088E0,-5.566050053E0,2.698050022E0,6.298351977E0
4.153104040E0,1.175999999E0,-5.581050396E0,2.394000053E0,6.185655646E0
4.155602576E0,9.600000381E-1,-5.692950249E0,2.221050024E0,6.185818120E0
4.158101040E0,7.999500632E-1,-5.806050301E0,2.154000044E0,6.244185806E0
4.160599516E0,9.049500227E-1,-5.866050243E0,2.085000038E0,6.291001920E0
4.163098206E0,1.171050072E0,-5.811000347E0,1.861950040E0,6.213367948E0
4.165596670E0,1.587000132E0,-5.794050217E0,1.680000067E0,6.237947383E0
4.168095132E0,1.954050064E0,-5.791050434E0,1.555950046E0,6.306786609E0
4.170593593E0,2.203050137E0,-5.908950329E0,1.510050058E0,6.484548949E0
4.173092139E0,2.289000034E0,-6.117000103E0,1.489050031E0,6.698841796E0
4.175590602E0,2.542950153E0,-6.361050129E0,1.527000070E0,7.018638289E0
4.178089064E0,2.872950077E0,-6.555000305E0,1.630050063E0,7.340227132E0
