"Time (s)","Acceleration x (m/s^2)","Acceleration y (m/s^2)","Acceleration z (m/s^2)","Absolute acceleration (m/s^2)"
6.287802000E-3,4.666050434E0,4.470000267E0,6.361050129E0,9.067297711E0
8.785965000E-3,4.618050098E0,4.489050388E0,6.261000156E0,8.982097921E0
1.128534800E-2,4.510050297E0,4.494000435E0,6.234000206E0,8.910631412E0
1.378448700E-2,4.381050110E0,4.444050312E0,6.273000240E0,8.848373594E0
1.628379300E-2,4.198950291E0,4.366950035E0,6.381000519E0,8.798784221E0
1.878317800E-2,3.994950294E0,4.306950092E0,6.510000229E0,8.768668652E0
2.128233400E-2,3.799050093E0,4.228050232E0,6.663000107E0,8.758125416E0
2.378163900E-2,3.615000248E0,4.201950073E0,6.859050274E0,8.818797076E0
2.628077100E-2,3.430050135E0,4.153950214E0,7.068000317E0,8.886910306E0
2.878015400E-2,3.267000198E0,4.128000259E0,7.228050232E0,8.941945347E0
3.127946300E-2,3.124050140E0,4.108050346E0,7.377000332E0,9.003105066E0
3.377884600E-2,2.961000204E0,4.089000225E0,7.506000519E0,9.045854788E0
3.627800200E-2,2.841000080E0,4.060950279E0,7.614000320E0,9.084910539E0
3.877730400E-2,2.737950087E0,4.029000282E0,7.707000256E0,9.117404614E0
4.127645900E-2,2.659050226E0,4.019999981E0,7.738050461E0,9.116379374E0
4.377584200E-2,2.578050137E0,3.972000122E0,7.720950603E0,9.057384043E0
4.627515200E-2,2.484000206E0,3.961950302E0,7.675950527E0,8.988188011E0
4.877430600E-2,2.362050056E0,3.898050070E0,7.744950294E0,8.986563853E0
5.127367300E-2,2.281050205E0,3.850050211E0,7.897950172E0,9.077648021E0
5.377298300E-2,2.223000050E0,3.804000139E0,8.112000465E0,9.231289067E0
5.627213700E-2,2.173050165E0,3.735000134E0,8.341050148E0,9.393907099E0
5.877151900E-2,2.152050018E0,3.682050228E0,8.526000023E0,9.533178355E0
6.127083400E-2,2.142000198E0,3.615000248E0,8.723999977E0,9.683210586E0
6.376998800E-2,2.128050089E0,3.558000088E0,8.839050293E0,9.763030876E0
6.626937100E-2,2.098950148E0,3.498000145E0,8.980950356E0,9.864028894E0
6.876868000E-2,2.077050209E0,3.436050177E0,9.073950768E0,9.922558184E0
7.126783400E-2,2.041949987E0,3.390000105E0,9.157950401E0,9.976458090E0
7.376723500E-2,1.986000061E0,3.322950125E0,9.217950821E0,9.997840322E0
7.626654500E-2,1.945950150E0,3.261000156E0,9.256050110E0,1.000476425E1
7.876569800E-2,1.897950053E0,3.213000059E0,9.306000710E0,1.002632699E1
8.126508100E-2,1.891050100E0,3.175050259E0,9.346950531E0,1.005099492E1
8.376440100E-2,1.879050136E0,3.112050056E0,9.357000351E0,1.003838336E1
8.626355500E-2,1.924050093E0,3.093000174E0,9.330000877E0,1.001586418E1
8.876293700E-2,1.990950108E0,3.060000181E0,9.316050529E0,1.000581236E1
9.126201600E-2,2.121000051E0,3.040950060E0,9.316050529E0,1.002670514E1
9.376139400E-2,2.263950109E0,3.048000097E0,9.286950111E0,1.003310605E1
9.626070100E-2,2.419950008E0,3.096000195E0,9.318000793E0,1.011269074E1
9.876008600E-2,2.568000078E0,3.151050091E0,9.321000099E0,1.016881428E1
1.012592420E-1,2.725950241E0,3.220050097E0,9.376049995E0,1.028152911E1
1.037585480E-1,2.848050117E0,3.259050131E0,9.403950691E0,1.035215368E1
1.062577030E-1,2.974950075E0,3.301950216E0,9.409049988E0,1.040593220E1
1.087570860E-1,3.088050127E0,3.361050129E0,9.397050858E0,1.044687879E1
1.112563960E-1,3.169050217E0,3.406950235E0,9.403950691E0,1.049211503E1
1.137555500E-1,3.253050089E0,3.438000202E0,9.358950615E0,1.048771362E1
1.162549180E-1,3.303000212E0,3.460050106E0,9.268050194E0,1.042969374E1
1.187542280E-1,3.346050262E0,3.429000139E0,9.088050842E0,1.027359540E1
1.212533820E-1,3.400950193E0,3.450000048E0,8.855999947E0,1.009443894E1
1.237527640E-1,3.448950052E0,3.466950178E0,8.632950783E0,9.921836484E0
1.262520740E-1,3.490050077E0,3.487950087E0,8.434950829E0,9.772135940E0
1.287512280E-1,3.562050104E0,3.523950100E0,8.310000420E0,9.703738054E0
1.312506110E-1,3.643050194E0,3.522000074E0,8.155050278E0,9.601101201E0
1.337499200E-1,3.700950146E0,3.514950275E0,7.981950283E0,9.474356851E0
1.362490740E-1,3.760950089E0,3.547950268E0,7.855050564E0,9.403962783E0
1.387483750E-1,3.789000273E0,3.586950064E0,7.858050346E0,9.432480537E0
1.412477590E-1,3.769950151E0,3.594000101E0,7.848000526E0,9.419154587E0
1.437469150E-1,3.700950146E0,3.577050209E0,7.840950489E0,9.379382962E0
1.462462980E-1,3.588000059E0,3.547950268E0,7.792950153E0,9.283952155E0
1.487453770E-1,3.456000090E0,3.535950184E0,7.786050320E0,9.223310680E0
1.512447400E-1,3.322050095E0,3.502950191E0,7.815000534E0,9.185908242E0
1.537440480E-1,3.145050049E0,3.421050072E0,7.810050488E0,9.088003742E0
1.562434330E-1,2.992050171E0,3.352050066E0,7.780950546E0,8.985087383E0
1.587425890E-1,2.844000101E0,3.271050215E0,7.786050320E0,8.911267343E0
1.612419950E-1,2.698050022E0,3.199050188E0,7.759950161E0,8.816474495E0
1.637410740E-1,2.559000015E0,3.097950220E0,7.714050293E0,8.697835855E0
1.662404570E-1,2.413050175E0,2.998050213E0,7.711950302E0,8.618891674E0
1.687397640E-1,2.293050051E0,2.916000128E0,7.666050434E0,8.516423225E0
1.712389200E-1,2.188050032E0,2.863950253E0,7.647000313E0,8.453779496E0
1.737382930E-1,2.094000101E0,2.818050146E0,7.611000538E0,8.381740406E0
1.762376030E-1,2.044049978E0,2.806050062E0,7.518000126E0,8.280844351E0
1.787367570E-1,1.972050071E0,2.803950071E0,7.446000576E0,8.197197208E0
1.812361390E-1,1.797000051E0,2.794050217E0,7.537050247E0,8.236689397E0
1.837354490E-1,1.608000040E0,2.773050070E0,7.705050468E0,8.345254552E0
1.862345940E-1,1.314000010E0,2.662050009E0,7.900950432E0,8.440268005E0
1.887339760E-1,1.017000079E0,2.586000204E0,8.056050301E0,8.521832706E0
1.912332860E-1,7.890000343E-1,2.574000120E0,8.341050148E0,8.764765556E0
1.937324400E-1,4.900500178E-1,2.490000010E0,8.569050789E0,8.936939101E0
1.962317500E-1,3.299999982E-2,2.236050129E0,8.751000404E0,9.032221059E0
1.987311340E-1,-2.370000184E-1,2.242950201E0,9.091050148E0,9.366652946E0
2.012302900E-1,-4.429500103E-1,2.260050058E0,9.378000259E0,9.656651585E0
2.037296730E-1,-6.559500098E-1,2.289000034E0,9.664950371E0,9.953946817E0
2.062289820E-1,-8.209500313E-1,2.349000216E0,9.922050476E0,1.022931311E1
2.087281460E-1,-9.379500151E-1,2.386950016E0,1.012005043E1,1.043995696E1
2.112275290E-1,-1.051050067E0,2.421000004E0,1.020600033E1,1.054174511E1
2.137268390E-1,-1.197000027E0,2.442000151E0,1.031895065E1,1.067131278E1
2.162259920E-1,-1.354950070E0,2.454000235E0,1.031400013E1,1.068815258E1
2.187253600E-1,-1.575000048E0,2.455950022E0,1.018500042E1,1.059464720E1
2.212244390E-1,-1.795050144E0,2.418000221E0,9.900000572E0,1.034789551E1
2.237238220E-1,-2.044049978E0,2.434950113E0,9.577050209E0,1.009093718E1
2.262231290E-1,-2.241000175E0,2.410950184E0,9.220050812E0,9.789999977E0
2.287222850E-1,-2.310000181E0,2.401050091E0,8.851050377E0,9.457390504E0
2.312216780E-1,-2.143050194E0,2.386950016E0,8.425050735E0,9.015080388E0
2.337209870E-1,-1.984950066E0,2.406000137E0,8.169000626E0,8.744222930E0
2.362201410E-1,-1.897950053E0,2.430000067E0,7.927050591E0,8.505600848E0
2.387195240E-1,-1.695000052E0,2.442000151E0,7.752000332E0,8.302403210E0
2.412188290E-1,-1.537050128E0,2.430000067E0,7.648950577E0,8.171527908E0
2.437179820E-1,-1.210950017E0,2.224050045E0,7.498950481E0,7.914989379E0
2.462173650E-1,-9.619500637E-1,2.040000200E0,7.306950569E0,7.647122031E0
2.487166750E-1,-7.300500274E-1,1.789050102E0,7.326000214E0,7.576539609E0
2.512158290E-1,-5.500500202E-1,1.729050040E0,7.479000568E0,7.695948192E0
2.537151970E-1,-2.820000052E-1,1.903050065E0,7.470000267E0,7.713755735E0
2.562145070E-1,-2.680500150E-1,2.044950008E0,7.731000423E0,8.001377312E0
2.587136610E-1,-4.549500346E-1,2.155050039E0,8.161950111E0,8.453913285E0
2.612130430E-1,-4.450500309E-1,2.293950081E0,8.356050491E0,8.676627013E0
2.637123530E-1,-5.170500278E-1,2.590950012E0,8.368050575E0,8.775228380E0
2.662114970E-1,-4.669500291E-1,2.859000206E0,8.137949944E0,8.638180005E0
2.687108800E-1,-3.559500277E-1,3.136050224E0,7.858050346E0,8.468203273E0
2.712101890E-1,-2.970000207E-1,3.358950138E0,7.696950436E0,8.403201833E0
2.737093430E-1,-1.939500123E-1,3.463950157E0,7.542000294E0,8.301706796E0
2.762087260E-1,-7.905000448E-2,3.571950197E0,7.264050484E0,8.095153275E0
2.787080490E-1,-3.795000166E-2,3.618000269E0,7.069950104E0,7.942012378E0
2.812072030E-1,-9.000000544E-3,3.579000235E0,6.868950367E0,7.745437549E0
2.837065090E-1,-4.800000042E-2,3.475950241E0,6.646050453E0,7.500301374E0
2.862058940E-1,-4.800000042E-2,3.318000078E0,6.415950298E0,7.223285039E0
2.887050590E-1,-6.900000572E-2,3.199050188E0,6.237000465E0,7.009911405E0
2.912043650E-1,-4.800000042E-2,3.084000111E0,6.055050373E0,6.795365752E0
2.937037500E-1,1.800000109E-2,2.998050213E0,5.923050404E0,6.638610936E0
2.962029060E-1,1.330500096E-1,2.943000078E0,5.760000229E0,6.469664165E0
2.987022110E-1,1.620000005E-1,2.947050095E0,5.788950443E0,6.497945483E0
3.012013810E-1,1.759500057E-1,2.968950033E0,5.820000172E0,6.535902746E0
3.037007640E-1,1.960500032E-1,3.072000027E0,5.751000404E0,6.523007391E0
3.062000740E-1,2.029500157E-1,3.201000214E0,5.671950340E0,6.516027297E0
3.086994560E-1,7.095000148E-2,3.376050234E0,5.832000256E0,6.739063441E0
3.111986130E-1,-1.605000161E-2,3.559950113E0,5.674050331E0,6.698384102E0
3.136979190E-1,-1.390500069E-1,3.748950243E0,5.643000126E0,6.776238872E0
3.161973030E-1,-2.890500128E-1,3.919050217E0,5.770050049E0,6.981116105E0
3.186964590E-1,-4.140000343E-1,4.075050354E0,5.808000088E0,7.107059620E0
3.211957650E-1,-5.770500302E-1,4.180050373E0,6.115050316E0,7.429646575E0
3.236951390E-1,-7.180500627E-1,4.243050098E0,6.163050175E0,7.516798353E0
3.261942180E-1,-9.190500379E-1,4.255050182E0,6.457050323E0,7.787400330E0
3.286936010E-1,-1.135050058E0,4.105950356E0,6.676950455E0,7.920153681E0
3.311927570E-1,-1.348050117E0,3.997950077E0,6.748950481E0,7.959219594E0
3.336920630E-1,-1.597050071E0,3.919050217E0,6.847050190E0,8.049324185E0
3.361914470E-1,-1.941000104E0,3.804000139E0,6.804000378E0,8.033201081E0
3.386906030E-1,-2.655000210E0,3.514950275E0,7.864950180E0,9.014507357E0
3.411899090E-1,-2.595000029E0,3.088950157E0,8.956950188E0,9.823573428E0
3.436892930E-1,-2.671950102E0,2.844000101E0,8.961000443E0,9.773800840E0
3.461884490E-1,-3.217950106E0,2.728950024E0,8.659950256E0,9.633125638E0
3.486877410E-1,-3.847050190E0,2.575950146E0,8.410950661E0,9.601010641E0
3.511871260E-1,-4.266000271E0,2.406000137E0,8.203050613E0,9.553932925E0
3.536862810E-1,-4.518000126E0,2.245950222E0,8.125950813E0,9.564919977E0
3.561855870E-1,-4.636950016E0,2.128050089E0,8.173950195E0,9.635526162E0
3.586849720E-1,-4.672950268E0,1.978050113E0,8.277000427E0,9.708649882E0
3.611841280E-1,-4.714050293E0,1.756950140E0,8.341050148E0,9.740752616E0
3.636834330E-1,-4.707000256E0,1.519950032E0,8.346000671E0,9.701640414E0
3.661828180E-1,-4.668000221E0,1.293000102E0,8.353050232E0,9.655854364E0
3.686819740E-1,-4.630050182E0,1.030050039E0,8.401050568E0,9.647591327E0
3.711812790E-1,-4.594050407E0,6.850500107E-1,8.461050034E0,9.652147965E0
3.736804440E-1,-4.537050247E0,4.210500121E-1,8.569050789E0,9.705191368E0
3.761798270E-1,-4.414950371E0,2.470500171E-1,8.731950760E0,9.787736437E0
3.786791370E-1,-4.270950317E0,1.319999993E-1,8.940000534E0,9.908685592E0
3.811785190E-1,-4.056000233E0,1.950000064E-3,9.241950035E0,1.009280844E1
3.836775980E-1,-3.783000231E0,-2.505000122E-2,9.571950912E0,1.029242258E1
3.861769610E-1,-3.471000195E0,-5.595000088E-2,1.014900017E1,1.072628441E1
3.886761170E-1,-3.105000257E0,-1.305000018E-2,1.072095013E1,1.116153970E1
3.911754220E-1,-2.667000055E0,-6.000000052E-3,1.140600014E1,1.171365718E1
3.936748070E-1,-2.176050186E0,6.195000187E-2,1.191600037E1,1.211321992E1
3.961739630E-1,-1.657050133E0,1.150500029E-1,1.236405087E1,1.247512747E1
3.986732680E-1,-1.111050010E0,2.059500068E-1,1.274205017E1,1.279205574E1
4.011726530E-1,-6.030000448E-1,3.060000241E-1,1.313505077E1,1.315244479E1
4.036718090E-1,-1.309500039E-1,3.930000067E-1,1.336395073E1,1.337036933E1
4.061711150E-1,2.509500086E-1,4.090500176E-1,1.359405041E1,1.360251831E1
4.086704990E-1,6.550500393E-1,2.539499998E-1,1.354200077E1,1.356021261E1
4.111696550E-1,1.126950026E0,5.700000376E-2,1.311300087E1,1.316146106E1
4.136689610E-1,1.383000016E0,-1.570500135E-1,1.274895096E1,1.282470679E1
4.161683450E-1,1.599000096E0,-3.889500201E-1,1.224600029E1,1.235607569E1
4.186675010E-1,1.558050036E0,-6.690000296E-1,1.185405064E1,1.197470657E1
4.211667970E-1,1.420950055E0,-8.820000291E-1,1.154505062E1,1.166555686E1
4.236661820E-1,1.333050013E0,-1.158000112E0,1.140405083E1,1.153994635E1
4.261653370E-1,1.218000054E0,-1.426050067E0,1.132905006E1,1.148322769E1
4.286646430E-1,1.113000035E0,-1.576950073E0,1.130805016E1,1.147159705E1
4.311638040E-1,1.042950034E0,-1.603050113E0,1.148295021E1,1.164111936E1
4.336631870E-1,1.126950026E0,-1.435050011E0,1.190400028E1,1.204303150E1
4.361624960E-1,1.374000072E0,-1.399950027E0,1.219095039E1,1.234775315E1
4.386618790E-1,1.620000124E0,-1.239000082E0,1.254600048E1,1.271069037E1
4.411609580E-1,1.893000126E0,-1.219950080E0,1.285200024E1,1.304782119E1
4.436603460E-1,2.001000166E0,-1.351950049E0,1.290705109E1,1.313102198E1
4.461595010E-1,2.098950148E0,-1.408950090E0,1.298400021E1,1.322781136E1
4.486588840E-1,2.203950167E0,-1.452000022E0,1.325400066E1,1.351422340E1
4.511581940E-1,2.314050198E0,-1.407000065E0,1.367295074E1,1.393858169E1
4.536575860E-1,2.434050083E0,-1.354050040E0,1.408500099E1,1.435776112E1
4.561566650E-1,2.578050137E0,-1.249050021E0,1.450395107E1,1.478414912E1
4.586560480E-1,2.752950191E0,-1.114950061E0,1.502805042E1,1.531875151E1
4.611552040E-1,2.985000134E0,-9.760500193E-1,1.539705086E1,1.571407250E1
4.636545090E-1,3.184050083E0,-8.700000644E-1,1.558395100E1,1.592967682E1
4.661538840E-1,3.409050226E0,-7.440000176E-1,1.557705116E1,1.596307246E1
4.686530400E-1,3.628950119E0,-6.379500031E-1,1.534200096E1,1.577825252E1
4.711523460E-1,3.873000145E0,-5.569500327E-1,1.485105038E1,1.535786511E1
4.736517300E-1,4.089000225E0,-4.510500133E-1,1.418595028E1,1.477039452E1
4.761508860E-1,4.338000298E0,-3.250500262E-1,1.339095020E1,1.407982427E1
4.786501920E-1,4.609950066E0,-2.359500080E-1,1.245900059E1,1.328661009E1
4.811495760E-1,4.792050362E0,-3.010500073E-1,1.133700085E1,1.231186282E1
4.836487320E-1,4.950000286E0,-3.940500319E-1,1.023795033E1,1.137863810E1
4.861480380E-1,5.068050385E0,-5.879999995E-1,9.139050484E0,1.046676275E1
4.886474330E-1,5.166000366E0,-8.320500255E-1,8.101950645E0,9.644763931E0
4.911465880E-1,5.233050346E0,-1.111950040E0,7.198950291E0,8.969176891E0
4.936458940E-1,5.223000050E0,-1.459050059E0,6.412050247E0,8.397794054E0
4.961452790E-1,5.131950378E0,-1.828050137E0,5.767950058E0,7.933973145E0
4.986444390E-1,5.002950191E0,-2.215950012E0,5.326950073E0,7.636513744E0
5.011437440E-1,4.797000408E0,-2.551050186E0,5.008950233E0,7.389766736E0
5.036429000E-1,4.507950306E0,-2.853000164E0,4.756950378E0,7.147713117E0
5.061422830E-1,4.129050255E0,-3.181050062E0,4.822050095E0,7.100725500E0
5.086415920E-1,3.586050272E0,-3.597000122E0,5.137950420E0,7.224728435E0
5.111409800E-1,3.037950039E0,-3.991950274E0,5.647950172E0,7.554081584E0
5.136400590E-1,2.346000195E0,-4.507050037E0,6.493050098E0,8.244811492E0
5.161394420E-1,2.203950167E0,-5.101050377E0,6.981000423E0,8.922582485E0
5.186385970E-1,2.097000122E0,-5.608950138E0,7.374000549E0,9.499137606E0
5.211379990E-1,2.025000095E0,-5.898000240E0,7.597050190E0,9.828642013E0
5.236373090E-1,2.167950153E0,-6.037050247E0,7.546950340E0,9.904667738E0
5.261364630E-1,2.535000086E0,-6.091950417E0,7.063050270E0,9.665648681E0
5.286357680E-1,3.090000153E0,-6.018000126E0,6.376050472E0,9.296152219E0
5.311351530E-1,3.817950249E0,-5.845950127E0,5.703000069E0,9.015325106E0
5.336343140E-1,4.600950241E0,-5.635050297E0,5.185950279E0,8.934014510E0
5.361336200E-1,5.451000214E0,-5.388000488E0,4.834050179E0,9.061566847E0
5.386330040E-1,6.238950253E0,-5.209050179E0,4.696950436E0,9.387227887E0
5.411321600E-1,6.799050331E0,-5.115000248E0,4.726050377E0,9.732721362E0
5.436314660E-1,7.194000244E0,-5.034000397E0,4.915050030E0,1.006243093E1
5.461308500E-1,7.315950394E0,-5.026950359E0,5.266950130E0,1.032153689E1
5.486300060E-1,7.159950256E0,-5.103000164E0,5.832000256E0,1.055072155E1
5.511293120E-1,6.588000298E0,-5.295000076E0,6.145950317E0,1.045042961E1
5.536286960E-1,5.911050320E0,-5.494050026E0,7.008000374E0,1.068817902E1
5.561278520E-1,5.191950321E0,-5.572950363E0,7.993950367E0,1.104161973E1
5.586271580E-1,4.516950130E0,-5.539050102E0,8.748000145E0,1.129652252E1
5.611263140E-1,3.898950100E0,-5.572950363E0,9.313050270E0,1.153223712E1
5.636256970E-1,3.343950272E0,-5.500950336E0,9.730050087E0,1.166689045E1
5.661250060E-1,2.935050249E0,-5.400000095E0,9.960000038E0,1.170367984E1
5.686241600E-1,2.592000008E0,-5.269050121E0,1.004400063E1,1.163457355E1
5.711235680E-1,2.374050140E0,-5.062950134E0,9.937950134E0,1.140317636E1
5.736228770E-1,2.223000050E0,-4.756050110E0,9.724950790E0,1.105153427E1
5.761220310E-1,2.238000154E0,-4.414050102E0,9.450000763E0,1.066747381E1
5.786214140E-1,2.355000019E0,-4.030950069E0,9.220050812E0,1.033459823E1
5.811207290E-1,2.607000113E0,-3.673950195E0,8.938050270E0,1.000915093E1
5.836198820E-1,2.935050249E0,-3.277050257E0,8.746050835E0,9.790147269E0
5.861192650E-1,3.351000071E0,-2.985000134E0,8.530950546E0,9.639322823E0
5.886185750E-1,3.745950222E0,-2.749950171E0,8.361000061E0,9.565599355E0
5.911177290E-1,4.017000198E0,-2.776050091E0,8.155050278E0,9.505134914E0
5.936171010E-1,4.419000149E0,-2.680050135E0,8.133000374E0,9.636177983E0
5.961164110E-1,4.869000435E0,-2.530050039E0,8.068050385E0,9.757138691E0
5.986155650E-1,5.247000217E0,-2.491050005E0,8.008950233E0,9.893413226E0
6.011149470E-1,5.560950279E0,-2.422049999E0,7.975050449E0,1.001957703E1
6.036142570E-1,5.796000481E0,-2.347950220E0,7.956000328E0,1.011950755E1
6.061134110E-1,5.944050312E0,-2.287950039E0,7.969950199E0,1.020228189E1
6.086127940E-1,6.040050507E0,-2.245050192E0,8.044050217E0,1.030675528E1
6.111121030E-1,6.030000210E0,-2.202000141E0,8.097000122E0,1.033301109E1
6.136112570E-1,5.956050396E0,-2.178000212E0,8.143050194E0,1.032121542E1
6.161105490E-1,5.899050236E0,-2.158950090E0,8.179050446E0,1.031293971E1
6.186099330E-1,5.860050201E0,-2.137050152E0,8.298000336E0,1.038094318E1
6.211090890E-1,5.821950436E0,-2.095950127E0,8.458950043E0,1.048055102E1
6.236083950E-1,5.773950100E0,-2.050950050E0,8.644950867E0,1.059622911E1
6.261075460E-1,5.797950268E0,-1.882950068E0,8.887050629E0,1.077689181E1
6.286069280E-1,5.844000340E0,-1.692000031E0,9.151050568E0,1.098894584E1
6.311062380E-1,5.925000191E0,-1.471050024E0,9.406949997E0,1.121429105E1
6.336053920E-1,5.974950314E0,-1.251000047E0,9.711000443E0,1.147033400E1
6.361047750E-1,6.073050499E0,-9.829500318E-1,1.000305080E1,1.174347302E1
6.386040740E-1,6.202950478E0,-7.050000429E-1,1.028805065E1,1.203401869E1
6.411032280E-1,6.337050438E0,-3.990000188E-1,1.065705013E1,1.240524594E1
6.436026110E-1,6.448950291E0,-1.429500133E-1,1.098495007E1,1.273885876E1
6.461019200E-1,6.556950092E0,4.995000362E-2,1.125300026E1,1.302405867E1
6.486010740E-1,6.676950455E0,1.960500032E-1,1.149705029E1,1.329670140E1
6.511004670E-1,6.768000126E0,3.180000186E-1,1.162395096E1,1.345448571E1
6.535997770E-1,6.901950359E0,3.540000021E-1,1.168800068E1,1.357835022E1
6.560989300E-1,7.038000107E0,4.050000310E-1,1.169595051E1,1.365623406E1
6.585983130E-1,7.134000301E0,5.629500151E-1,1.153005028E1,1.357029596E1
6.610976230E-1,7.159950256E0,5.940000415E-1,1.132695007E1,1.341333373E1
6.635967620E-1,7.182000160E0,5.220000148E-1,1.133205032E1,1.342642822E1
6.660961440E-1,7.146000385E0,4.600500166E-1,1.124295044E1,1.332970000E1
6.685952230E-1,7.078950405E0,3.900000155E-1,1.106595039E1,1.314225616E1
6.710946060E-1,6.685950279E0,4.740000367E-1,1.080495071E1,1.271509210E1
6.735939090E-1,6.037050247E0,5.290500522E-1,1.079505062E1,1.237978140E1
6.760932930E-1,5.743050098E0,3.229500055E-1,1.089105034E1,1.231673247E1
6.785924490E-1,5.604000092E0,4.605000094E-2,1.123605061E1,1.255610492E1
6.810917550E-1,5.440950394E0,-1.669500023E-1,1.135305023E1,1.259061409E1
6.835909110E-1,5.341050148E0,-4.390500188E-1,1.155405045E1,1.273639130E1
6.860902740E-1,5.167950153E0,-5.620500445E-1,1.171500015E1,1.281658448E1
6.885895840E-1,4.843050003E0,-5.740500093E-1,1.158600044E1,1.257060353E1
6.910887380E-1,4.393050194E0,-3.919500113E-1,1.161705017E1,1.242611643E1
6.935881200E-1,3.883050203E0,-1.399500072E-1,1.151400089E1,1.215194970E1
6.960874300E-1,3.306000233E0,1.219500080E-1,1.139895058E1,1.186931268E1
6.985865790E-1,1.833000064E0,5.749500394E-1,1.185405064E1,1.200870406E1
7.010859620E-1,1.575000048E0,8.569500446E-1,1.182495022E1,1.196011857E1
7.035852710E-1,1.717950106E0,1.306950092E0,1.195200062E1,1.214536084E1
7.060844250E-1,1.675050020E0,1.402950048E0,1.230105019E1,1.249359424E1
7.085838080E-1,1.206000090E0,1.486950040E0,1.297395039E1,1.311445177E1
7.110828770E-1,7.459500432E-1,1.582950115E0,1.339800072E1,1.351179469E1
7.135822590E-1,3.730500042E-1,1.860000134E0,1.375695038E1,1.388713255E1
7.160815670E-1,1.909500062E-1,2.095050097E0,1.425705051E1,1.441142554E1
7.185809520E-1,-1.950000064E-3,2.479950190E0,1.492995071E1,1.513451635E1
7.210801070E-1,2.310000062E-1,2.622000217E0,1.469295025E1,1.492685610E1
7.235794900E-1,-7.900500298E-1,2.794050217E0,1.543305111E1,1.570381999E1
7.260785690E-1,-1.029000044E0,3.028950214E0,1.590195084E1,1.622052468E1
7.285779520E-1,-1.041000009E0,3.181950092E0,1.651500130E1,1.685092743E1
7.310772590E-1,-1.252050042E0,3.120000124E0,1.673295021E1,1.706732706E1
7.335764250E-1,-1.342950106E0,3.105000257E0,1.704195023E1,1.737448155E1
7.360758080E-1,-1.324050069E0,3.253950119E0,1.737195015E1,1.772359873E1
7.385751920E-1,-1.609050035E0,3.028950214E0,1.718595123E1,1.752485381E1
7.410742710E-1,-1.867050052E0,3.133950233E0,1.778700066E1,1.815722755E1
7.435736540E-1,-1.597050071E0,3.481050253E0,1.794495010E1,1.834910118E1
7.460729480E-1,-2.113950014E0,4.378950119E0,1.878495026E1,1.940408063E1
7.485721030E-1,-2.980950117E0,5.188050270E0,1.865100098E1,1.958728584E1
7.510714860E-1,-4.137000084E0,5.241000175E0,1.831605148E1,1.949514284E1
7.535707960E-1,-4.372050285E0,5.089950085E0,1.818405151E1,1.938252164E1
7.560699400E-1,-4.342950344E0,4.858050346E0,1.801905060E1,1.916110788E1
7.585693220E-1,-4.228050232E0,4.543950081E0,1.778700066E1,1.883882383E1
7.610686320E-1,-3.447000265E0,4.140000343E0,1.662300110E1,1.747414030E1
7.635677860E-1,-1.542000055E0,3.706050158E0,1.584705067E1,1.634752540E1
7.660671680E-1,8.659500480E-1,3.214950085E0,1.559100056E1,1.594255538E1
7.685662470E-1,3.034950256E0,2.659950018E0,1.453500080E1,1.508484357E1
7.710656300E-1,4.897950172E0,1.887000084E0,1.278000069E1,1.381590036E1
7.735649380E-1,6.210000515E0,1.159050107E0,1.095300007E1,1.264419685E1
7.760643220E-1,6.823050499E0,6.390000582E-1,9.772950172E0,1.193620100E1
7.785634870E-1,6.901950359E0,3.090000153E-1,9.292050362E0,1.157905867E1
7.810628700E-1,6.427950382E0,-1.189500093E-1,8.463000298E0,1.062803224E1
7.835621790E-1,5.554050446E0,-6.310500503E-1,7.060050488E0,9.004999356E0
7.860613330E-1,4.792050362E0,-9.330000281E-1,6.364050388E0,8.020933429E0
7.885606390E-1,4.426050186E0,-1.123950005E0,6.277950287E0,7.763107861E0
7.910600240E-1,4.534049988E0,-1.330050111E0,6.115050316E0,7.727902882E0
7.935591800E-1,4.957950115E0,-1.380000114E0,5.692950249E0,7.674330733E0
7.960585620E-1,5.287950039E0,-1.447050095E0,5.262000084E0,7.599014046E0
7.985576410E-1,5.548950195E0,-1.492950082E0,4.879050255E0,7.538227882E0
8.010570240E-1,5.889000416E0,-1.525950074E0,4.563000202E0,7.604592058E0
8.035563460E-1,6.205050468E0,-1.495050073E0,4.414950371E0,7.760773983E0
8.060555020E-1,6.454050541E0,-1.546050072E0,4.162950039E0,7.834232077E0
8.085548850E-1,6.636000156E0,-1.552950025E0,3.898050070E0,7.851302198E0
8.110541950E-1,7.114950180E0,-1.513950109E0,4.087049961E0,8.343772431E0
8.135533480E-1,7.452000141E0,-1.488000035E0,4.269000053E0,8.716123660E0
8.160527310E-1,7.630050182E0,-1.371000051E0,4.384050369E0,8.906020692E0
8.185520410E-1,8.034000397E0,-1.387950063E0,4.639950275E0,9.380869166E0
8.210511950E-1,8.302050591E0,-1.440000057E0,4.908000469E0,9.751210837E0
8.235505770E-1,8.416950226E0,-1.507050037E0,5.109000206E0,9.960829987E0
8.260498870E-1,8.659049988E0,-1.579050064E0,5.514000416E0,1.038637311E1
8.285490360E-1,8.877000809E0,-1.665000081E0,5.794050217E0,1.073053524E1
8.310484180E-1,8.851050377E0,-1.831050038E0,6.085950375E0,1.089645029E1
8.335477280E-1,8.749950409E0,-1.998000145E0,6.208050251E0,1.091299797E1
8.360468820E-1,8.575050354E0,-2.127000093E0,6.213000298E0,1.080078658E1
8.385462650E-1,8.422050476E0,-2.271000147E0,6.139050484E0,1.066659818E1
8.410455600E-1,8.218950272E0,-2.403000116E0,6.115050316E0,1.052232833E1
8.435447140E-1,7.948050499E0,-2.443050146E0,5.947050095E0,1.022288636E1
8.460440200E-1,7.572000504E0,-2.500950098E0,5.904000282E0,9.922054341E0
8.485434040E-1,7.195950508E0,-2.434050083E0,5.736000061E0,9.518823468E0
8.510425600E-1,6.765000343E0,-2.383949995E0,5.653050423E0,9.132657133E0
8.535418800E-1,6.303000450E0,-2.320950031E0,5.629050255E0,8.763608303E0
8.560410360E-1,5.902950287E0,-2.271000147E0,5.746050358E0,8.545136539E0
8.585404180E-1,5.536950111E0,-2.281050205E0,5.905950069E0,8.410781937E0
8.610397280E-1,5.209050179E0,-2.281050205E0,6.064050198E0,8.313248378E0
8.635388820E-1,4.917000294E0,-2.305050135E0,6.381000519E0,8.378980584E0
8.660382700E-1,4.696950436E0,-2.415000200E0,6.862050533E0,8.659174723E0
8.685375790E-1,4.390050411E0,-2.671050072E0,7.549050331E0,9.132097897E0
8.710367330E-1,4.141050339E0,-3.061050177E0,8.404050827E0,9.856287151E0
8.735361160E-1,3.928050280E0,-3.496950150E0,9.589050293E0,1.093654995E1
8.760354250E-1,3.757950068E0,-3.952050209E0,1.083600044E1,1.213094370E1
8.785345930E-1,3.691050291E0,-4.359000206E0,1.213095093E1,1.340838191E1
8.810339760E-1,3.567000151E0,-4.816050053E0,1.344105053E1,1.471664593E1
8.835332860E-1,3.600000143E0,-5.271000385E0,1.462095070E1,1.595354648E1
8.860324400E-1,3.777000189E0,-5.623050213E0,1.534395027E1,1.677263349E1
8.885317500E-1,3.961950302E0,-5.998950481E0,1.572495079E1,1.729041742E1
8.910311350E-1,4.192049980E0,-6.178050518E0,1.548600101E1,1.719179510E1
8.935302910E-1,4.393050194E0,-5.734950066E0,1.472895050E1,1.640519811E1
8.960296730E-1,4.426050186E0,-5.047950268E0,1.379100037E1,1.533829890E1
8.985289830E-1,4.962000370E0,-4.479000092E0,1.276605034E1,1.441023701E1
9.010281370E-1,4.974000454E0,-3.898950100E0,1.219095039E1,1.373177934E1
9.035274430E-1,4.833000183E0,-3.418050051E0,1.141605091E1,1.285951692E1
9.060268270E-1,4.656000137E0,-3.076050043E0,1.059705067E1,1.197655643E1
9.085259830E-1,4.339950085E0,-2.956050158E0,9.832950592E0,1.114721116E1
9.110252890E-1,4.207950115E0,-3.006000042E0,8.965950012E0,1.035041739E1
9.135246680E-1,4.009950161E0,-2.973000050E0,8.100000381E0,9.514643229E0
9.160238240E-1,3.523950100E0,-2.925000191E0,7.201950550E0,8.534749097E0
9.185231300E-1,2.929950237E0,-2.581950188E0,6.220050335E0,7.344392510E0
9.210222860E-1,2.371950150E0,-2.452950001E0,5.064000130E0,6.106325289E0
9.235216680E-1,2.142000198E0,-2.368950129E0,4.266000271E0,5.329056940E0
9.260209830E-1,2.197050095E0,-2.350050211E0,3.487950087E0,4.745056472E0
9.285201370E-1,2.899050236E0,-2.284950018E0,3.024000168E0,4.771799018E0
9.310195200E-1,3.958950281E0,-2.163000107E0,2.911050081E0,5.368991466E0
9.335188290E-1,5.049000263E0,-2.032050133E0,2.794050217E0,6.117871199E0
9.360179830E-1,6.073050499E0,-1.807050109E0,2.823000193E0,6.936620398E0
9.385173660E-1,6.847050190E0,-1.573950052E0,2.796000242E0,7.561549605E0
9.410166750E-1,7.515000343E0,-1.548000097E0,3.007050037E0,8.240988071E0
9.435158290E-1,7.864050388E0,-1.560000062E0,3.418950081E0,8.715853851E0
9.460151350E-1,7.972050190E0,-1.591050029E0,3.807000160E0,8.976540238E0
9.485145140E-1,7.881000519E0,-1.656000137E0,4.453050137E0,9.202291082E0
9.510136690E-1,7.986000538E0,-1.765950084E0,4.879050255E0,9.523650334E0
9.535129750E-1,8.094000816E0,-1.965000153E0,5.004000187E0,9.716691447E0
9.560123600E-1,8.414999962E0,-2.091000080E0,4.989000320E0,1.000373080E1
9.585115160E-1,8.611050606E0,-2.331000090E0,5.410950184E0,1.043370192E1
9.610108160E-1,8.973000526E0,-2.422049999E0,5.713050365E0,1.090962919E1
9.635102010E-1,9.064050674E0,-2.616000175E0,6.253950119E0,1.131867323E1
9.660093570E-1,9.094950676E0,-2.817000151E0,6.640950203E0,1.160843819E1
9.685086620E-1,8.973000526E0,-3.046950102E0,7.039050102E0,1.180452751E1
9.710080570E-1,9.009000778E0,-3.328950167E0,7.546950340E0,1.221476417E1
9.735072130E-1,8.908050537E0,-3.676050186E0,7.987050533E0,1.251637669E1
9.760065190E-1,8.781000137E0,-3.945000172E0,8.158950806E0,1.261893292E1
9.785056740E-1,9.064050674E0,-4.123950005E0,8.314949989E0,1.297314039E1
9.810050570E-1,9.361050606E0,-4.416000366E0,8.325000763E0,1.328292006E1
9.835043570E-1,9.550050735E0,-4.744050026E0,8.052000046E0,1.336204267E1
9.860035110E-1,1.033500004E1,-4.873950005E0,7.626000404E0,1.373766707E1
9.885028930E-1,1.025100040E1,-5.263950348E0,7.207050323E0,1.359167969E1
9.910022030E-1,7.993950367E0,-6.573000431E0,6.430950165E0,1.218460903E1
9.935013570E-1,8.599050522E0,-7.276950359E0,5.116050243E0,1.237221268E1
9.960007490E-1,1.060305023E1,-7.051950455E0,4.597050190E0,1.353837324E1
9.985000590E-1,1.188600063E1,-6.898950100E0,4.411950111E0,1.443391241E1
1.000999213E0,1.191000080E1,-7.474050522E0,5.203050137E0,1.499270759E1
1.003498596E0,1.114695072E1,-8.190000534E0,6.670050144E0,1.535643800E1
1.005997905E0,1.060800076E1,-8.734950066E0,8.200050354E0,1.600218293E1
1.008497073E0,1.038105011E1,-8.932050705E0,9.184050560E0,1.648922423E1
1.010996379E0,1.070595074E1,-8.937000275E0,9.471000671E0,1.685785303E1
1.013495764E0,1.076100063E1,-8.866950035E0,9.222000122E0,1.671727322E1
1.015994919E0,1.078995037E1,-9.004050255E0,8.586000443E0,1.646861723E1
1.018494225E0,1.109205055E1,-9.253050804E0,7.276050568E0,1.617385070E1
1.020993615E0,1.191495037E1,-9.121050835E0,5.883000374E0,1.611736033E1
1.023492771E0,1.272195053E1,-8.496000290E0,4.222949982E0,1.587020330E1
1.025992076E0,1.256205082E1,-7.822950363E0,2.647950172E0,1.503380568E1
1.028491461E0,1.212405014E1,-7.477950573E0,1.611000061E0,1.433553828E1
1.030990612E0,1.139100075E1,-7.371000290E0,1.269000053E0,1.362706514E1
1.033489917E0,9.504000664E0,-7.440000534E0,1.852950096E0,1.221118588E1
1.035989302E0,7.138950348E0,-7.378050327E0,3.895050287E0,1.098051253E1
1.038488458E0,6.508950233E0,-7.354050159E0,5.076000214E0,1.105505609E1
1.040987764E0,6.150000095E0,-7.087950230E0,6.244050503E0,1.127163281E1
1.043487138E0,5.805000305E0,-6.741000175E0,6.976950169E0,1.130561566E1
1.045986294E0,5.149050236E0,-6.289050102E0,7.767000198E0,1.124238238E1
1.048485600E0,4.255949974E0,-5.946000099E0,8.193000793E0,1.098149759E1
1.050984756E0,3.583050251E0,-5.629950047E0,8.446949959E0,1.076501511E1
1.053484061E0,3.217050076E0,-5.314050198E0,8.368050575E0,1.042174703E1
1.055983418E0,2.937000036E0,-5.067000389E0,8.265000343E0,1.012969362E1
1.058482574E0,2.602050066E0,-5.017050266E0,7.972950459E0,9.772890920E0
1.060981956E0,2.628000021E0,-4.765950203E0,8.004000664E0,9.679085291E0
1.063481266E0,2.929950237E0,-4.495050430E0,8.274000168E0,9.861499153E0
1.065980420E0,3.694050074E0,-4.170000076E0,8.728950500E0,1.035516699E1
1.068479730E0,4.459950447E0,-3.886950254E0,8.914050102E0,1.069859007E1
1.070979114E0,4.876049995E0,-3.649950266E0,8.692950249E0,1.061439516E1
1.073478270E0,5.769000053E0,-3.499050140E0,7.963050365E0,1.043718758E1
1.075977653E0,7.078950405E0,-3.340950251E0,6.376050472E0,1.009591536E1
1.078476962E0,7.953000546E0,-3.454050064E0,4.101000309E0,9.591604822E0
1.080976126E0,9.214950562E0,-3.514050245E0,2.509050131E0,1.017640386E1
1.083475432E0,9.693000793E0,-3.825000286E0,1.204050064E0,1.048973918E1
1.085974817E0,1.033005047E1,-4.087950230E0,-2.115000010E0,1.130904526E1
1.088473972E0,9.447000504E0,-4.576950073E0,5.989500284E-1,1.051442018E1
1.090973278E0,9.703050613E0,-4.999950409E0,4.137000084E0,1.167319429E1
1.093472668E0,1.067700005E1,-5.101050377E0,6.529050350E0,1.351471581E1
1.095971824E0,1.215195084E1,-4.873950005E0,7.602000237E0,1.513987138E1
1.098471129E0,1.330605030E1,-4.368000031E0,6.925950527E0,1.562367401E1
1.100970285E0,1.485300064E1,-3.588000059E0,6.610050201E0,1.664866770E1
1.103469668E0,1.531500053E1,-3.114000082E0,5.227050304E0,1.647932926E1
1.105968977E0,1.496100044E1,-2.551050186E0,2.076000214E0,1.531826257E1
1.108468360E0,1.357695103E1,-1.798950076E0,1.459500045E-1,1.369639084E1
1.110967439E0,1.252095032E1,-1.572000027E0,2.023050070E0,1.278037998E1
1.113466822E0,1.239195061E1,-1.567050099E0,3.526950121E0,1.297903937E1
1.115965978E0,1.212105083E1,-1.797000051E0,4.939050198E0,1.321148362E1
1.118465283E0,1.141500092E1,-2.071950197E0,6.385050297E0,1.324251074E1
1.120964668E0,1.107195091E1,-2.206050158E0,7.369050503E0,1.348175284E1
1.123463824E0,9.564000130E0,-2.107950211E0,8.434950829E0,1.292524460E1
1.125963129E0,8.596950531E0,-1.603050113E0,9.747000694E0,1.309508880E1
1.128462518E0,8.596950531E0,-7.120500207E-1,1.071600056E1,1.375671624E1
1.130961674E0,8.756999969E0,3.090000153E-1,1.079805088E1,1.390605740E1
1.133461056E0,8.800050735E0,1.306950092E0,1.017795086E1,1.351812469E1
1.135960366E0,8.158950806E0,2.064000130E0,9.784950256E0,1.290634829E1
1.138459536E0,8.104050636E0,2.811000109E0,9.996000290E0,1.317184042E1
1.140958842E0,8.506050110E0,3.577050209E0,1.060905075E1,1.406058799E1
1.143458226E0,8.740050316E0,3.988950253E0,1.085505009E1,1.449594136E1
1.145957382E0,9.471000671E0,4.045950413E0,1.131495094E1,1.530025109E1
1.148456688E0,1.231500053E1,4.966050148E0,1.177200031E1,1.774544684E1
1.150955863E0,1.321305084E1,5.653050423E0,1.119000053E1,1.821421982E1
1.153455245E0,1.241805077E1,5.566950321E0,7.875000477E0,1.572305801E1
1.155954555E0,1.182900047E1,4.999050140E0,4.317000389E0,1.354814551E1
1.158453709E0,1.153500080E1,4.468050003E0,3.385050058E0,1.282490851E1
1.160953092E0,1.199205017E1,4.210950375E0,4.345050335E0,1.343208222E1
1.163452411E0,1.309095097E1,4.101000309E0,6.103050232E0,1.501460698E1
1.165951565E0,1.170495033E1,3.349950075E0,6.342000484E0,1.372767271E1
1.168450871E0,1.185495090E1,3.036000252E0,6.517050266E0,1.386467103E1
1.170950255E0,1.251900101E1,3.352050066E0,6.675000191E0,1.457797151E1
1.173449415E0,1.269300079E1,3.979050159E0,6.234000206E0,1.469040054E1
1.175948798E0,1.382595062E1,3.759000063E0,6.036000252E0,1.554735640E1
1.178448108E0,1.717500114E1,2.952000141E0,2.760000229E0,1.764405198E1
1.180947261E0,1.475700092E1,9.859500527E-1,-1.108050108E0,1.483135020E1
1.183446567E0,1.068195057E1,-6.105000153E-2,-1.440000057E0,1.077874739E1
1.185945943E0,1.105305099E1,6.630000472E-1,2.140050173E0,1.127782426E1
1.188445099E0,1.374900055E1,2.065950155E0,8.041950226E0,1.606163533E1
1.190944404E0,1.402005100E1,3.010050058E0,1.051500034E1,1.778166088E1
1.193443789E0,1.396905041E1,3.595950127E0,1.076895046E1,1.800098666E1
1.195942935E0,1.382805061E1,3.748950243E0,9.498000145E0,1.718957877E1
1.198442240E0,1.255695057E1,3.531000137E0,8.206950188E0,1.541100259E1
1.200941625E0,1.048605061E1,3.223050117E0,8.083050728E0,1.362648225E1
1.203440781E0,8.779050827E0,3.081000090E0,9.450000763E0,1.326147840E1
1.205940082E0,8.323950768E0,3.220050097E0,1.096305084E1,1.413666731E1
1.208439238E0,8.053050041E0,3.369000196E0,1.179600048E1,1.467471992E1
1.210938620E0,7.618050575E0,3.591000080E0,1.168095016E1,1.440050599E1
1.213437930E0,7.563000202E0,3.994050264E0,1.128600025E1,1.416069247E1
1.215937084E0,7.357050419E0,4.447950363E0,1.069005013E1,1.371814947E1
1.218436485E0,6.829950333E0,4.812000275E0,1.019205093E1,1.317882660E1
1.220935795E0,6.496950150E0,5.200050354E0,1.010805035E1,1.309288229E1
1.223434949E0,6.106950283E0,5.526000500E0,1.003200054E1,1.297969792E1
1.225934255E0,5.484000206E0,5.665050507E0,9.877950668E0,1.263886723E1
1.228433635E0,5.202000141E0,5.739000320E0,9.679950714E0,1.239751491E1
1.230932791E0,5.776050091E0,5.775000095E0,9.430950165E0,1.247622546E1
1.233432174E0,5.206950188E0,5.502000332E0,9.067049980E0,1.181506383E1
1.235931483E0,5.025000095E0,5.205000401E0,9.064050674E0,1.159739927E1
1.238430637E0,5.178000450E0,4.963050365E0,9.060000420E0,1.155539550E1
1.240929957E0,5.443950176E0,4.639950275E0,8.796000481E0,1.133734345E1
1.243429342E0,5.422050476E0,4.267050266E0,8.407950401E0,1.087657939E1
1.245928497E0,5.104050159E0,3.949950218E0,8.047050476E0,1.031544745E1
1.248427803E0,4.657950401E0,3.712950230E0,7.810050488E0,9.822392273E0
1.250927188E0,4.788000107E0,3.601050138E0,7.702050209E0,9.757770470E0
1.253426353E0,5.166000366E0,3.433050156E0,7.594050407E0,9.805253426E0
1.255925658E0,4.821000099E0,3.345000267E0,6.967050552E0,9.108834291E0
1.258424814E0,5.089050293E0,3.304050207E0,7.104000568E0,9.342483863E0
1.260924197E0,5.620950222E0,3.261000156E0,7.365000248E0,9.822038081E0
1.263423506E0,6.379950523E0,3.274950266E0,7.527000427E0,1.039638415E1
1.265922641E0,7.780050278E0,3.541050196E0,7.591950417E0,1.143266941E1
1.268422024E0,8.447999954E0,3.642000198E0,7.365000248E0,1.178457031E1
1.270921334E0,8.070000648E0,3.201000214E0,7.546950340E0,1.150338091E1
1.273420487E0,7.689000130E0,2.497050047E0,8.325000763E0,1.160437933E1
1.275919870E0,6.258000374E0,1.402950048E0,9.735000610E0,1.165766162E1
1.278419175E0,4.900050163E0,4.050000310E-1,1.030500031E1,1.141786092E1
1.280918329E0,4.881000042E0,4.305000231E-2,9.673050880E0,1.083484786E1
1.283417634E0,5.022000313E0,2.010000050E-1,8.602050781E0,9.962738870E0
1.285917019E0,4.447950363E0,2.800500095E-1,7.482000351E0,8.708789795E0
1.288416166E0,3.121050119E0,-1.669500023E-1,6.553050518E0,7.260254627E0
1.290915471E0,2.122950077E0,-8.080500364E-1,6.310950279E0,6.707306115E0
1.293414856E0,2.716950178E0,-6.649500132E-1,6.742050171E0,7.299261421E0
1.295914012E0,2.817000151E0,-4.470000267E-1,6.751950264E0,7.329674702E0
1.298413318E0,2.472000122E0,-3.679500222E-1,6.337050438E0,6.812076047E0
1.300912702E0,1.483950019E0,-5.400000215E-1,5.346000195E0,5.574354291E0
1.303411858E0,9.379500151E-1,-6.930000186E-1,4.393050194E0,4.545205085E0
1.305911164E0,8.970000148E-1,-8.350500464E-1,3.879000187E0,4.067992141E0
1.308410320E0,1.177050114E0,-9.970500469E-1,3.751950264E0,4.056684182E0
1.310909716E0,1.467000127E0,-1.239000082E0,3.994050264E0,4.431664257E0
1.313409026E0,2.179949999E0,-1.336950064E0,3.879000187E0,4.646101583E0
1.315908180E0,3.034950256E0,-1.318050027E0,2.775000095E0,4.318426156E0
1.318407562E0,2.893950224E0,-1.716000080E0,1.525050044E0,3.693965594E0
1.320906857E0,3.046950102E0,-2.023950100E0,1.480050087E0,3.945988747E0
1.323406011E0,3.391950130E0,-2.362050056E0,1.603950024E0,4.433651073E0
1.325905394E0,3.703050137E0,-2.728050232E0,1.384050012E0,4.803169039E0
1.328404703E0,4.282050133E0,-2.922000170E0,2.137950182E0,5.607572497E0
1.330903857E0,4.588950157E0,-3.202050209E0,2.590950012E0,6.166409900E0
1.333403225E0,4.867050171E0,-3.526050091E0,2.443950176E0,6.487996538E0
1.335902535E0,5.350050449E0,-3.703050137E0,2.631000042E0,7.018388800E0
1.338401688E0,5.968050480E0,-3.684000254E0,2.890050173E0,7.585636058E0
1.340901071E0,5.808000088E0,-4.287000179E0,3.433050156E0,7.993564219E0
1.343400381E0,5.989950180E0,-4.464000225E0,4.999050140E0,8.988732028E0
1.345899521E0,6.622050285E0,-4.072050095E0,6.129000187E0,9.899383074E0
1.348398826E0,7.744950294E0,-3.508950233E0,6.309000492E0,1.058775113E1
1.350898211E0,6.886950493E0,-3.966000080E0,6.166950226E0,1.005934982E1
1.353397367E0,6.279000282E0,-3.585000277E0,6.333000183E0,9.611709673E0
1.355896672E0,6.772050381E0,-2.601000071E0,6.318000317E0,9.619927013E0
1.358396062E0,7.423950195E0,-1.051950097E0,6.442950249E0,9.886012513E0
1.360895218E0,6.952050209E0,3.405000269E-2,6.739950180E0,9.682927757E0
1.363394524E0,8.128050804E0,-7.304999977E-2,7.234950542E0,1.088186820E1
1.365893908E0,8.367000580E0,7.159500122E-1,6.427950382E0,1.057534062E1
1.368393064E0,8.271000862E0,1.659000039E0,5.001000404E0,9.806719198E0
1.370892384E0,8.379000664E0,2.233950138E0,4.851000309E0,9.936316689E0
1.373391540E0,7.900050163E0,1.791000128E0,4.041000366E0,9.052522190E0
1.375890922E0,7.572000504E0,6.940500140E-1,3.603000164E0,8.414184882E0
1.378390232E0,6.994950294E0,-4.060500264E-1,3.631950140E0,7.892101625E0
1.380889386E0,6.495000362E0,-1.002000093E0,4.009950161E0,7.698618979E0
1.383388778E0,6.681000233E0,-1.054949999E0,4.065000057E0,7.891318589E0
1.385888088E0,7.002000332E0,-7.459500432E-1,4.456050396E0,8.333116779E0
1.388387242E0,7.345050335E0,-5.449500084E-1,4.590000153E0,8.678412086E0
1.390886548E0,7.054950237E0,-3.270000219E-1,4.846050262E0,8.565246932E0
1.393385932E0,7.054950237E0,-4.129500091E-1,4.537050247E0,8.398075703E0
1.395885088E0,7.428000450E0,-8.749500513E-1,4.522950172E0,8.740583879E0
1.398384394E0,8.460000038E0,-1.854000092E0,4.420050144E0,9.723464417E0
1.400883778E0,7.663050175E0,-1.965000153E0,4.683000088E0,9.193152528E0
1.403382934E0,7.524000168E0,-1.936050057E0,4.707000256E0,9.083761322E0
1.405882225E0,7.528950214E0,-1.756050110E0,4.963050365E0,9.186983849E0
1.408381381E0,7.759050369E0,-1.510050058E0,4.896000385E0,9.298060743E0
1.410880763E0,8.427000046E0,-1.347000122E0,4.306950092E0,9.559213263E0
1.413380073E0,8.602050781E0,-1.347000122E0,3.912000179E0,9.545335634E0
1.415879456E0,8.755050659E0,-1.323000073E0,3.340050220E0,9.463465365E0
1.418378627E0,9.253050804E0,-1.492950082E0,2.547000170E0,9.712623693E0
1.420877932E0,9.865950584E0,-1.801950097E0,2.137950182E0,1.025450321E1
1.423377088E0,9.957000732E0,-1.918950081E0,1.956000090E0,1.032715689E1
1.425876471E0,1.050495052E1,-1.909950137E0,1.651950121E0,1.080420447E1
1.428375780E0,1.069905090E1,-1.620000124E0,1.783950090E0,1.096706745E1
1.430874938E0,1.111305046E1,-1.404000044E0,1.992000103E0,1.137713369E1
1.433374321E0,1.152300072E1,-1.119000077E0,2.113950014E0,1.176862317E1
1.435873631E0,1.157295036E1,-7.410000563E-1,2.413050175E0,1.184504421E1
1.438372785E0,1.163295078E1,-5.160000324E-1,2.428050041E0,1.189484035E1
1.440872167E0,1.193895054E1,-6.570000052E-1,2.289000034E0,1.217414104E1
1.443371468E0,1.135500050E1,-4.900500178E-1,2.035050154E0,1.154632471E1
1.445870622E0,1.080705070E1,-3.390000165E-1,2.167050123E0,1.102739190E1
1.448369927E0,1.017195034E1,-1.095000096E-2,2.358000040E0,1.044168846E1
1.450869312E0,9.966000557E0,1.890000105E-1,2.172000170E0,1.020168971E1
1.453368468E0,9.664950371E0,2.779500186E-1,1.731000066E0,9.822671893E0
1.455867779E0,9.540000916E0,2.680500150E-1,1.329000115E0,9.635855415E0
1.458367163E0,9.550050735E0,8.895000070E-2,5.530500412E-1,9.566464629E0
1.460866319E0,9.741000175E0,3.795000166E-2,3.589500189E-1,9.747685353E0
1.463365625E0,1.009800053E1,4.800000042E-2,5.959500074E-1,1.011568461E1
1.465865013E0,1.035900021E1,7.905000448E-2,1.137000084E0,1.042151157E1
1.468364169E0,1.034505081E1,1.129500046E-1,2.011049986E0,1.053931478E1
1.470863475E0,1.014105034E1,3.109500110E-1,2.617050171E0,1.047790740E1
1.473362631E0,1.008795071E1,4.069500268E-1,2.935050249E0,1.051412753E1
1.475862013E0,1.020105076E1,4.090500176E-1,2.968950033E0,1.063218805E1
1.478361333E0,1.006905079E1,2.850000262E-1,2.908950090E0,1.048470312E1
1.480860487E0,9.871050835E0,-7.605000585E-2,2.539950132E0,1.019287863E1
1.483359870E0,9.370050430E0,-4.990500212E-1,2.041949987E0,9.602939953E0
1.485859179E0,9.648000717E0,-9.469500184E-1,1.767000079E0,9.854081462E0
1.488358343E0,8.578050613E0,-1.186050057E0,1.966050148E0,8.880034924E0
1.490857649E0,8.175000191E0,-1.206000090E0,2.538000107E0,8.644449599E0
1.493357033E0,9.339000702E0,-1.002000093E0,2.836950064E0,9.811688130E0
1.495856189E0,9.219000816E0,-8.110500574E-1,2.346000195E0,9.547329216E0
1.498355572E0,9.613950729E0,-6.019500494E-1,2.583000183E0,9.973077882E0
1.500854877E0,1.030395031E1,-5.260500312E-1,1.702050090E0,1.045682051E1
1.503354030E0,1.146000099E1,-4.300500154E-1,3.349500299E-1,1.147295765E1
1.505853336E0,1.185795021E1,-2.580000162E-1,-9.705000371E-2,1.186115365E1
1.508352721E0,1.173105049E1,-1.810500026E-1,-9.210000634E-1,1.176854136E1
1.510851877E0,1.161105061E1,-2.295000106E-2,-8.110500574E-1,1.163936532E1
1.513351274E0,1.177200031E1,2.800500095E-1,-3.100500107E-1,1.177941214E1
1.515850353E0,1.205205059E1,6.580500603E-1,1.030500084E-1,1.207044211E1
1.518349736E0,1.275300026E1,1.003050089E0,4.500000179E-1,1.280029785E1
1.520849043E0,1.314795017E1,1.129950047E0,1.015050054E0,1.323539601E1
1.523348199E0,1.302105045E1,1.084950089E0,1.969950080E0,1.321384028E1
1.525847582E0,1.244895077E1,1.024950027E0,3.514950275E0,1.297620026E1
1.528346892E0,1.182195091E1,9.580500722E-1,5.137950420E0,1.292574632E1
1.530846046E0,1.146705055E1,9.390000701E-1,6.550950527E0,1.323971005E1
1.533345428E0,1.138800049E1,9.289500713E-1,7.506000519E0,1.367075518E1
1.535844738E0,1.128105068E1,9.700500369E-1,7.942050457E0,1.383037480E1
1.538343892E0,1.142205048E1,8.380500674E-1,8.260050774E0,1.412069417E1
1.540843274E0,1.160595036E1,7.849500179E-1,8.593050003E0,1.446218305E1
1.543342584E0,1.149900055E1,6.439500451E-1,8.482950211E0,1.430392008E1
1.545841738E0,1.113000011E1,4.759500325E-1,8.137949944E0,1.379600160E1
1.548341044E0,1.056195068E1,1.480500102E-1,7.491000175E0,1.294958705E1
1.550840428E0,1.011495018E1,-3.630000055E-1,6.937950134E0,1.227106916E1
1.553339584E0,9.685950279E0,-8.869500160E-1,6.406950474E0,1.164703085E1
1.555838967E0,9.568950653E0,-1.318050027E0,6.160050392E0,1.145636475E1
1.558338046E0,9.289050102E0,-1.777950048E0,5.443950176E0,1.091256852E1
1.560837414E0,9.430050850E0,-1.918950081E0,5.281950474E0,1.097757848E1
1.563336722E0,9.732000351E0,-1.735050082E0,5.097000122E0,1.112212389E1
1.565836107E0,9.985050201E0,-1.443000078E0,4.774050236E0,1.116131858E1
1.568335262E0,9.720000267E0,-1.159950018E0,4.495950222E0,1.077206840E1
1.570834635E0,9.688950539E0,-7.290000319E-1,4.408050060E0,1.066949431E1
1.573333714E0,9.507000923E0,-3.390000165E-1,4.052999973E0,1.034044469E1
1.575833097E0,9.298050880E0,2.400000021E-2,3.874050140E0,1.007286407E1
1.578332404E0,8.977950096E0,2.830500007E-1,3.607950211E0,9.679928200E0
1.580831560E0,8.756999969E0,4.050000310E-1,3.235050201E0,9.344229412E0
1.583330943E0,8.446050644E0,5.119500160E-1,2.989950180E0,8.974278042E0
1.585830252E0,8.237999916E0,6.820500493E-1,3.012000084E0,8.797839473E0
1.588329406E0,8.290050507E0,8.329500556E-1,2.988000154E0,8.851377753E0
1.590828789E0,8.209050179E0,8.359500170E-1,3.225000143E0,8.859342142E0
1.593328099E0,8.105999947E0,7.540500164E-1,3.475950241E0,8.852008622E0
1.595827242E0,7.861950397E0,5.629500151E-1,3.414000273E0,8.589678378E0
1.598326625E0,8.082000732E0,5.749500394E-1,3.469050169E0,8.813830748E0
1.600825935E0,8.428950310E0,7.570500374E-1,3.891000271E0,9.314516154E0
1.603325089E0,8.709000587E0,1.089000106E0,3.982050180E0,9.637911397E0
1.605824471E0,8.617950439E0,1.201950073E0,4.060950279E0,9.602347157E0
1.608323767E0,8.736000061E0,1.348050117E0,4.714050293E0,1.001784440E1
1.610822921E0,8.941950798E0,1.480050087E0,4.747950077E0,1.023191391E1
1.613322303E0,8.025000572E0,4.759500325E-1,4.693050385E0,9.308699401E0
1.615821382E0,8.659049988E0,6.540000439E-1,4.810050011E0,9.926905049E0
1.618320765E0,9.259950638E0,9.070500135E-1,5.016000271E0,1.057022631E1
1.620820058E0,9.966000557E0,1.341000080E0,5.461050034E0,1.144301166E1
1.623319442E0,1.019100094E1,1.705050111E0,5.818050385E0,1.185805238E1
1.625818598E0,9.952050209E0,1.599000096E0,5.959050179E0,1.170941432E1
1.628317904E0,9.945000648E0,1.573050022E0,6.127050400E0,1.178635953E1
1.630817075E0,1.008795071E1,1.702050090E0,6.157950401E0,1.194085747E1
1.633316457E0,1.021995068E1,1.872000098E0,6.253950119E0,1.212698100E1
1.635815767E0,1.007400036E1,2.107050180E0,6.262950420E0,1.204780858E1
1.638314921E0,9.684000015E0,2.172000170E0,6.301950455E0,1.175636086E1
1.640814303E0,8.587050438E0,1.585050106E0,5.959050179E0,1.057166487E1
1.643313627E0,8.237999916E0,1.522950053E0,5.811000347E0,1.019567283E1
1.645812781E0,7.789950371E0,1.389000058E0,5.547000408E0,9.663429074E0
1.648312164E0,7.723050594E0,1.386000037E0,5.622000217E0,9.652636584E0
1.650811473E0,7.846950531E0,1.587000132E0,5.547000408E0,9.739733856E0
1.653310627E0,8.065050125E0,1.743000031E0,5.344050407E0,9.830664137E0
1.655810010E0,8.017050743E0,1.932000041E0,5.241000175E0,9.771070034E0
1.658309320E0,9.207000732E0,2.562000036E0,3.967050076E0,1.034747278E1
1.660808473E0,6.849000454E0,2.713050127E0,3.655950069E0,8.224075578E0
1.663307779E0,6.403950214E0,3.069000244E0,3.864000082E0,8.084543121E0
1.665807169E0,5.310000420E0,3.129000187E0,3.519000053E0,7.097190148E0
1.668306325E0,5.451000214E0,3.919050217E0,3.394950151E0,7.523167183E0
1.670805630E0,5.628000259E0,4.252050400E0,2.938050032E0,7.641103161E0
1.673304786E0,5.602050304E0,4.147050381E0,2.392050028E0,7.369049994E0
1.675804154E0,5.620950222E0,3.646050215E0,1.489050031E0,6.863383536E0
1.678303463E0,6.057000160E0,2.928000212E0,7.780500650E-1,6.772429260E0
1.680802617E0,6.190950394E0,1.864950061E0,-3.439500034E-1,6.474890510E0
1.683302000E0,6.070950508E0,7.369500399E-1,-1.242000103E0,6.240360542E0
1.685801310E0,6.010950089E0,-2.020500153E-1,-1.660950065E0,6.239479168E0
1.688300454E0,6.337050438E0,-9.970500469E-1,-2.110949993E0,6.753401137E0
1.690799837E0,7.038000107E0,-1.407000065E0,-2.017050028E0,7.455305862E0
1.693299147E0,8.202000618E0,-1.636950135E0,-2.163000107E0,8.638922927E0
1.695798301E0,9.691050529E0,-1.681950092E0,-2.296950102E0,1.010056415E1
1.698297683E0,1.091700077E1,-1.692000031E0,-2.302050114E0,1.128464464E1
1.700796977E0,1.168095016E1,-1.756050110E0,-2.143949986E0,1.200520013E1
1.703296131E0,1.185795021E1,-2.041050196E0,-2.191950083E0,1.223035217E1
1.705795513E0,1.156305027E1,-2.460000038E0,-2.239950180E0,1.203216974E1
1.708294823E0,1.100100040E1,-2.938950062E0,-2.131950140E0,1.158467301E1
1.710793972E0,1.027305031E1,-3.010950089E0,-7.240500450E-1,1.072966130E1
1.713293355E0,9.886950493E0,-2.845950127E0,3.300000131E-1,1.029369332E1
1.715792664E0,9.901950836E0,-2.632950068E0,4.930500090E-1,1.025788257E1
1.718291818E0,1.002900028E1,-2.455050230E0,3.349500299E-1,1.033055225E1
1.720791124E0,1.000905037E1,-2.362050056E0,2.989500165E-1,1.028833032E1
1.723290280E0,9.792000771E0,-2.359950066E0,4.000500143E-1,1.008031167E1
1.725789662E0,9.436950684E0,-2.319000006E0,7.180500627E-1,9.744198024E0
1.728288972E0,8.998950005E0,-2.254050016E0,1.108050108E0,9.342891292E0
1.730788355E0,8.665950775E0,-2.101050138E0,1.465050101E0,9.036563856E0
1.733287510E0,8.434050560E0,-1.888050079E0,1.647000074E0,8.798326613E0
1.735786802E0,8.095950127E0,-1.653000116E0,1.828950047E0,8.462970880E0
1.738285958E0,7.737000465E0,-1.444950104E0,2.029950142E0,8.128330369E0
1.740785341E0,7.548000336E0,-1.225050092E0,2.182950020E0,7.952252988E0
1.743284650E0,7.215000153E0,-1.050000072E0,2.506950140E0,7.709962799E0
1.745783804E0,7.029000282E0,-8.869500160E-1,2.715000153E0,7.587143806E0
1.748283115E0,6.961950302E0,-7.320000529E-1,2.871000051E0,7.566189092E0
1.750782499E0,6.930000305E0,-8.010000587E-1,2.515950203E0,7.415963238E0
1.753281655E0,6.733950138E0,-1.015950084E0,2.470950127E0,7.244572697E0
1.755780961E0,6.684000492E0,-1.189050078E0,2.665050030E0,7.293297905E0
1.758280346E0,6.591000080E0,-1.239000082E0,2.941950083E0,7.323351251E0
1.760779497E0,6.468000412E0,-1.239000082E0,3.318000078E0,7.374230472E0
1.763278802E0,6.421050072E0,-1.285050035E0,3.543000221E0,7.445407187E0
1.765778187E0,6.598050117E0,-1.255950093E0,3.709050179E0,7.672595989E0
1.768277343E0,6.610050201E0,-1.183950067E0,3.883050203E0,7.757098704E0
1.770776653E0,6.729000092E0,-1.075950027E0,4.003050327E0,7.903260252E0
1.773276038E0,6.862950325E0,-8.250000477E-1,4.198950291E0,8.087762100E0
1.775775194E0,6.715050220E0,-4.560000300E-1,4.092000008E0,7.876820396E0
1.778274500E0,6.552000523E0,-6.769500375E-1,3.582000256E0,7.497846226E0
1.780773679E0,6.540000439E0,-8.110500574E-1,3.634050131E0,7.525671285E0
1.783273062E0,6.547050476E0,-9.160500169E-1,3.511950254E0,7.485773985E0
1.785772372E0,6.727050304E0,-9.520500302E-1,3.450000048E0,7.619849433E0
1.788271526E0,6.777000427E0,-1.045050025E0,3.390000105E0,7.649311411E0
1.790770831E0,7.012050152E0,-1.153050065E0,3.511950254E0,7.926674358E0
1.793270216E0,7.042950153E0,-1.242000103E0,2.926050186E0,7.727061590E0
1.795769372E0,7.195950508E0,-1.279950023E0,2.784000158E0,7.821165684E0
1.798268754E0,7.540950298E0,-1.323000073E0,2.551950216E0,8.070236087E0
1.800768064E0,7.656000137E0,-1.380000114E0,2.253000021E0,8.099058434E0
1.803267218E0,7.962000370E0,-1.336950064E0,2.206950188E0,8.369678279E0
1.805766547E0,8.206950188E0,-1.323000073E0,1.956000090E0,8.539923707E0
1.808265931E0,8.341050148E0,-1.285050035E0,1.563000083E0,8.582973868E0
1.810765087E0,8.332950592E0,-1.339950085E0,1.324050069E0,8.543221897E0
1.813264393E0,7.969950199E0,-1.452000022E0,6.370500326E-1,8.126145641E0
1.815763777E0,1.009800053E1,-1.106999993E0,-5.230500102E-1,1.017195384E1
1.818262914E0,1.027500057E1,-1.348950028E0,-9.780000448E-1,1.040921645E1
1.820762220E0,1.026600075E1,-1.720050097E0,-3.250500262E-1,1.041417309E1
1.823261376E0,1.093395042E1,-1.828050137E0,-4.780500233E-1,1.109601600E1
1.825760758E0,1.192005062E1,-1.759050131E0,-4.660500288E-1,1.205815354E1
1.828260068E0,1.323405075E1,-1.627050042E0,-5.830500126E-1,1.334643542E1
1.830759451E0,1.416795063E1,-1.267950058E0,-1.644000053E0,1.431926180E1
1.833258530E0,1.308105087E1,-1.540950060E0,-7.800000161E-2,1.317173121E1
1.835757912E0,1.275600052E1,-1.657950044E0,1.882050037E0,1.300024846E1
1.838257068E0,1.398105049E1,-1.246050000E0,2.530950069E0,1.426282306E1
1.840756384E0,1.452000046E1,-6.550500393E-1,3.012000084E0,1.484357263E1
1.843255768E0,1.448400116E1,-1.000500023E-1,3.067050219E0,1.480550900E1
1.845755153E0,1.440300083E1,4.140000343E-1,3.676950216E0,1.487070247E1
1.848254232E0,1.368900108E1,6.850500107E-1,4.683000088E0,1.448407864E1
1.850753615E0,1.310505104E1,1.033950090E0,6.196050167E0,1.453280610E1
1.853252785E0,1.241595078E1,1.324050069E0,6.973950386E0,1.430192037E1
1.855752090E0,1.195395088E1,1.458000064E0,7.506000519E0,1.419023431E1
1.858251475E0,1.175505066E1,1.789050102E0,7.603950500E0,1.411389314E1
1.860750631E0,1.122795010E1,2.160000086E0,8.004000664E0,1.395695133E1
1.863249936E0,1.078305054E1,2.406000137E0,8.109000206E0,1.370470357E1
1.865749335E0,1.069695091E1,2.611950159E0,8.023050308E0,1.362411020E1
1.868248491E0,1.063695049E1,2.770050049E0,7.936950207E0,1.355776794E1
1.870747797E0,1.028205013E1,2.943000078E0,8.179050446E0,1.346397677E1
1.873247181E0,1.076100063E1,3.193950176E0,8.313000679E0,1.396805042E1
1.875746256E0,1.033500004E1,3.073950052E0,8.011050224E0,1.343273317E1
1.878245639E0,9.961950302E0,2.950050116E0,8.001000404E0,1.311332364E1
1.880744795E0,9.685950279E0,2.803950071E0,8.077950478E0,1.292025746E1
1.883244177E0,9.247950554E0,2.524050236E0,7.740000248E0,1.232083694E1
1.885743487E0,8.668950081E0,2.104950190E0,7.111050129E0,1.140826651E1
1.888242874E0,8.211000443E0,1.686000109E0,6.430950165E0,1.056504826E1
1.890741952E0,8.143950462E0,1.372050047E0,6.016950130E0,1.021812798E1
1.893241335E0,8.050950050E0,1.132050037E0,5.746050358E0,9.955723415E0
1.895740491E0,8.197050095E0,1.020000100E0,5.418000221E0,9.878600956E0
1.898239874E0,8.487000465E0,9.670500755E-1,5.224050045E0,1.001274496E1
1.900739198E0,8.542050362E0,7.540500164E-1,4.089000225E0,9.500270451E0
1.903238352E0,7.903050423E0,2.779500186E-1,3.031050205E0,8.468927178E0
1.905737658E0,7.654050350E0,6.900000572E-2,4.209000111E0,8.735269297E0
1.908237042E0,8.422050476E0,6.195000187E-2,4.755000114E0,9.671855981E0
1.910736198E0,8.797950745E0,2.205000073E-2,4.594050407E0,9.925206429E0
1.913235504E0,8.985000610E0,-9.495000541E-2,4.675950050E0,1.012935143E1
1.915734889E0,9.282000542E0,-2.530499995E-1,4.626000404E0,1.037397938E1
1.918234044E0,9.207000732E0,-4.180500209E-1,3.940950155E0,1.002370772E1
1.920733350E0,9.367950439E0,-5.830500126E-1,3.333000183E0,9.960287796E0
1.923232735E0,9.403950691E0,-7.990500331E-1,2.983050108E0,9.898048166E0
1.925731891E0,9.045000076E0,-1.000050068E0,2.860950232E0,9.539243300E0
1.928231196E0,8.616000175E0,-1.105050087E0,2.842050076E0,9.139685079E0
1.930730352E0,8.259000778E0,-1.098000050E0,3.165000200E0,8.912571135E0
1.933229658E0,7.938000202E0,-1.024049997E0,3.424050093E0,8.705437648E0
1.935729042E0,7.845000267E0,-8.850000501E-1,3.430950165E0,8.608058626E0
1.938228193E0,8.185050011E0,-6.240000129E-1,3.342000246E0,8.863034770E0
1.940727576E0,8.580000877E0,-2.050500065E-1,3.187050104E0,9.155094152E0
1.943226886E0,8.985000610E0,2.830500007E-1,3.085950136E0,9.504390644E0
1.945726039E0,9.598050117E0,8.359500170E-1,2.715000153E0,1.000962558E1
1.948225345E0,1.034205055E1,1.422000051E0,2.305950165E0,1.069100089E1
1.950724730E0,1.088805008E1,2.016000032E0,2.298000097E0,1.130905368E1
1.953223886E0,1.125000095E1,2.521050215E0,2.595000029E0,1.181745492E1
1.955723268E0,1.136205101E1,2.844000101E0,2.860950232E0,1.205693062E1
1.958222347E0,1.135005093E1,2.983050108E0,2.680950165E0,1.203784606E1
1.960721730E0,1.077105045E1,2.952000141E0,2.083050013E0,1.136085076E1
1.963221033E0,1.006695080E1,2.731950045E0,1.222950101E0,1.050250715E1
1.965720188E0,9.925950050E0,2.575950146E0,9.580500722E-1,1.029941083E1
1.968219571E0,9.789000511E0,2.416050196E0,9.979500771E-1,1.013201529E1
1.970718881E0,9.526050568E0,2.121000051E0,1.029000044E0,9.813415396E0
1.973218025E0,9.349050522E0,1.780950069E0,8.520000577E-1,9.555230657E0
1.975717407E0,9.127950668E0,1.474950075E0,8.380500674E-1,9.284249514E0
1.978216717E0,8.946000099E0,1.188000083E0,9.310500622E-1,9.072437169E0
1.980715871E0,8.748000145E0,9.220500588E-1,9.649500251E-1,8.849226599E0
1.983215253E0,8.554050446E0,6.610500216E-1,4.759500325E-1,8.592746627E0
1.985714568E0,8.386050224E0,4.980000257E-1,4.140000343E-1,8.411018869E0
1.988213722E0,8.446050644E0,4.170000255E-1,9.720000625E-1,8.512017659E0
1.990713105E0,8.584950447E0,4.050000310E-1,1.405050039E0,8.708591437E0
1.993212414E0,8.677950859E0,4.759500325E-1,1.480050087E0,8.816116368E0
1.995711568E0,8.839050293E0,5.890500546E-1,1.674000025E0,9.015434883E0
1.998210951E0,8.932050705E0,3.970500231E-1,2.182950020E0,9.203502013E0
2.000710030E0,8.632950783E0,5.340000391E-1,2.334000111E0,8.958825357E0
2.003209412E0,8.178000450E0,9.649500251E-1,2.670000076E0,8.656773089E0
2.005708720E0,8.644950867E0,1.341000080E0,3.021000147E0,9.255263291E0
2.008208110E0,8.950950623E0,1.618950129E0,3.294000149E0,9.674241756E0
2.010707265E0,8.913000107E0,1.816950083E0,3.349050045E0,9.693245830E0
2.013206571E0,8.524950027E0,1.767000079E0,2.437050104E0,9.040811659E0
2.015705727E0,7.749000549E0,1.638000131E0,1.360050082E0,8.036155186E0
2.018205110E0,7.981950283E0,1.846050143E0,2.221950054E0,8.488609633E0
2.020704419E0,8.026950836E0,2.016000032E0,2.806050062E0,8.738999531E0
2.023203573E0,7.945950508E0,2.212050200E0,3.037950039E0,8.789791579E0
2.025702956E0,7.761000156E0,2.272050142E0,3.057000160E0,8.645263747E0
2.028202265E0,7.405050278E0,2.157000065E0,3.238950253E0,8.365298419E0
2.030701419E0,7.246950150E0,2.131050110E0,3.709050179E0,8.415266738E0
2.033200807E0,7.191000462E0,2.206950188E0,3.807000160E0,8.430561487E0
2.035700117E0,7.210950375E0,2.254950047E0,3.721050262E0,8.421924962E0
2.038199270E0,7.440000534E0,2.413050175E0,4.237950325E0,8.895877812E0
2.040698653E0,7.555050373E0,2.562000036E0,4.657050133E0,9.237464277E0
2.043197963E0,7.420950413E0,2.607000113E0,4.510950089E0,9.067283238E0
2.045697098E0,7.315950394E0,2.629050016E0,4.423950195E0,8.944627968E0
2.048196403E0,7.201050282E0,2.679000139E0,4.417050362E0,8.862420708E0
2.050695788E0,6.982950211E0,2.653050184E0,3.979050159E0,8.463634509E0
2.053194944E0,6.709950447E0,2.595000029E0,3.598050117E0,8.043843907E0
2.055694227E0,6.508950233E0,2.554950237E0,3.418950081E0,7.783535412E0
2.058193382E0,6.492000103E0,2.538000107E0,3.499950171E0,7.799818016E0
2.060692765E0,6.693000317E0,2.554950237E0,3.472050190E0,7.961102717E0
2.063192075E0,6.700950146E0,2.491950035E0,3.345000267E0,7.893134651E0
2.065691233E0,6.586050510E0,2.382000208E0,3.120000124E0,7.667097697E0
2.068190615E0,6.004050255E0,2.161950111E0,2.767950058E0,6.955874875E0
2.070689925E0,6.133050442E0,2.026050091E0,2.587950230E0,6.958209043E0
2.073189079E0,6.229050159E0,1.923000097E0,2.767950058E0,7.082410803E0
2.075688384E0,6.303000450E0,1.807950139E0,2.811000109E0,7.134298844E0
2.078187764E0,6.186000347E0,1.590000033E0,2.614050150E0,6.901301224E0
2.080686920E0,6.265050411E0,1.405050039E0,2.581050158E0,6.920031950E0
2.083186226E0,6.307950497E0,1.164000034E0,2.545050144E0,6.900899636E0
2.085685610E0,6.004050255E0,8.089500666E-1,2.239050150E0,6.458820732E0
2.088184766E0,5.989950180E0,4.759500325E-1,2.848950148E0,6.650003649E0
2.090684072E0,5.085000038E0,-1.330500096E-1,2.776950121E0,5.795375714E0
2.093183456E0,5.140050411E0,-6.795000285E-2,9.310500622E-1,5.224135302E0
2.095682612E0,4.984050274E0,-8.869500160E-1,1.587000132E0,5.305281037E0
2.098181918E0,4.990950108E0,-8.700000644E-1,1.462950110E0,5.273206436E0
2.100681303E0,4.800000191E0,-1.002000093E0,1.333950043E0,5.081675780E0
2.103180462E0,4.657950401E0,-1.114950061E0,1.237950087E0,4.946931978E0
2.105679768E0,5.070000172E0,-1.191000104E0,1.507950068E0,5.421927369E0
2.108179153E0,5.701950073E0,-1.063950062E0,1.876950145E0,6.096488023E0
2.110678309E0,5.773950100E0,-9.589500427E-1,2.101950169E0,6.219025603E0
2.113177624E0,5.674050331E0,-9.139500260E-1,2.194950104E0,6.152069389E0
2.115677009E0,6.289050102E0,-8.629500270E-1,2.691000223E0,6.894803561E0
2.118176088E0,6.670050144E0,-7.680000067E-1,3.144000053E0,7.413779689E0
2.120675470E0,7.692000389E0,-4.609500170E-1,3.237000227E0,8.358080843E0
2.123174626E0,8.368950844E0,-1.669500023E-1,2.803950071E0,8.827759995E0
2.125673932E0,9.643050194E0,2.389500141E-1,2.815950155E0,1.004863620E1
2.128173317E0,1.083795071E1,5.790000558E-1,3.892950296E0,1.153045873E1
2.130672472E0,1.188900089E1,9.510000348E-1,5.452050209E0,1.311402283E1
2.133171778E0,1.262595081E1,1.246950030E0,6.772950172E0,1.438201559E1
2.135671163E0,1.353600025E1,1.573050022E0,8.023050308E0,1.581351085E1
2.138170333E0,1.364895058E1,2.011049986E0,8.482950211E0,1.619563578E1
2.140669638E0,1.369395065E1,2.377050161E0,8.322000504E0,1.619970198E1
2.143169023E0,1.401300049E1,2.703000069E0,8.245950699E0,1.648229641E1
2.145668179E0,1.444305038E1,2.952000141E0,8.298000336E0,1.691664325E1
2.148167485E0,1.369395065E1,2.890050173E0,8.059050560E0,1.615007648E1
2.150666860E0,1.288005066E1,2.775000095E0,8.443950653E0,1.564917356E1
2.153166016E0,1.249005032E1,2.599950075E0,9.109950066E0,1.567648837E1
2.155665322E0,1.152705097E1,2.305950165E0,9.451950073E0,1.508408666E1
2.158164706E0,1.071300030E1,2.032950163E0,9.555000305E0,1.449825136E1
2.160663785E0,9.946950912E0,1.827000141E0,9.483000755E0,1.386387627E1
2.163163177E0,9.136050224E0,1.681050062E0,9.151050568E0,1.303974960E1
2.165662333E0,8.841000557E0,1.659000039E0,9.067049980E0,1.277211679E1
2.168161715E0,8.476950645E0,1.732950091E0,8.775000572E0,1.232324808E1
2.170661025E0,7.885950565E0,1.840950131E0,8.226000786E0,1.154315393E1
2.173160179E0,7.395000458E0,1.966050148E0,7.920000553E0,1.101261975E1
2.175659485E0,7.249050140E0,2.026050091E0,8.095050812E0,1.105366249E1
2.178158869E0,7.078950405E0,2.047049999E0,8.425050735E0,1.119300819E1
2.180658025E0,6.757950306E0,1.972950101E0,8.614050865E0,1.112494030E1
2.183157408E0,6.997950554E0,1.831950068E0,8.818050385E0,1.140549717E1
2.185656703E0,6.696000099E0,1.528050065E0,8.920950890E0,1.125853983E1
2.188155857E0,6.528000355E0,1.149000049E0,8.896950722E0,1.109462581E1
2.190655163E0,6.436950207E0,7.810500264E-1,8.822999954E0,1.094941529E1
2.193154548E0,6.412950516E0,4.669500291E-1,8.313000679E0,1.050951745E1
2.195653703E0,6.538050175E0,2.610000074E-1,7.498950481E0,9.952310255E0
2.198152990E0,6.640950203E0,1.270500124E-1,6.808950424E0,9.512106348E0
2.200652375E0,7.215000153E0,1.170000061E-1,6.418950081E0,9.657786307E0
2.203151531E0,7.833000183E0,1.410000026E-1,6.282000065E0,1.004187720E1
2.205650836E0,8.379000664E0,1.560000032E-1,6.250950336E0,1.045496859E1
2.208149982E0,8.946000099E0,2.299500108E-1,6.457050323E0,1.103527497E1
2.210649365E0,9.210000038E0,3.109500110E-1,7.210950375E0,1.170122198E1
2.213148674E0,9.729000092E0,4.120500088E-1,8.149950027E0,1.269822481E1
2.215647828E0,9.814950943E0,5.170500278E-1,8.763000488E0,1.316779330E1
2.218147134E0,9.697950363E0,7.249500155E-1,8.953950882E0,1.321926738E1
2.220646500E0,9.504000664E0,9.820500612E-1,9.012000084E0,1.313417666E1
2.223145655E0,9.229050636E0,1.189950109E0,8.880000114E0,1.286257202E1
2.225645038E0,8.953950882E0,1.384050012E0,8.665050507E0,1.253682301E1
2.228144117E0,8.723999977E0,1.579950094E0,8.539950371E0,1.230996224E1
2.230643500E0,8.781000137E0,1.815000057E0,8.413050652E0,1.229551178E1
2.233142821E0,8.878950119E0,2.035050154E0,8.386950493E0,1.238216956E1
2.235642206E0,9.091950417E0,2.137950182E0,8.395950317E0,1.255891616E1
2.238141362E0,9.243000031E0,2.152050018E0,8.569050789E0,1.278643814E1
2.240640744E0,9.271950722E0,2.119050026E0,8.690999985E0,1.288382412E1
2.243139823E0,9.430050850E0,2.068950176E0,8.668950081E0,1.297524988E1
2.245639216E0,9.568950653E0,2.089950085E0,8.671950340E0,1.308187413E1
2.248138524E0,9.715050697E0,2.101950169E0,8.478000641E0,1.306433693E1
2.250637680E0,9.727050781E0,2.071050167E0,8.430000305E0,1.303724169E1
2.253137062E0,9.976050377E0,1.987050056E0,8.322000504E0,1.314251275E1
2.255636381E0,1.020795059E1,1.860000134E0,7.980000496E0,1.308977707E1
2.258135535E0,1.026600075E1,1.666050076E0,7.803000450E0,1.300205023E1
2.260634917E0,1.052205086E1,1.377000093E0,7.198950291E0,1.282320431E1
2.263134227E0,1.054305077E1,1.080000043E0,6.879000187E0,1.263498964E1
2.265633397E0,1.060800076E1,7.849500179E-1,6.523950100E0,1.247829121E1
2.268132779E0,1.088100052E1,4.620000124E-1,5.908950329E0,1.239053309E1
2.270632089E0,1.102905083E1,2.350500077E-1,5.683950424E0,1.240977450E1
2.273131243E0,1.139295101E1,1.050000042E-1,5.181000233E0,1.251611446E1
2.275630549E0,1.186500072E1,-9.000000544E-3,4.756950378E0,1.278307084E1
2.278129928E0,1.220700073E1,-5.595000088E-2,4.390950203E0,1.297283473E1
2.280629084E0,1.232700062E1,-1.039500013E-1,4.044000149E0,1.297380773E1
2.283128467E0,1.257600021E1,-1.189500093E-1,3.685050249E0,1.310532433E1
2.285627546E0,1.284705067E1,-2.220000178E-1,3.115050077E0,1.322117740E1
2.288126928E0,1.281300068E1,-3.750000298E-1,2.692950010E0,1.309830490E1
2.290626236E0,1.263105106E1,-5.740500093E-1,2.217000008E0,1.283698070E1
2.293125621E0,1.216695023E1,-7.990500331E-1,1.911000133E0,1.234200471E1
2.295624777E0,1.168800068E1,-1.143000007E0,1.345950007E0,1.182063409E1
2.298124082E0,1.109595013E1,-1.474050045E0,8.040000200E-1,1.122227022E1
2.300623243E0,1.045995045E1,-1.798950076E0,2.850000262E-1,1.061734476E1
2.303122626E0,1.014105034E1,-2.175000191E0,-4.750500321E-1,1.038254306E1
2.305621935E0,9.877950668E0,-2.500950098E0,-1.428000093E0,1.028921013E1
2.308121089E0,9.648000717E0,-2.920050144E0,-2.533950090E0,1.039382094E1
2.310620472E0,9.388950348E0,-3.360000134E0,-3.250050068E0,1.048831802E1
2.313119781E0,9.222000122E0,-3.712050200E0,-3.813000202E0,1.064723314E1
2.315618934E0,9.054000854E0,-4.114950180E0,-4.426050186E0,1.088566336E1
2.318118317E0,8.728950500E0,-4.500000000E0,-4.833000183E0,1.094543136E1
2.320617627E0,8.523000717E0,-4.942950249E0,-5.227950096E0,1.115373303E1
2.323116757E0,8.211000443E0,-5.308950424E0,-5.214000225E0,1.108112274E1
2.325616062E0,8.083950043E0,-5.451000214E0,-4.816050053E0,1.087464895E1
2.328115447E0,8.293050766E0,-5.944050312E0,-4.720050335E0,1.124212170E1
2.330614603E0,8.460000038E0,-6.328950405E0,-4.680000305E0,1.155550158E1
2.333113937E0,8.356950760E0,-6.460950375E0,-4.680000305E0,1.155356692E1
2.335613322E0,7.849950314E0,-6.346050262E0,-4.264950275E0,1.095827882E1
2.338112478E0,7.219950199E0,-6.099000454E0,-3.814950228E0,1.019212111E1
2.340611784E0,7.266000271E0,-5.950950146E0,-2.992050171E0,9.857024490E0
2.343110940E0,6.691050529E0,-5.914950371E0,-2.403000116E0,9.248308204E0
2.345610313E0,5.467950344E0,-6.295950413E0,-1.459050059E0,8.465595055E0
2.348109623E0,4.756950378E0,-5.412000179E0,-2.700000107E-1,7.210493939E0
2.350608777E0,5.629950047E0,-4.612950325E0,-5.740500093E-1,7.301039764E0
2.353108159E0,5.944050312E0,-4.252950191E0,-1.159500033E-1,7.309771805E0
2.355607473E0,4.002000332E0,-3.058950186E0,1.996950150E0,5.418578485E0
2.358106627E0,4.138950348E0,-1.749000072E0,2.100000143E0,4.959829819E0
2.360605933E0,3.895050287E0,-7.510500550E-1,1.255050063E0,4.160606156E0
2.363105317E0,3.030000210E0,7.570500374E-1,1.530000091E0,3.477776058E0
2.365604473E0,3.871050119E0,2.554950237E0,1.159050107E0,4.780815505E0
2.368103784E0,3.399000168E0,3.271050215E0,3.520500064E-1,4.730423962E0
2.370603168E0,5.025000095E0,3.165000200E0,-4.950000346E-1,5.959268182E0
2.373102324E0,8.202000618E0,1.281000018E0,-4.279500246E-1,8.312455498E0
2.375601630E0,1.008795071E1,-1.546050072E0,2.092950106E0,1.041813133E1
2.378101029E0,1.130505085E1,-4.639050007E0,8.587950706E0,1.493579114E1
2.380600184E0,1.135005093E1,-5.448000431E0,7.326000214E0,1.456621584E1
2.383099490E0,1.145100021E1,-4.842000008E0,3.904950142E0,1.303146214E1
2.385598875E0,1.156605053E1,-4.186050415E0,2.206950188E0,1.249668644E1
2.388098031E0,1.150095081E1,-3.423000097E0,9.310500622E-1,1.203559942E1
2.390597336E0,1.146000099E1,-2.737950087E0,7.039500475E-1,1.180353926E1
2.393096721E0,1.145100021E1,-2.269050121E0,9.360000491E-1,1.171110970E1
2.395595877E0,1.174800014E1,-1.977000117E0,1.135050058E0,1.196713731E1
2.398095182E0,1.244400024E1,-1.837950110E0,1.213950038E0,1.263743951E1
2.400594338E0,1.309095097E1,-1.711050034E0,1.300050020E0,1.326615315E1
2.403093644E0,1.334505081E1,-1.468950033E0,1.354950070E0,1.349385360E1
2.405593029E0,1.340700054E1,-1.384950042E0,1.518000126E0,1.356355685E1
2.408092184E0,1.353600025E1,-1.342050076E0,1.771950126E0,1.371729596E1
2.410591490E0,1.366095066E1,-1.492950082E0,2.077950001E0,1.389850169E1
2.413090861E0,1.385205078E1,-1.842000127E0,2.322000027E0,1.416559068E1
2.415590017E0,1.387800026E1,-2.173050165E0,2.197950125E0,1.421801755E1
2.418089322E0,1.419405079E1,-2.700000048E0,1.720950127E0,1.455069577E1
2.420588707E0,1.467795086E1,-3.183000088E0,1.563000083E0,1.510022186E1
2.423087863E0,1.480305099E1,-3.460950136E0,1.587000132E0,1.528486389E1
2.425587168E0,1.504695034E1,-3.801000118E0,1.755000114E0,1.561852560E1
2.428086324E0,1.572900105E1,-4.099950314E0,2.368050098E0,1.642615986E1
2.430585707E0,1.623900032E1,-4.287000179E0,3.019050121E0,1.706452946E1
2.433085017E0,1.657005119E1,-4.380000114E0,3.526950121E0,1.749829634E1
2.435584171E0,1.676100159E1,-4.483050346E0,3.820950270E0,1.776593863E1
2.438083553E0,1.662900162E1,-4.375950336E0,4.342950344E0,1.773510231E1
2.440582863E0,1.617405128E1,-4.083000183E0,4.432050228E0,1.726018235E1
2.443082017E0,1.573905087E1,-3.765000105E0,4.222949982E0,1.672501882E1
2.445581399E0,1.515195084E1,-3.637950182E0,3.919050217E0,1.606783278E1
2.448080709E0,1.421100044E1,-3.601950169E0,3.622050285E0,1.510118627E1
2.450579863E0,1.331805038E1,-3.352950096E0,4.057950020E0,1.432060399E1
2.453079245E0,1.250205040E1,-3.082950115E0,4.522950172E0,1.364781755E1
2.455578550E0,1.170705032E1,-2.773950100E0,4.672950268E0,1.290683116E1
2.458077704E0,1.118295097E1,-2.544000149E0,4.671000004E0,1.238339898E1
2.460577010E0,1.096905041E1,-2.340000153E0,4.767000198E0,1.218687648E1
2.463076166E0,1.078500080E1,-2.199000120E0,5.023050308E0,1.209887921E1
2.465575548E0,1.060995007E1,-2.071950197E0,5.221950054E0,1.200553124E1
2.468074863E0,1.043100071E1,-2.044049978E0,5.346000195E0,1.189805170E1
2.470574017E0,1.017495060E1,-2.044049978E0,5.377050400E0,1.168847428E1
2.473073399E0,1.014105034E1,-2.166000128E0,5.305950165E0,1.164841473E1
2.475572709E0,1.021305084E1,-2.347950220E0,5.191050053E0,1.169471156E1
2.478071863E0,1.009800053E1,-2.563050032E0,5.077950478E0,1.158984129E1
2.480571246E0,9.784050941E0,-2.611050129E0,5.013000011E0,1.129935417E1
2.483070555E0,9.889950752E0,-2.649000168E0,4.992000103E0,1.139071520E1
2.485569709E0,1.015095043E1,-2.731050014E0,4.948950291E0,1.161862891E1
2.488069092E0,1.030395031E1,-2.785950184E0,4.960950375E0,1.177046894E1
2.490568406E0,1.063905048E1,-2.755050182E0,4.996950150E0,1.207266365E1
2.493067560E0,1.083105087E1,-2.653950214E0,4.969950199E0,1.220882958E1
2.495566943E0,1.133595085E1,-2.539050102E0,4.719000340E0,1.253872088E1
2.498066022E0,1.205895042E1,-2.448000193E0,4.639950275E0,1.315067028E1
2.500565418E0,1.232895088E1,-2.367000103E0,4.549050331E0,1.335288651E1
2.503064726E0,1.222605038E1,-2.218050003E0,4.465050220E0,1.320351192E1
2.505564111E0,1.201800060E1,-2.103000164E0,4.360050201E0,1.295627207E1
2.508063267E0,1.216695023E1,-2.098950148E0,4.141950130E0,1.302290369E1
2.510562572E0,1.188405037E1,-2.098950148E0,3.606000185E0,1.259521664E1
2.513061713E0,1.173300076E1,-1.974000096E0,3.430950165E0,1.238270577E1
2.515561096E0,1.184805012E1,-1.984050035E0,3.816000223E0,1.260454695E1
2.518060405E0,1.225995064E1,-1.869000077E0,4.377000332E0,1.315133768E1
2.520559788E0,1.252605057E1,-1.704000115E0,4.744950294E0,1.350259651E1
2.523058944E0,1.251105022E1,-1.576950073E0,4.918050289E0,1.353515304E1
2.525558246E0,1.229295063E1,-1.765950084E0,4.687950134E0,1.327449025E1
2.528057401E0,1.219995022E1,-1.660950065E0,4.992000103E0,1.328599283E1
2.530556784E0,1.206795025E1,-1.522050023E0,5.394000053E0,1.330591207E1
2.533056094E0,1.198200035E1,-1.500000119E0,5.566050053E0,1.329658776E1
2.535555224E0,1.178595066E1,-1.584000111E0,5.494950294E0,1.310008275E1
2.538054606E0,1.171905041E1,-1.825950146E0,5.119050026E0,1.291800718E1
2.540553916E0,1.163505077E1,-2.179949999E0,4.812000275E0,1.277818200E1
2.543053070E0,1.125405025E1,-2.407950163E0,4.882050037E0,1.250145126E1
2.545552376E0,1.151100063E1,-2.620950222E0,4.875000000E0,1.277255419E1
2.548051750E0,1.133100033E1,-2.913000107E0,4.669050217E0,1.259671259E1
2.550550906E0,1.146000099E1,-2.874000072E0,4.750050068E0,1.273398896E1
2.553050212E0,1.155405045E1,-2.893950224E0,4.867050171E0,1.286698127E1
2.555549368E0,1.130895042E1,-3.055950165E0,4.879050255E0,1.269000877E1
2.558048764E0,1.091700077E1,-3.250050068E0,4.774050236E0,1.235051768E1
2.560548074E0,1.048095036E1,-3.580950260E0,4.519950390E0,1.196258654E1
2.563047228E0,1.012005043E1,-3.808050156E0,4.156050205E0,1.158401571E1
2.565546533E0,1.006005001E1,-3.712050200E0,4.386000156E0,1.158537528E1
2.568045918E0,9.909000397E0,-3.676050186E0,4.494000435E0,1.148467125E1
2.570545079E0,9.495000839E0,-3.592950106E0,4.498950005E0,1.110427317E1
2.573044462E0,8.902950287E0,-3.745950222E0,4.314000130E0,1.057852844E1
2.575544704E0,8.641950607E0,-4.251000404E0,3.844950199E0,1.037005095E1
2.578042925E0,8.467950821E0,-4.696050167E0,3.519000053E0,1.030254530E1
2.580542231E0,8.542050362E0,-4.950000286E0,3.784950256E0,1.057331432E1
2.583041601E0,8.671050072E0,-5.233050346E0,3.991050243E0,1.088578924E1
2.585540757E0,8.520000458E0,-5.617950439E0,4.108050346E0,1.100126595E1
2.588040063E0,8.293050766E0,-5.836050510E0,3.960000277E0,1.088649525E1
2.590539448E0,8.214000702E0,-5.520000458E0,4.063050270E0,1.069806478E1
2.593038603E0,8.080050468E0,-5.106000423E0,4.408050060E0,1.052565253E1
2.595537913E0,7.387950420E0,-4.512000084E0,4.573050022E0,9.790441393E0
2.598037298E0,6.829950333E0,-3.823050261E0,4.165950298E0,8.866739915E0
2.600536454E0,6.291000366E0,-2.992050171E0,3.892950296E0,7.980232568E0
2.603035759E0,5.620950222E0,-1.720050097E0,4.029000282E0,7.126464552E0
2.605535144E0,5.416950226E0,-2.770500183E-1,2.914050102E0,6.157255432E0
2.608034228E0,4.891050339E0,-5.110500455E-1,1.168050051E0,5.054491714E0
2.610533610E0,3.691050291E0,-9.850500226E-1,7.330500484E-1,3.889927785E0
2.613032766E0,3.391950130E0,-1.629000068E0,3.469500244E-1,3.778801560E0
2.615532149E0,3.307950258E0,-2.593950033E0,-2.599500120E-1,4.211731912E0
2.618031459E0,3.022950172E0,-3.640950203E0,-1.120050073E0,4.863050307E0
2.620530603E0,3.214950085E0,-4.657950401E0,-1.773000121E0,5.930930401E0
2.623029909E0,3.234000206E0,-5.773950100E0,-2.185050011E0,6.969340043E0
2.625529294E0,3.480000257E0,-6.544950485E0,-2.353049994E0,7.777121763E0
2.628028450E0,3.415950060E0,-7.450050354E0,-2.166000128E0,8.477235495E0
2.630527755E0,3.568950176E0,-8.118000031E0,-2.020050049E0,9.095049865E0
2.633027140E0,3.780000210E0,-8.608950615E0,-1.849950075E0,9.582523027E0
2.635526296E0,4.122000217E0,-9.034950256E0,-1.627050042E0,1.006322532E1
2.638025602E0,4.407000065E0,-9.307950020E0,-1.363950014E0,1.038845238E1
2.640524986E0,4.703999996E0,-9.504000664E0,-1.099950075E0,1.066131018E1
2.643024142E0,4.821000099E0,-9.706950188E0,-8.320500255E-1,1.087010723E1
2.645523448E0,5.125050068E0,-9.786000252E0,-4.870500267E-1,1.105753846E1
2.648022604E0,5.583000183E0,-9.793950081E0,-1.759500057E-1,1.127485289E1
2.650521986E0,5.949000359E0,-9.765000343E0,1.080000028E-1,1.143492462E1
2.653021296E0,6.289050102E0,-9.778950691E0,2.149500102E-1,1.162868141E1
2.655520450E0,6.724950314E0,-9.748050690E0,1.200000010E-2,1.184270210E1
2.658019832E0,7.159950256E0,-9.616050720E0,-2.220000178E-1,1.199093838E1
2.660519142E0,7.438050270E0,-9.624000549E0,-2.890500128E-1,1.216673861E1
2.663018296E0,7.729950428E0,-9.493950844E0,-5.230500102E-1,1.225401230E1
2.665517602E0,7.924050331E0,-9.327000618E0,-8.130000234E-1,1.226558124E1
2.668016986E0,8.215950012E0,-9.157050133E0,-8.899500370E-1,1.233472386E1
2.670516142E0,8.166000366E0,-9.022950172E0,-8.010000587E-1,1.219585146E1
2.673015525E0,8.049000740E0,-8.800050735E0,-3.649500310E-1,1.193149171E1
2.675514604E0,7.978950500E0,-8.623050690E0,2.200500071E-1,1.175027984E1
2.678013986E0,7.876050472E0,-8.464950562E0,6.390000582E-1,1.157997755E1
2.680513284E0,7.765950203E0,-8.278050423E0,1.204050064E0,1.141428219E1
2.683012669E0,7.564950466E0,-8.223000526E0,1.762050033E0,1.131154426E1
2.685511824E0,7.239000320E0,-8.138999939E0,2.224050045E0,1.111723186E1
2.688011130E0,7.254000187E0,-8.010000229E0,2.586000204E0,1.111161642E1
2.690510286E0,7.165050507E0,-7.981050491E0,3.025950193E0,1.114412358E1
2.693009669E0,7.299000263E0,-7.888050556E0,3.256050110E0,1.122936368E1
2.695508978E0,7.426050186E0,-7.705950260E0,3.330000162E0,1.120788971E1
2.698008132E0,7.498050213E0,-7.552950382E0,3.115050077E0,1.108924495E1
2.700507515E0,7.633950233E0,-7.408950329E0,2.851050138E0,1.101354748E1
2.703006834E0,7.801950455E0,-7.464000225E0,2.538000107E0,1.109158126E1
2.705505988E0,7.680000305E0,-7.524000168E0,2.111999989E0,1.095689405E1
2.708005371E0,7.378050327E0,-7.651050568E0,1.638000131E0,1.075440588E1
2.710504681E0,6.901950359E0,-7.773000240E0,1.264050007E0,1.047159367E1
2.713003834E0,6.294000149E0,-7.825950146E0,6.580500603E-1,1.006444054E1
2.715503231E0,5.395950317E0,-7.620000362E0,1.720500141E-1,9.338644792E0
2.718002541E0,4.500000000E0,-7.320000172E0,-6.000000052E-3,8.592580434E0
2.720501695E0,4.060050011E0,-6.991950512E0,-6.599999964E-2,8.085526207E0
2.723001000E0,4.222949982E0,-6.657000542E0,1.840500087E-1,7.885609499E0
2.725500385E0,4.381050110E0,-6.556950092E0,4.020000100E-1,7.896125543E0
2.727999555E0,4.873950005E0,-6.430050373E0,7.110000253E-1,8.099781323E0
2.730498861E0,4.989000320E0,-6.367950439E0,9.940500259E-1,8.150401981E0
2.732998016E0,4.870950222E0,-6.256950378E0,1.029000044E0,7.995900524E0
2.735497399E0,5.050950050E0,-6.097050190E0,1.041000009E0,7.985599442E0
2.737996714E0,5.293050289E0,-5.989050388E0,9.769500494E-1,8.052300126E0
2.740495868E0,5.386050224E0,-5.857950211E0,8.640000224E-1,8.004474607E0
2.742995250E0,5.560950279E0,-5.635050297E0,7.450500131E-1,7.951921741E0
2.745494560E0,5.809950352E0,-5.436000347E0,6.970500350E-1,7.986958220E0
2.747993714E0,6.175950527E0,-5.214000225E0,6.580500603E-1,8.109327540E0
2.750493000E0,6.664950371E0,-4.957050323E0,5.719500184E-1,8.325925665E0
2.752992385E0,7.057050228E0,-4.759050369E0,4.260000288E-1,8.522440634E0
2.755491541E0,7.215000153E0,-4.596000195E0,3.420000076E-1,8.561332197E0
2.757990847E0,7.246950150E0,-4.543050289E0,2.029500157E-1,8.555628621E0
2.760490216E0,7.266000271E0,-4.543050289E0,2.419500053E-1,8.572782843E0
2.762989372E0,6.954000473E0,-4.558050156E0,3.520500064E-1,8.322132119E0
2.765488678E0,6.409050465E0,-4.612950325E0,3.499500155E-1,7.904283875E0
2.767988062E0,5.998950481E0,-4.773000240E0,5.080500245E-1,7.682906546E0
2.770487218E0,5.383950233E0,-4.926000118E0,7.879500389E-1,7.339840771E0
2.772986544E0,4.905000210E0,-5.020050049E0,1.080000043E0,7.101149882E0
2.775485929E0,4.534049988E0,-5.074950218E0,1.123050094E0,6.897388674E0
2.777985084E0,4.215000153E0,-5.056050301E0,9.100500345E-1,6.645153271E0
2.780484390E0,4.552950382E0,-4.825950146E0,5.310000181E-1,6.655908128E0
2.782983775E0,4.953000069E0,-4.621950150E0,4.999500215E-1,6.792980413E0
2.785482931E0,4.921950340E0,-4.297049999E0,1.200000048E-1,6.534878258E0
2.787982236E0,5.499000072E0,-4.153050423E0,1.200000010E-2,6.891079278E0
2.790481392E0,6.085050106E0,-4.189050198E0,6.000000238E-2,7.387799155E0
2.792980698E0,5.211000443E0,-4.324950218E0,1.939500123E-1,6.774757310E0
2.795480082E0,6.094950199E0,-4.399950027E0,1.339500099E-1,7.518372216E0
2.797979238E0,6.478050232E0,-4.813950062E0,8.590500355E-1,8.116478114E0
2.800478544E0,5.587050438E0,-5.367000103E0,1.458000064E0,7.883247230E0
2.802977929E0,5.010000229E0,-5.581950188E0,1.875000119E0,7.731357943E0
2.805477083E0,5.419950485E0,-5.448000431E0,2.746050119E0,8.160720754E0
2.807976389E0,5.070000172E0,-5.251950264E0,3.667950153E0,8.169561900E0
2.810475774E0,4.342050076E0,-4.918950081E0,4.072950363E0,7.722589813E0
2.812974930E0,4.267950058E0,-4.396950245E0,4.465050220E0,7.581902309E0
2.815474235E0,4.222949982E0,-4.231950283E0,5.631000042E0,8.212847936E0
2.817973605E0,4.302000046E0,-4.150950432E0,6.112050056E0,8.549546758E0
2.820472761E0,4.678050041E0,-3.925050259E0,5.653050423E0,8.321487295E0
2.822972067E0,4.906949997E0,-3.724050283E0,5.001000404E0,7.934526692E0
2.825471222E0,5.101050377E0,-3.496950150E0,4.470000267E0,7.630876600E0
2.827970605E0,5.334000111E0,-3.307950258E0,3.907050133E0,7.393181509E0
2.830469910E0,5.383950233E0,-3.256950140E0,3.333000183E0,7.120641442E0
2.832969064E0,5.602050304E0,-3.150000095E0,2.698050022E0,6.970289961E0
2.835468369E0,6.181050301E0,-2.998950243E0,2.224050045E0,7.221183004E0
2.837967754E0,6.720000267E0,-2.934000254E0,1.918050051E0,7.579292650E0
2.840466896E0,7.138950348E0,-2.872050047E0,1.792950034E0,7.901136207E0
2.842966201E0,7.491000175E0,-2.881950140E0,1.915050149E0,8.251553630E0
2.845465357E0,8.163000107E0,-2.886000156E0,2.274000168E0,8.951795597E0
2.847964740E0,8.748000145E0,-2.998950243E0,2.758050203E0,9.650287562E0
2.850464050E0,9.265050888E0,-3.067950249E0,3.244050264E0,1.028481156E1
2.852963203E0,9.741000175E0,-3.150000095E0,3.567000151E0,1.084126723E1
2.855462586E0,9.988050461E0,-3.268950224E0,3.792000294E0,1.117257597E1
2.857961971E0,1.055295086E1,-3.372000217E0,3.831000090E0,1.172227448E1
2.860461050E0,1.116795063E1,-3.444000244E0,3.772950172E0,1.228085551E1
2.862960432E0,1.163505077E1,-3.688050270E0,3.898050070E0,1.281291987E1
2.865459740E0,1.221195030E1,-3.921000242E0,4.077000141E0,1.345837669E1
2.867958896E0,1.253295040E1,-4.170000076E0,4.252050400E0,1.387601092E1
2.870458278E0,1.253505039E1,-4.320000172E0,4.341000080E0,1.395113513E1
2.872957588E0,1.198905087E1,-4.327950001E0,4.361999989E0,1.347202790E1
2.875456742E0,1.114395046E1,-4.085999966E0,3.982050180E0,1.251957472E1
2.877956139E0,1.023900032E1,-3.805950165E0,3.414000273E0,1.144455251E1
2.880455448E0,9.250050545E0,-3.484950066E0,3.241950035E0,1.040281462E1
2.882954602E0,8.460000038E0,-3.043950081E0,3.409050226E0,9.615552828E0
2.885453985E0,7.984050274E0,-2.737950087E0,4.129950047E0,9.396697124E0
2.887953050E0,7.527000427E0,-2.620950222E0,5.083050251E0,9.453174882E0
2.890452432E0,6.853950500E0,-2.617950201E0,5.740950108E0,9.316051141E0
2.892951740E0,5.869950294E0,-2.599050045E0,5.872950077E0,8.700742509E0
2.895450896E0,4.948050022E0,-2.566050053E0,5.653050423E0,7.938815464E0
2.897950278E0,4.074000359E0,-2.458050013E0,5.478000164E0,7.255892404E0
2.900449564E0,3.310050249E0,-2.194050074E0,5.269950390E0,6.598686649E0
2.902948718E0,2.785950184E0,-1.957050085E0,5.077950478E0,6.113685019E0
2.905448101E0,2.551050186E0,-1.609950066E0,4.927050114E0,5.777163585E0
2.907947410E0,2.590050220E0,-1.318050027E0,4.912950039E0,5.708125270E0
2.910446807E0,2.949000120E0,-1.213050008E0,5.185950279E0,6.087870919E0
2.912945886E0,3.373050213E0,-1.270050049E0,5.755950451E0,6.791278264E0
2.915445269E0,3.466050148E0,-1.492950082E0,6.273000240E0,7.320719609E0
2.917944424E0,3.504000187E0,-1.699050069E0,6.664950371E0,7.719219643E0
2.920443730E0,3.574050188E0,-1.929000139E0,6.970050335E0,8.066999315E0
2.922943130E0,3.532950163E0,-2.110949993E0,7.068000317E0,8.178904279E0
2.925442286E0,3.492000103E0,-2.242050171E0,7.003050327E0,8.140243705E0
2.927941591E0,3.334050179E0,-2.305050135E0,6.955050468E0,8.049961101E0
2.930440747E0,3.502050161E0,-2.269050121E0,6.639000416E0,7.841509441E0
2.932940130E0,3.724950075E0,-2.082000017E0,6.294000149E0,7.604236649E0
2.935439458E0,4.135950089E0,-1.890000105E0,6.445050240E0,7.887766231E0
2.937938841E0,4.716000080E0,-1.723050117E0,6.816000462E0,8.465661271E0
2.940437920E0,5.346000195E0,-1.522050023E0,6.421050072E0,8.492716784E0
2.942937303E0,5.968050480E0,-1.279950023E0,5.808000088E0,8.425482990E0
2.945436458E0,6.535050392E0,-1.102950096E0,5.382000446E0,8.537523725E0
2.947935773E0,7.267950535E0,-9.730500579E-1,4.848000050E0,8.790508283E0
2.950435158E0,8.029050827E0,-8.779500127E-1,4.240050316E0,9.122197109E0
2.952934542E0,9.205050468E0,-9.040500522E-1,3.826050282E0,1.000944161E1
2.955433621E0,1.039695072E1,-7.960500121E-1,3.663000107E0,1.105205183E1
2.957933014E0,1.159905052E1,-6.570000052E-1,3.900000095E0,1.225477959E1
2.960432170E0,1.243200016E1,-7.099500299E-1,4.480050087E0,1.323365051E1
2.962931552E0,1.260495090E1,-9.490500689E-1,4.819950104E0,1.352839245E1
2.965430862E0,1.236495018E1,-1.321050048E0,4.930050373E0,1.337694146E1
2.967930016E0,1.190805054E1,-1.689000130E0,5.181000233E0,1.309569213E1
2.970429322E0,1.138395023E1,-2.046000004E0,5.482950211E0,1.280012429E1
2.972928706E0,1.083795071E1,-2.350050211E0,5.386950493E0,1.232895564E1
2.975427862E0,1.041600037E1,-2.568000078E0,5.610000134E0,1.210618807E1
2.977927168E0,9.804000854E0,-2.629950047E0,6.154950142E0,1.187090903E1
2.980426562E0,9.091950417E0,-2.476950169E0,6.682050228E0,1.155199722E1
2.982925718E0,8.560950279E0,-2.259000063E0,7.048950195E0,1.131727219E1
2.985425024E0,8.254050255E0,-2.122950077E0,7.326000214E0,1.123861832E1
2.987924180E0,8.065050125E0,-2.071950197E0,7.711950302E0,1.134954574E1
2.990423566E0,8.197050095E0,-1.981050134E0,7.930050373E0,1.157591849E1
2.992922876E0,7.893000603E0,-2.038950205E0,7.951050282E0,1.138753604E1
2.995422030E0,7.789950371E0,-2.032050133E0,7.975050449E0,1.133198942E1
2.997921336E0,7.708950520E0,-2.050950050E0,8.013000488E0,1.130674538E1
3.000420720E0,7.516950130E0,-2.094000101E0,8.250000000E0,1.135569794E1
3.002919881E0,7.528950214E0,-2.068050146E0,8.454000473E0,1.150791235E1
3.005419264E0,7.693950176E0,-2.035950184E0,8.513999939E0,1.165461957E1
3.007918573E0,7.615050316E0,-2.161050081E0,8.434950829E0,1.156752023E1
3.010417727E0,7.390050411E0,-2.410050154E0,8.329050064E0,1.139272846E1
3.012917048E0,7.327950478E0,-2.487000227E0,7.960950375E0,1.110228621E1
3.015416433E0,7.279950142E0,-2.520000219E0,7.626000404E0,1.083992423E1
3.017915589E0,7.294050217E0,-2.515050173E0,7.672950268E0,1.088130561E1
3.020414894E0,7.291950226E0,-2.548950195E0,7.840950489E0,1.100682469E1
3.022914050E0,7.512000561E0,-2.434050083E0,7.912950516E0,1.117897751E1
3.025413437E0,7.788000584E0,-2.338050127E0,7.609050274E0,1.113629550E1
3.027912746E0,7.809000492E0,-2.247000217E0,7.281000137E0,1.091065817E1
3.030411900E0,7.780050278E0,-2.130000114E0,7.068000317E0,1.072486416E1
3.032911283E0,7.792050362E0,-2.047950029E0,7.012950420E0,1.068136797E1
3.035410603E0,7.729950428E0,-1.978950143E0,7.132050514E0,1.070208026E1
3.037909756E0,7.555050373E0,-1.993050098E0,7.309050560E0,1.069921749E1
3.040409139E0,7.500000477E0,-1.974000096E0,7.338000298E0,1.067674725E1
3.042908449E0,7.387950420E0,-2.026950121E0,7.369050503E0,1.062982801E1
3.045407603E0,7.266000271E0,-2.068050146E0,7.396050453E0,1.057228233E1
3.047906990E0,7.431000233E0,-2.083950043E0,7.486950397E0,1.075253637E1
3.050406300E0,7.720950603E0,-2.095950127E0,7.575000286E0,1.101756391E1
3.052905454E0,7.950000286E0,-2.131950140E0,7.744950294E0,1.130185697E1
3.055404759E0,8.025000572E0,-2.182049990E0,7.918050289E0,1.148292196E1
3.057904139E0,7.986000538E0,-2.347950220E0,8.277000427E0,1.173873123E1
3.060403295E0,8.242050171E0,-2.416950226E0,8.593050003E0,1.214963159E1
3.062902601E0,8.554050446E0,-2.616000175E0,8.893950462E0,1.261418213E1
3.065401756E0,8.797950745E0,-2.652000189E0,9.115050316E0,1.294299751E1
3.067901139E0,8.922000885E0,-2.683050156E0,8.695950508E0,1.274442675E1
3.070400439E0,8.896050453E0,-2.649000168E0,8.064000130E0,1.229573152E1
3.072899593E0,9.010950089E0,-2.557950020E0,7.423950195E0,1.195221177E1
3.075398898E0,9.006000519E0,-2.476950169E0,6.876000404E0,1.159839252E1
3.077898283E0,9.004050255E0,-2.314050198E0,6.874050140E0,1.156202035E1
3.080397454E0,8.824049950E0,-2.178000212E0,6.916950226E0,1.142154731E1
3.082896760E0,8.443950653E0,-2.142000198E0,6.768000126E0,1.103151364E1
3.085396144E0,7.297050476E0,-2.103000164E0,7.045950413E0,1.035929402E1
3.087895300E0,7.057050228E0,-1.792050123E0,6.766050339E0,9.939458675E0
3.090394596E0,6.538050175E0,-1.774950027E0,6.742050171E0,9.557812940E0
3.092893980E0,6.061050415E0,-1.474050045E0,7.069950104E0,9.428327006E0
3.095393136E0,5.367000103E0,-1.681950092E0,7.822050571E0,9.634216178E0
3.097892442E0,5.383950233E0,-1.857000113E0,8.511000633E0,1.024072758E1
3.100391826E0,4.900050163E0,-2.050950050E0,8.443950653E0,9.975830308E0
3.102890982E0,4.651050091E0,-1.986000061E0,8.100000381E0,9.549160663E0
3.105390288E0,4.372950077E0,-1.906950116E0,7.723950386E0,9.078466869E0
3.107889673E0,3.787050247E0,-2.211000204E0,7.338000298E0,8.548480558E0
3.110388829E0,3.454050064E0,-2.530050039E0,7.060050488E0,8.256871558E0
3.112888134E0,2.902950048E0,-2.785950184E0,6.946050167E0,8.027219340E0
3.115387500E0,2.731050014E0,-2.238000154E0,6.163050175E0,7.102849170E0
3.117886579E0,2.664000034E0,-2.080049992E0,5.701050282E0,6.627629928E0
3.120385961E0,2.692950010E0,-1.966950059E0,5.788950443E0,6.680779859E0
3.122885117E0,2.488950014E0,-1.747050047E0,5.776950359E0,6.528415696E0
3.125384423E0,2.014950037E0,-1.455000043E0,5.827050209E0,6.334947744E0
3.127883812E0,1.512000084E0,-1.106999993E0,5.835000515E0,6.128525455E0
3.130382967E0,1.306050062E0,-7.360500097E-1,5.892000198E0,6.079737060E0
3.132882273E0,1.471950054E0,-4.390500188E-1,6.205950260E0,6.393216758E0
3.135381658E0,1.420950055E0,-2.650500238E-1,6.403950214E0,6.565053612E0
3.137880800E0,5.500500202E-1,-1.669500023E-1,6.463950157E0,6.489459065E0
3.140380105E0,9.495000541E-2,-1.789500117E-1,6.618000507E0,6.621100311E0
3.142879490E0,-3.060000241E-1,-1.999500096E-1,6.619950294E0,6.630034534E0
3.145378646E0,-2.299500108E-1,-3.390000165E-1,6.361050129E0,6.374225974E0
3.147877951E0,4.830000103E-1,-6.000000238E-1,5.832000256E0,5.882645325E0
3.150377116E0,2.745000124E0,-6.960000396E-1,4.591950417E0,5.394946743E0
3.152876499E0,8.974950790E0,2.490000129E-1,2.250000089E-1,8.981223063E0
3.155375809E0,1.457805061E1,6.900000572E-1,-4.122000217E0,1.516530730E1
3.157874962E0,1.212795067E1,-1.605000019E0,-4.890000343E0,1.317479851E1
3.160374321E0,8.974950790E0,-3.226050138E0,-6.061050415E0,1.130015369E1
3.162873631E0,8.307000160E0,-3.940050125E0,-6.613950253E0,1.132583704E1
3.165372785E0,7.171950340E0,-4.560000420E0,-6.226050377E0,1.053537749E1
3.167872167E0,5.547000408E0,-5.071950436E0,-4.792050362E0,8.913901582E0
3.170371477E0,3.607050180E0,-5.560950279E0,-2.848050117E0,7.214316910E0
3.172870622E0,1.690050125E0,-6.229050159E0,-9.900000691E-1,6.529734715E0
3.175370004E0,8.880000710E-1,-6.601950169E0,4.789500237E-1,6.678598901E0
3.177869083E0,5.040000081E-1,-6.942000389E0,1.969950080E0,7.233677400E0
3.180368466E0,1.012050033E0,-7.107000351E0,2.422950029E0,7.576568227E0
3.182867774E0,1.198950052E0,-7.342050552E0,2.692950010E0,7.911710769E0
3.185366940E0,1.572000027E0,-7.545000553E0,2.796000242E0,8.198526379E0
3.187866322E0,2.535000086E0,-7.596000195E0,3.249000072E0,8.641842735E0
3.190365632E0,3.805950165E0,-7.605000496E0,3.357000113E0,9.142797108E0
3.192864786E0,4.543050289E0,-7.669950485E0,2.959050179E0,9.392732528E0
3.195364154E0,5.118000031E0,-7.692000389E0,2.025000095E0,9.458404711E0
3.197863464E0,5.247000217E0,-8.211000443E0,2.101950169E0,9.968436892E0
3.200362618E0,5.803050041E0,-8.476950645E0,2.113950014E0,1.048822514E1
3.202862000E0,5.944050312E0,-8.802000046E0,2.437050104E0,1.089707080E1
3.205361310E0,6.466050148E0,-9.106950760E0,3.127050161E0,1.159848263E1
3.207860469E0,7.609950542E0,-9.202050209E0,3.570000172E0,1.246330520E1
3.210359775E0,8.769000053E0,-9.250050545E0,3.673050165E0,1.326461815E1
3.212859159E0,9.880050659E0,-9.300000191E0,3.655950069E0,1.405245087E1
3.215358315E0,1.053405094E1,-9.396000862E0,3.337050200E0,1.450472218E1
3.217857625E0,1.057200050E1,-9.432000160E0,3.052950144E0,1.449311306E1
3.220356781E0,1.097895050E1,-9.448950768E0,2.764950037E0,1.474669364E1
3.222856163E0,1.125195026E1,-9.468000412E0,2.389050007E0,1.489822058E1
3.225355473E0,1.159905052E1,-9.484950066E0,1.954050064E0,1.511028002E1
3.227854856E0,1.206600094E1,-9.469950676E0,1.843950033E0,1.544889951E1
3.230354012E0,1.247805023E1,-9.456000328E0,1.945950150E0,1.577670440E1
3.232853317E0,1.276800060E1,-9.540000916E0,1.654050112E0,1.602402380E1
3.235352473E0,1.306905079E1,-9.673950195E0,1.555950046E0,1.633420893E1
3.237851779E0,1.338795090E1,-9.865050316E0,1.987050056E0,1.674827797E1
3.240351163E0,1.342095089E1,-1.000005054E1,2.164050102E0,1.687619763E1
3.242850548E0,1.352700043E1,-1.021500015E1,2.097000122E0,1.707991154E1
3.245349627E0,1.368000031E1,-1.036305046E1,2.398950100E0,1.732888296E1
3.247849010E0,1.360095024E1,-1.050000095E1,2.416050196E0,1.735146005E1
3.250348175E0,1.343295097E1,-1.070595074E1,2.182950020E0,1.731550819E1
3.252847481E0,1.303305054E1,-1.088100052E1,1.996950150E0,1.709515687E1
3.255346866E0,1.264800072E1,-1.117005062E1,1.920000076E0,1.698317854E1
3.257846022E0,1.217100048E1,-1.141905022E1,1.765050054E0,1.678223353E1
3.260345327E0,1.148895073E1,-1.166100025E1,2.088000059E0,1.650256525E1
3.262844712E0,1.088100052E1,-1.183605099E1,2.362950087E0,1.625028641E1
3.265343868E0,1.012905025E1,-1.202700043E1,2.191050053E0,1.587599127E1
3.267843173E0,9.358050346E0,-1.232400036E1,2.431950092E0,1.566424184E1
3.270342558E0,8.331000328E0,-1.248000050E1,2.473050117E0,1.520762821E1
3.272841642E0,7.476000309E0,-1.258800030E1,2.274000168E0,1.481618739E1
3.275341025E0,6.487950325E0,-1.276500034E1,2.064000130E0,1.446716385E1
3.277840181E0,5.785950184E0,-1.290405083E1,2.064000130E0,1.429167043E1
3.280339563E0,5.250000477E0,-1.298295021E1,2.011049986E0,1.414792646E1
3.282838873E0,4.519950390E0,-1.303095055E1,1.342950106E0,1.385781868E1
3.285338027E0,3.895050287E0,-1.320300102E1,1.305000067E0,1.382728021E1
3.287837332E0,2.970000029E0,-1.334700108E1,1.156050086E0,1.372223705E1
3.290336717E0,2.733000040E0,-1.349505043E1,1.080000043E0,1.381130245E1
3.292835873E0,2.386050224E0,-1.372995090E1,1.504050016E0,1.401666701E1
3.295335269E0,2.188050032E0,-1.381800079E1,1.657050133E0,1.408795670E1
3.297834579E0,2.125050068E0,-1.393095112E1,1.360050082E0,1.415757653E1
3.300333733E0,1.986000061E0,-1.392105103E1,9.070500135E-1,1.409122413E1
3.302833039E0,1.939050078E0,-1.383000088E1,4.860000312E-1,1.397372661E1
3.305332195E0,2.106000185E0,-1.368405056E1,4.995000362E-2,1.384525086E1
3.307831558E0,2.367000103E0,-1.342095089E1,-1.690500081E-1,1.362913021E1
3.310330868E0,2.875050068E0,-1.318905067E1,5.700000376E-2,1.349889698E1
3.312830022E0,3.859050274E0,-1.241295052E1,2.680500150E-1,1.300174836E1
3.315329404E0,4.462050438E0,-1.190505028E1,5.770500302E-1,1.272686540E1
3.317828733E0,4.813950062E0,-1.161105061E1,1.389000058E0,1.264594530E1
3.320327887E0,5.001000404E0,-1.128795052E1,1.614000082E0,1.245121794E1
3.322827270E0,4.893000126E0,-1.101900005E1,1.719000101E0,1.217845531E1
3.325326579E0,4.795050144E0,-1.086105061E1,1.743000031E0,1.199970730E1
3.327825733E0,4.780050278E0,-1.077300072E1,1.342950106E0,1.186212207E1
3.330325025E0,4.708950043E0,-1.069395065E1,8.089500666E-1,1.171277897E1
3.332824409E0,4.729950428E0,-1.061700058E1,5.050500035E-1,1.163392487E1
3.335323565E0,4.207950115E0,-1.034205055E1,3.259500265E-1,1.117009835E1
3.337822948E0,3.504000187E0,-9.232950211E0,-1.347000122E0,9.966935147E0
3.340322041E0,4.000050068E0,-8.371050835E0,-1.692000031E0,9.430681668E0
3.342821423E0,4.684950352E0,-7.930950165E0,-1.234050035E0,9.293632756E0
3.345320731E0,4.993950367E0,-7.711050510E0,-8.179500103E-1,9.223279377E0
3.347820116E0,5.068050385E0,-7.596000195E0,-5.899500251E-1,9.150540677E0
3.350319272E0,5.008050442E0,-7.465950489E0,-2.820000052E-1,8.994471076E0
3.352818582E0,4.824000359E0,-7.387050152E0,-1.069500074E-1,8.823317274E0
3.355317738E0,4.642050266E0,-7.311000347E0,1.050000042E-1,8.660853408E0
3.357817121E0,4.621950150E0,-7.129050255E0,-7.800000161E-2,8.496579590E0
3.360316430E0,5.013000011E0,-6.712050438E0,-1.282050014E0,8.474989229E0
3.362815568E0,4.953000069E0,-6.901050091E0,-5.310000181E-1,8.511090591E0
3.365314874E0,4.764000416E0,-7.093050480E0,-6.795000285E-2,8.544687371E0
3.367814259E0,4.495950222E0,-7.312950134E0,6.900000572E-2,8.584728829E0
3.370313415E0,4.246950150E0,-7.516950130E0,-4.005000368E-2,8.633813111E0
3.372812720E0,3.993000269E0,-7.687050343E0,-2.170500159E-1,8.664981525E0
3.375312120E0,3.864000082E0,-7.833000183E0,-2.170500159E-1,8.736904441E0
3.377811276E0,3.880050182E0,-7.858950138E0,-1.429500133E-1,8.765747053E0
3.380310581E0,3.916050196E0,-7.840050220E0,-1.800000109E-2,8.763684191E0
3.382809966E0,3.946950197E0,-7.816050529E0,2.029500157E-1,8.758438813E0
3.385309122E0,4.038000107E0,-7.785000324E0,3.760500252E-1,8.777988866E0
3.387808423E0,4.168050289E0,-7.669950485E0,4.810500145E-1,8.742550702E0
3.390307807E0,4.294050217E0,-7.576950550E0,6.010500193E-1,8.729851547E0
3.392806886E0,4.447950363E0,-7.513950348E0,5.989500284E-1,8.752282754E0
3.395306269E0,4.668000221E0,-7.324950218E0,5.940000415E-1,8.706202261E0
3.397805425E0,4.813950062E0,-7.167000294E0,4.410000145E-1,8.644911186E0
3.400304807E0,4.929000378E0,-7.093050480E0,3.520500064E-1,8.644671714E0
3.402804117E0,5.044050217E0,-7.036050320E0,4.429500103E-1,8.668601467E0
3.405303271E0,5.250000477E0,-6.997050285E0,4.309500158E-1,8.758249575E0
3.407802561E0,5.482050419E0,-6.898950100E0,2.749500275E-1,8.816120847E0
3.410301946E0,5.584950447E0,-6.825000286E0,1.750500053E-1,8.820597650E0
3.412801102E0,5.616000175E0,-6.906000137E0,6.000000238E-2,8.901454705E0
3.415300408E0,5.596950054E0,-6.958950520E0,-1.240500063E-1,8.931306212E0
3.417799783E0,5.653950214E0,-6.922950268E0,-2.530499995E-1,8.941947648E0
3.420298939E0,5.653950214E0,-7.069050312E0,-2.550000250E-1,9.055586693E0
3.422798245E0,5.700000286E0,-7.194000244E0,-3.100500107E-1,9.183668863E0
3.425297629E0,5.925000191E0,-7.201050282E0,-4.780500233E-1,9.337520241E0
3.427796785E0,6.064050198E0,-7.198050499E0,-6.499500275E-1,9.434355877E0
3.430296086E0,6.121050358E0,-7.138050556E0,-8.970000148E-1,9.445826182E0
3.432795471E0,6.106950283E0,-7.090950489E0,-9.330000281E-1,9.404621718E0
3.435294626E0,5.896050453E0,-7.243950367E0,-6.360000372E-1,9.361769273E0
3.437793932E0,5.827050209E0,-7.315950394E0,-4.200000167E-1,9.362373861E0
3.440293088E0,5.854950428E0,-7.246050358E0,-4.540500343E-1,9.326942250E0
3.442792466E0,5.772000313E0,-7.131000519E0,-4.800000191E-1,9.186814248E0
3.445291775E0,5.725950241E0,-7.021050453E0,-6.450000405E-1,9.082823387E0
3.447790929E0,5.647050381E0,-6.832050323E0,-7.200000286E-1,8.892946062E0
3.450290312E0,5.596950054E0,-6.822000504E0,-7.800000310E-1,8.858551847E0
3.452789621E0,5.392950058E0,-6.789000511E0,-8.869500160E-1,8.715567601E0
3.455288780E0,5.281050205E0,-6.849000454E0,-1.285050035E0,8.743549170E0
3.457788086E0,5.380950451E0,-6.693000317E0,-1.924050093E0,8.800730069E0
3.460287242E0,5.179950237E0,-6.628950119E0,-2.355000019E0,8.736182761E0
3.462786624E0,4.882950306E0,-6.877950191E0,-2.197050095E0,8.716446044E0
3.465285924E0,4.678050041E0,-6.964050293E0,-2.436000109E0,8.735916964E0
3.467785078E0,4.177050114E0,-7.027950287E0,-2.130000114E0,8.448475210E0
3.470284461E0,3.816000223E0,-7.159950256E0,-1.680000067E0,8.285477995E0
3.472783770E0,3.478050232E0,-7.255950451E0,-1.479000092E0,8.181264672E0
3.475282924E0,3.081000090E0,-7.324950218E0,-1.237050056E0,8.042247826E0
3.477782302E0,3.187950134E0,-7.480950356E0,-8.320500255E-1,8.174347162E0
3.480281612E0,3.229050159E0,-7.507050514E0,-7.920000553E-1,8.210349350E0
3.482780765E0,3.337050200E0,-7.555050373E0,-8.299500346E-1,8.300813649E0
3.485280148E0,3.423000097E0,-7.621950150E0,-6.600000262E-1,8.381327686E0
3.487779458E0,3.859050274E0,-7.653000355E0,-4.350000322E-1,8.581952486E0
3.490278636E0,4.122000217E0,-7.576950550E0,-6.310500503E-1,8.648658254E0
3.492777941E0,4.381050110E0,-7.464000225E0,-6.220500469E-1,8.677087396E0
3.495277326E0,4.717950344E0,-7.416000366E0,-6.600000262E-1,8.814290494E0
3.497776482E0,4.977000237E0,-7.428000450E0,-5.879999995E-1,8.960550543E0
3.500275782E0,5.245050430E0,-7.392000198E0,-7.530000210E-1,9.095011269E0
3.502775167E0,5.143950462E0,-7.444950581E0,-1.201050043E0,9.128528727E0
3.505274323E0,5.314050198E0,-7.552950382E0,-1.366050124E0,9.335538652E0
3.507773629E0,5.389050484E0,-7.456950188E0,-1.741950035E0,9.363886006E0
3.510272784E0,5.626050472E0,-7.378050327E0,-2.199000120E0,9.535390505E0
3.512772090E0,6.066000462E0,-7.288950443E0,-2.523000002E0,9.812781928E0
3.515271475E0,6.346050262E0,-7.158000469E0,-2.785950184E0,9.963475452E0
3.517770631E0,6.789000511E0,-6.988050461E0,-2.748000145E0,1.012298780E1
3.520269936E0,7.432950497E0,-6.772050381E0,-3.214050055E0,1.055649266E1
3.522769336E0,7.687050343E0,-6.667050362E0,-3.721950293E0,1.083481506E1
3.525268492E0,7.519050121E0,-6.691050529E0,-3.954000235E0,1.081389799E1
3.527767797E0,7.060050488E0,-7.015950203E0,-4.432950020E0,1.089582103E1
3.530267182E0,7.516950130E0,-7.291950226E0,-4.135950089E0,1.125980286E1
3.532766338E0,8.269050598E0,-7.789950371E0,-3.475050211E0,1.188008832E1
3.535265653E0,8.728950500E0,-8.362050056E0,-3.346050262E0,1.254250814E1
3.537765037E0,9.088050842E0,-8.398050308E0,-3.231000185E0,1.278902965E1
3.540264193E0,9.796050072E0,-8.223000526E0,-3.126000166E0,1.316632871E1
3.542763499E0,1.063695049E1,-7.972050190E0,-3.270000219E0,1.368909060E1
3.545262899E0,1.062495041E1,-7.918950558E0,-3.384000063E0,1.367665184E1
3.547762055E0,1.086195087E1,-8.002950668E0,-1.459050059E0,1.357048353E1
3.550261361E0,1.188195038E1,-8.242050171E0,2.302950144E0,1.464294080E1
3.552760517E0,1.319595051E1,-8.380949974E0,5.253000259E0,1.649143547E1
3.555259899E0,1.314105034E1,-8.461950302E0,4.993950367E0,1.640827069E1
3.557759194E0,1.194405079E1,-8.604000092E0,3.826050282E0,1.520946507E1
3.560258348E0,1.017495060E1,-8.800050735E0,3.081000090E0,1.380083600E1
3.562757654E0,8.391000748E0,-9.145050049E0,2.041949987E0,1.257817132E1
3.565257038E0,7.024050236E0,-9.376950264E0,6.730500460E-1,1.173530887E1
3.567756194E0,6.174000263E0,-9.612000465E0,-5.430000424E-1,1.143694370E1
3.570255510E0,5.827050209E0,-9.709950447E0,-1.348950028E0,1.140426753E1
3.572754895E0,5.752950191E0,-9.772050858E0,-1.764000058E0,1.147611041E1
3.575254050E0,5.937000275E0,-9.814950943E0,-2.166000128E0,1.167359374E1
3.577753356E0,6.291000366E0,-9.766950607E0,-2.596950054E0,1.190437564E1
3.580252512E0,6.622050285E0,-9.295950890E0,-2.980050087E0,1.179605661E1
3.582751890E0,6.964050293E0,-8.637000084E0,-2.922000170E0,1.147317968E1
3.585251199E0,7.290000439E0,-7.912050247E0,-2.560950041E0,1.105907368E1
3.587750353E0,7.275000572E0,-7.279950142E0,-2.295000076E0,1.054468268E1
3.590249736E0,6.958950520E0,-6.832050323E0,-2.053050041E0,9.965887739E0
3.592749060E0,6.624000549E0,-6.469950199E0,-1.780050039E0,9.429009333E0
3.595248214E0,6.412950516E0,-6.162000179E0,-1.515000105E0,9.021718564E0
3.597747597E0,6.291000366E0,-5.877000332E0,-1.123950005E0,8.682112768E0
3.600246907E0,6.214950085E0,-5.652000427E0,-8.490000367E-1,8.443430254E0
3.602746059E0,6.133050442E0,-5.464950085E0,-6.570000052E-1,8.240851664E0
3.605245365E0,6.045000076E0,-5.340000153E0,-5.279999971E-1,8.083094182E0
3.607744750E0,5.920050144E0,-5.206050396E0,-5.569500327E-1,7.903173272E0
3.610243906E0,5.872050285E0,-5.106000423E0,-1.225050092E0,7.877370285E0
3.612743211E0,5.869950294E0,-4.977000237E0,-1.324950099E0,7.809119065E0
3.615242387E0,5.767050266E0,-4.977000237E0,-1.225050092E0,7.715578258E0
3.617741770E0,5.653950214E0,-4.965000153E0,-1.191000104E0,7.618192751E0
3.620241079E0,5.578050137E0,-4.962000370E0,-1.117050052E0,7.548767569E0
3.622740233E0,5.460000038E0,-4.966950417E0,-9.880500436E-1,7.447042349E0
3.625239616E0,5.362050056E0,-4.954950333E0,-8.610000610E-1,7.351492006E0
3.627738930E0,5.257050037E0,-4.950000286E0,-7.699500322E-1,7.261673428E0
3.630238084E0,5.178000450E0,-4.941000462E0,-7.240500450E-1,7.193707159E0
3.632737466E0,5.068050385E0,-5.008050442E0,-6.570000052E-1,7.155232556E0
3.635236776E0,4.990950108E0,-5.058000088E0,-5.539500117E-1,7.127398437E0
3.637735930E0,4.978950024E0,-5.110950470E0,-4.680000246E-1,7.150579142E0
3.640235226E0,4.996050358E0,-5.163000107E0,-2.980500162E-1,7.190683076E0
3.642734611E0,5.056050301E0,-5.236950397E0,-7.605000585E-2,7.279771817E0
3.645233767E0,5.134950161E0,-5.323950291E0,1.960500032E-1,7.399364531E0
3.647733073E0,5.227950096E0,-5.448000431E0,4.189500213E-1,7.562254295E0
3.650232457E0,5.302050114E0,-5.568000317E0,6.100500226E-1,7.712750739E0
3.652731622E0,5.350050449E0,-5.721000195E0,7.660500407E-1,7.870178886E0
3.655230928E0,5.460000038E0,-5.818950176E0,9.049500227E-1,8.030611192E0
3.657730084E0,5.524950027E0,-5.842950344E0,9.499500394E-1,8.097378996E0
3.660229466E0,5.566050053E0,-5.788050175E0,9.769500494E-1,8.089305867E0
3.662728776E0,5.665950298E0,-5.692050457E0,1.048950076E0,8.099551065E0
3.665228169E0,5.793000221E0,-5.379000187E0,1.156050086E0,7.989301996E0
3.667727247E0,5.925000191E0,-5.403000355E0,1.216050029E0,8.110290856E0
3.670226630E0,5.973000050E0,-5.271000385E0,1.213950038E0,8.058154215E0
3.672725786E0,6.219000340E0,-5.062950134E0,1.171050072E0,8.104368424E0
3.675225169E0,6.342000484E0,-4.909050465E0,1.152000070E0,8.102274420E0
3.677724463E0,6.367950439E0,-4.810950279E0,1.123050094E0,8.059607739E0
3.680223617E0,6.352950096E0,-4.774950027E0,9.940500259E-1,8.009260774E0
3.682722923E0,6.289050102E0,-4.762950420E0,9.460500479E-1,7.945618830E0
3.685222307E0,6.238950253E0,-4.785000324E0,8.809500337E-1,7.911814035E0
3.687721463E0,6.262050152E0,-4.777950287E0,8.640000224E-1,7.923924349E0
3.690220755E0,6.318000317E0,-4.807050228E0,8.040000200E-1,7.979428296E0
3.692720140E0,6.400950432E0,-4.785000324E0,5.910000205E-1,8.013593174E0
3.695219295E0,6.418050289E0,-4.801950455E0,1.990500093E-1,8.018086966E0
3.697718601E0,6.480000496E0,-4.810950279E0,-1.380000114E-1,8.071845701E0
3.700217771E0,6.600000381E0,-4.792050362E0,-3.409500122E-1,8.163332568E0
3.702717154E0,6.715050220E0,-4.747050285E0,-5.380499959E-1,8.241109372E0
3.705216463E0,6.697950363E0,-4.857000351E0,-7.720500231E-1,8.309575965E0
3.707715617E0,6.526050091E0,-5.103000164E0,-9.040500522E-1,8.333501482E0
3.710215000E0,6.468000412E0,-5.260950089E0,-1.000050068E0,8.397185558E0
3.712714295E0,6.600000381E0,-5.302050114E0,-1.072050095E0,8.533523999E0
3.715213449E0,6.801000118E0,-5.400000095E0,-1.167000055E0,8.762162562E0
3.717712832E0,6.796050549E0,-5.439000130E0,-1.303950071E0,8.801665255E0
3.720211911E0,6.862950325E0,-5.601000309E0,-1.440000057E0,8.974680595E0
3.722711294E0,6.861000538E0,-5.689950466E0,-1.633950114E0,9.061934543E0
3.725210582E0,6.720000267E0,-5.860050201E0,-1.792050123E0,9.094505792E0
3.727709967E0,6.625950336E0,-6.006000519E0,-1.933950067E0,9.149613268E0
3.730209123E0,6.400950432E0,-6.241050243E0,-2.190000057E0,9.204291109E0
3.732708505E0,6.175950527E0,-6.499050140E0,-2.482050180E0,9.302719535E0
3.735207584E0,5.805000305E0,-6.681000233E0,-2.748000145E0,9.267432085E0
3.737706967E0,5.592000484E0,-6.925050259E0,-3.013050079E0,9.397087915E0
3.740206275E0,5.331000328E0,-7.273050308E0,-2.997000217E0,9.502569946E0
3.742705430E0,5.214000225E0,-7.480950356E0,-3.006000042E0,9.601377652E0
3.745204813E0,5.427000046E0,-7.576950550E0,-3.040050030E0,9.803285843E0
3.747704123E0,5.413050175E0,-7.593000412E0,-3.178950071E0,9.851928289E0
3.750203291E0,5.298000336E0,-7.726950169E0,-3.277050257E0,9.925403007E0
3.752702673E0,5.460000038E0,-7.969050407E0,-3.351000071E0,1.022480153E1
3.755201983E0,5.494050026E0,-8.046000481E0,-3.387000084E0,1.031476994E1
3.757701137E0,5.731050491E0,-8.115000725E0,-3.303000212E0,1.046938331E1
3.760200490E0,5.749950409E0,-8.458050728E0,-3.123000145E0,1.069362809E1
3.762699800E0,5.877000332E0,-8.829000473E0,-2.545950174E0,1.090743987E1
3.765198954E0,6.198000431E0,-9.073050499E0,-1.906950116E0,1.115221563E1
3.767698260E0,7.129050255E0,-9.547050476E0,-1.060050011E0,1.196215852E1
3.770197634E0,8.034000397E0,-1.021995068E1,3.810000122E-1,1.300529566E1
3.772696790E0,8.596950531E0,-1.080900097E1,1.480050087E0,1.389001831E1
3.775196096E0,8.752050400E0,-1.148895073E1,2.191050053E0,1.460804831E1
3.777695480E0,8.626049995E0,-1.206105042E1,2.394000053E0,1.502028335E1
3.780194636E0,8.542050362E0,-1.266000080E1,2.131050110E0,1.542023408E1
3.782693942E0,8.070000648E0,-1.337100029E1,1.546950102E0,1.569399929E1
3.785193327E0,7.966950417E0,-1.392795086E1,1.092000008E0,1.608267944E1
3.787692406E0,8.146950722E0,-1.430400085E1,7.800000310E-1,1.647985578E1
3.790191788E0,8.163000107E0,-1.463205051E1,4.330500066E-1,1.676063857E1
3.792690944E0,8.392950058E0,-1.471095085E1,2.820000052E-1,1.693910298E1
3.795190246E0,8.833950043E0,-1.483605099E1,7.905000448E-2,1.726711705E1
3.797689630E0,9.118950844E0,-1.487700081E1,-2.359500080E-1,1.745096244E1
3.800188786E0,9.054000854E0,-1.500600052E1,-4.369500279E-1,1.753128371E1
3.802688092E0,8.712000847E0,-1.498395061E1,-5.260500312E-1,1.734054392E1
3.805187476E0,8.560950279E0,-1.483305073E1,-6.910500526E-1,1.714021043E1
3.807686617E0,8.428950310E0,-1.470705032E1,-7.990500331E-1,1.697006227E1
3.810185923E0,8.512949944E0,-1.435905075E1,-7.240500450E-1,1.670858772E1
3.812685308E0,8.805000305E0,-1.357605076E1,-5.879999995E-1,1.619206375E1
3.815184463E0,9.001049995E0,-1.268805027E1,-6.120000482E-1,1.556856014E1
3.817683769E0,8.929950714E0,-1.191000080E1,-6.720000505E-1,1.490113160E1
3.820183169E0,8.571000099E0,-1.138095093E1,-7.150500417E-1,1.426532100E1
3.822682325E0,8.251950264E0,-1.101000023E1,-6.220500469E-1,1.377322527E1
3.825181630E0,7.950000286E0,-1.067895031E1,-5.190000534E-1,1.332335713E1
3.827680786E0,7.687050343E0,-1.039200020E1,-3.340500295E-1,1.293042925E1
3.830180169E0,7.372950554E0,-1.024605083E1,-1.095000096E-2,1.262307718E1
3.832679479E0,7.435950279E0,-1.030095005E1,3.259500265E-1,1.270862589E1
3.835178632E0,7.314000130E0,-1.032795048E1,4.999500215E-1,1.266535073E1
3.837678015E0,7.147950172E0,-1.047105026E1,4.740000367E-1,1.268703122E1
3.840177325E0,7.078950405E0,-1.056195068E1,4.999500215E-1,1.272463324E1
3.842676455E0,6.981000423E0,-1.070805073E1,4.549500346E-1,1.279076608E1
3.845175760E0,6.954000473E0,-1.082805061E1,4.050000310E-1,1.287512438E1
3.847674916E0,7.024050236E0,-1.093800068E1,2.250000089E-1,1.300106786E1
3.850174299E0,7.081050396E0,-1.101495075E1,7.395000011E-2,1.309488004E1
3.852673608E0,7.138950348E0,-1.108200073E1,-8.295000345E-2,1.318264894E1
3.855172757E0,7.213050365E0,-1.117995071E1,-3.130500019E-1,1.330854590E1
3.857672140E0,7.258050442E0,-1.128300095E1,-5.500500202E-1,1.342713527E1
3.860171450E0,7.255950451E0,-1.143600082E1,-7.939500213E-1,1.356691890E1
3.862670603E0,7.126950264E0,-1.150305080E1,-9.690000415E-1,1.356659718E1
3.865169986E0,7.014000416E0,-1.156800079E1,-1.026000023E0,1.356714857E1
3.867669301E0,7.114950180E0,-1.178100014E1,-1.177050114E0,1.381303469E1
3.870168455E0,7.318050385E0,-1.160805035E1,-1.507050037E0,1.380477794E1
3.872667837E0,7.258050442E0,-1.096005058E1,-1.282050014E0,1.320778775E1
3.875167147E0,7.543050289E0,-1.135005093E1,-1.239000082E0,1.368416548E1
3.877666310E0,7.977000237E0,-1.142595100E1,-9.660000205E-1,1.396846610E1
3.880165615E0,8.616000175E0,-1.144305038E1,-8.629500270E-1,1.435003637E1
3.882665000E0,9.018000603E0,-1.162800026E1,-8.850000501E-1,1.474170784E1
3.885164156E0,9.286050797E0,-1.174500084E1,-1.093050003E0,1.501234633E1
3.887663462E0,9.328950882E0,-1.209900093E1,-1.399950027E0,1.534193626E1
3.890162846E0,9.310050011E0,-1.240800095E1,-1.701000094E0,1.560541316E1
3.892662002E0,9.540000916E0,-1.213995075E1,-1.789950132E0,1.554329255E1
3.895161308E0,9.231000900E0,-1.247505093E1,-2.083950043E0,1.565826047E1
3.897660464E0,9.511050224E0,-1.261905098E1,-2.106000185E0,1.594163608E1
3.900159769E0,9.363000870E0,-1.276695061E1,-2.086950064E0,1.596922583E1
3.902659154E0,9.267000198E0,-1.273905087E1,-1.984050035E0,1.587756795E1
3.905158310E0,9.262050629E0,-1.263795090E1,-1.921950102E0,1.578598356E1
3.907657616E0,9.162000656E0,-1.261605072E1,-1.677000046E0,1.568181498E1
3.910157010E0,9.127950668E0,-1.248495102E1,-1.462050080E0,1.553483427E1
3.912656166E0,8.812050819E0,-1.226400089E1,-1.510050058E0,1.517689720E1
3.915155472E0,8.554050446E0,-1.202700043E1,-1.615050077E0,1.484684832E1
3.917654856E0,8.175000191E0,-1.191000080E1,-1.540950060E0,1.452767271E1
3.920154012E0,7.576950550E0,-1.165905094E1,-1.603050113E0,1.399690745E1
3.922653318E0,7.087950230E0,-1.149105072E1,-1.941000104E0,1.364004276E1
3.925152703E0,6.571050167E0,-1.136400032E1,-2.400000095E0,1.334463203E1
3.927651858E0,6.334050179E0,-1.137900066E1,-2.946000099E0,1.335218201E1
3.930151164E0,6.094950199E0,-1.142205048E1,-3.054000139E0,1.330182588E1
3.932650549E0,5.644950390E0,-1.138800049E1,-2.985000134E0,1.305611909E1
3.935149695E0,4.998000145E0,-1.128000069E1,-2.745000124E0,1.263936101E1
3.937649000E0,4.290000439E0,-1.104300022E1,-2.629950047E0,1.213542726E1
3.940148385E0,3.868050098E0,-1.066500092E1,-2.664000034E0,1.165336656E1
3.942647464E0,3.600000143E0,-1.033200073E1,-2.604000092E0,1.124682429E1
3.945146846E0,3.045000076E0,-1.023405075E1,-2.857950211E0,1.105331170E1
3.947646031E0,2.452950001E0,-1.023705006E1,-3.004050255E0,1.094707612E1
3.950145414E0,2.311950207E0,-1.001895046E1,-2.839050055E0,1.066699055E1
3.952644724E0,1.857000113E0,-9.673950195E0,-3.616950274E0,1.049362145E1
3.955143877E0,1.239000082E0,-9.790950775E0,-3.652950287E0,1.052339698E1
3.957643193E0,6.739500165E-1,-9.967950821E0,-3.847050190E0,1.070579504E1
3.960142349E0,2.340000123E-1,-1.007100010E1,-3.961050272E0,1.082449621E1
3.962641732E0,-1.480500102E-1,-1.009095001E1,-4.189050198E0,1.092690864E1
3.965141116E0,-6.250500083E-1,-1.013100052E1,-4.507050037E0,1.110591550E1
3.967640195E0,-1.387950063E0,-9.949050903E0,-4.596000195E0,1.104686548E1
3.970139587E0,-1.680000067E0,-9.933000565E0,-4.809000015E0,1.116303640E1
3.972638894E0,-2.061000109E0,-9.798000336E0,-4.528950214E0,1.098908195E1
3.975138050E0,-2.344050169E0,-9.496950150E0,-3.925950289E0,1.054038515E1
3.977637433E0,-2.170950174E0,-9.219000816E0,-3.291000128E0,1.002664862E1
3.980136743E0,-2.443950176E0,-9.018000603E0,-2.965050220E0,9.802486937E0
3.982635902E0,-2.911050081E0,-8.814000130E0,-2.110949993E0,9.519292029E0
3.985135284E0,-3.907050133E0,-8.518050194E0,-1.771050096E0,9.537234310E0
3.987634594E0,-3.409050226E0,-8.299950600E0,-4.488000393E0,1.003259443E1
3.990133748E0,-2.716950178E0,-8.167950630E0,-2.242050171E0,8.895168618E0
3.992633135E0,-2.180999994E0,-8.059950829E0,-5.659500360E-1,8.368982482E0
3.995132214E0,-1.438950062E0,-8.167950630E0,5.650500059E-1,8.312958335E0
3.997631597E0,-1.137000084E0,-8.122050285E0,1.261950016E0,8.297770054E0
4.000130905E0,-1.093950033E0,-7.830000401E0,2.169000149E0,8.198182396E0
4.002630289E0,-7.129500508E-1,-7.378050327E0,2.842050076E0,7.938587597E0
4.005129425E0,-5.050500035E-1,-6.966000557E0,3.555000067E0,7.836980588E0
4.007628731E0,-2.389500141E-1,-6.681000233E0,4.147050381E0,7.867076209E0
4.010127887E0,0.000000000E0,-6.595050335E0,4.615950108E0,8.049949336E0
4.012627269E0,4.759500325E-1,-6.532950401E0,4.824000359E0,8.134921563E0
4.015126579E0,9.259500504E-1,-6.468000412E0,4.924950123E0,8.182148039E0
4.017625962E0,1.287000060E0,-6.310050488E0,4.660950184E0,7.949689486E0
4.020125117E0,1.156050086E0,-6.259950161E0,4.051050186E0,7.545491066E0
4.022624423E0,1.062000036E0,-6.331950188E0,3.529050112E0,7.326365535E0
4.025123579E0,1.540950060E0,-5.713950157E0,2.437050104E0,6.400231769E0
4.027622885E0,1.455000043E0,-5.593950272E0,1.662000060E0,6.014278757E0
4.030122279E0,1.399950027E0,-5.641950130E0,9.859500527E-1,5.896062997E0
4.032621435E0,1.402050018E0,-5.689950466E0,4.429500103E-1,5.876860154E0
4.035120741E0,1.294950008E0,-5.814000130E0,-6.405000389E-2,5.956810844E0
4.037620125E0,8.089500666E-1,-5.821950436E0,-6.720000505E-1,5.916172002E0
4.040119281E0,-7.905000448E-2,-5.635050297E0,-2.107950211E0,6.016934007E0
4.042618568E0,-4.950000346E-1,-4.990950108E0,-4.027950287E0,6.432650428E0
4.045117953E0,-5.719500184E-1,-4.621950150E0,-5.053050041E0,6.871889458E0
4.047617032E0,-6.409500241E-1,-3.930000305E0,-6.076050282E0,7.264578884E0
4.050116414E0,-3.349500299E-1,-3.784050226E0,-6.625950336E0,7.637698966E0
4.052615570E0,-4.570500255E-1,-4.408950329E0,-6.178050518E0,7.603686338E0
4.055114933E0,-9.930000305E-1,-5.392950058E0,-5.488950253E0,7.758771440E0
4.057614242E0,-1.855050087E0,-6.186000347E0,-5.131950378E0,8.248922706E0
4.060113625E0,-2.334000111E0,-6.724050522E0,-4.816050053E0,8.593878638E0
4.062612704E0,-2.413050175E0,-7.246050358E0,-4.471050262E0,8.849765386E0
4.065112086E0,-2.784000158E0,-7.750950336E0,-4.105050087E0,9.202136937E0
4.067611247E0,-9.240000248E-1,-7.015950203E0,-3.246000051E0,7.785489685E0
4.070110630E0,2.299950123E0,-5.647050381E0,-2.587050200E0,6.623577380E0
4.072609940E0,3.433050156E0,-5.992050171E0,-1.117050052E0,6.995591429E0
4.075109093E0,3.331950188E0,-6.829950333E0,-2.070000172E-1,7.602168283E0
4.077608375E0,2.851050138E0,-7.444950581E0,3.259500265E-1,7.978848254E0
4.080107760E0,2.472000122E0,-7.918950558E0,1.021950006E0,8.358525250E0
4.082606916E0,2.203950167E0,-8.282999992E0,2.155050039E0,8.837970688E0
4.085106221E0,2.305050135E0,-8.584950447E0,3.012000084E0,9.385455493E0
4.087605606E0,2.805000067E0,-8.785950661E0,3.682050228E0,9.930682165E0
4.090104767E0,3.579000235E0,-8.802000046E0,3.952950239E0,1.029127121E1
4.092604073E0,4.014000416E0,-8.794950485E0,3.748950243E0,1.036908778E1
4.095103228E0,4.219950199E0,-9.031949997E0,3.591000080E0,1.059619658E1
4.097602611E0,4.960050106E0,-8.388000488E0,2.658000231E0,1.010077296E1
4.100101921E0,5.583000183E0,-7.348950386E0,1.128000021E0,9.297814091E0
4.102601084E0,5.865000248E0,-6.324000359E0,-3.220500052E-1,8.631044239E0
4.105100389E0,5.982000351E0,-5.293050289E0,-1.411950111E0,8.111369347E0
4.107599774E0,5.700000286E0,-4.555050373E0,-2.009999990E0,7.568261830E0
4.110098930E0,5.233050346E0,-4.153050423E0,-2.095950127E0,7.001831951E0
4.112598312E0,4.953000069E0,-4.122000217E0,-1.780050039E0,6.685183140E0
4.115097387E0,4.867050171E0,-4.174050331E0,-1.372950077E0,6.557123260E0
4.117596770E0,4.747050285E0,-4.072050095E0,-1.072050095E0,6.345499964E0
4.120096078E0,4.728000164E0,-3.909000158E0,-9.090000391E-1,6.201656945E0
4.122595462E0,4.888050079E0,-3.700050116E0,-8.560500145E-1,6.190010183E0
4.125094618E0,4.960050106E0,-3.625950098E0,-1.000050068E0,6.224926611E0
4.127593924E0,4.957950115E0,-3.697950125E0,-1.399950027E0,6.341605834E0
4.130093080E0,4.858950138E0,-3.937050104E0,-2.098950148E0,6.596616685E0
4.132592462E0,4.534049988E0,-4.134000301E0,-3.018000126E0,6.837828057E0
4.135091772E0,4.443000317E0,-4.312950134E0,-4.066950321E0,7.408230260E0
4.137590911E0,4.690050125E0,-4.363950253E0,-3.775050163E0,7.435834568E0
4.140090293E0,4.773000240E0,-4.600950241E0,-2.527050018E0,7.094804875E0
4.142589603E0,4.663050175E0,-4.783050060E0,-1.207950115E0,6.788280216E0
4.145088757E0,4.471950054E0,-4.858950138E0,2.850000262E-1,6.609762382E0
4.147588140E0,4.246950150E0,-5.020050049E0,1.410000086E0,6.724997272E0
4.150087435E0,3.901950121E0,-5.263950348E0,2.313000202E0,6.948694694E0
4.152586589E0,3.696000099E0,-5.508000374E0,2.971050024E0,7.268123767E0
4.155085895E0,3.421050072E0,-5.794950485E0,3.160050154E0,7.434443603E0
4.157585279E0,3.057000160E0,-6.118950367E0,3.009000063E0,7.472675890E0
4.160084420E0,2.638050079E0,-6.466050148E0,2.485050201E0,7.412461618E0
4.162583726E0,2.025000095E0,-6.700050354E0,1.851000071E0,7.239993190E0
4.165083111E0,1.684950113E0,-6.954000473E0,1.414950013E0,7.293782489E0
4.167582266E0,1.704000115E0,-7.150050163E0,1.069950104E0,7.427760561E0
4.170081577E0,1.909950137E0,-7.189050198E0,1.024950027E0,7.508719919E0
4.172580733E0,2.365050077E0,-7.306050301E0,7.969500422E-1,7.720554529E0
4.175080116E0,2.653950214E0,-7.390050411E0,7.369500399E-1,7.886659127E0
4.177579425E0,2.953950167E0,-7.323000431E0,5.340000391E-1,7.914373819E0
4.180078579E0,3.349050045E0,-7.225050449E0,5.989500284E-1,7.986002212E0
4.182577895E0,4.002000332E0,-7.033050537E0,8.590500355E-1,8.137430398E0
4.185077280E0,4.977000237E0,-6.625950336E0,1.057950020E0,8.354220937E0
4.187576435E0,5.608950138E0,-6.267000198E0,1.069950104E0,8.478231323E0
4.190075741E0,6.172050476E0,-6.006000519E0,8.520000577E-1,8.654025272E0
