"Time (s)","Linear Acceleration x (m/s^2)","Linear Acceleration y (m/s^2)","Linear Acceleration z (m/s^2)","Absolute acceleration (m/s^2)"
3.097374996E-3,-5.625284582E-2,6.934832847E-1,-1.045119047E0,1.255530673E0
1.308837500E-2,1.678446177E-1,6.231418651E-1,-1.778190905E0,1.891676636E0
2.307937500E-2,4.322755900E-1,4.818082309E-1,-2.078668208E0,2.177122613E0
3.307037500E-2,8.428933856E-1,3.906799597E-1,-2.096526774E0,2.293147314E0
4.306137500E-2,1.045939996E0,4.899650967E-1,-1.967485156E0,2.281458768E0
5.305237500E-2,9.618947491E-1,6.375426802E-1,-1.719635133E0,2.070953203E0
6.304337500E-2,1.325477250E0,4.380695960E-1,-1.468874951E0,2.026422595E0
7.303437500E-2,1.280879074E0,5.723693222E-1,-4.978769642E-1,1.488670318E0
8.302537500E-2,5.390925255E-1,1.055079778E0,8.063661218E-1,1.433192385E0
9.301637500E-2,-2.271122879E-1,1.309067331E0,1.471298037E0,1.982411457E0
1.030073750E-1,-4.232091898E-1,9.919526535E-1,1.644583197E0,1.966654514E0
1.129983750E-1,-3.749848634E-1,3.605612442E-1,1.623874698E0,1.705164829E0
1.229893750E-1,-2.250657624E-1,-2.994480465E-1,1.782956970E0,1.821883445E0
1.329803750E-1,1.859937319E0,-6.493002614E-1,8.062246192E-1,2.128604189E0
1.429713750E-1,1.560051754E0,-1.447391988E0,1.537171599E0,2.625186007E0
1.529623750E-1,9.900113779E-1,-1.457430634E0,2.249010463E0,2.856969486E0
1.629533750E-1,4.012985033E-1,-1.081745494E0,2.685851852E0,2.923185586E0
1.729443750E-1,-4.356655133E-1,-3.391779765E-1,3.677396954E0,3.718614594E0
1.829353750E-1,-1.070600043E0,1.744972325E-1,3.964595230E0,4.110310095E0
1.929263750E-1,-1.483152682E0,3.148190609E-1,3.625053264E0,3.929359247E0
2.029173750E-1,-1.100467036E0,9.826236768E-2,1.988653831E0,2.274956538E0
2.129083750E-1,-7.950353873E-1,-5.096458013E-1,1.318851185E-1,9.535270286E-1
2.228993750E-1,-6.641764551E-1,-8.685882439E-1,-9.376197410E-1,1.440384212E0
2.328903750E-1,-2.299739152E-1,-8.636005689E-1,-1.837550084E0,2.043351232E0
2.428813750E-1,-8.668497205E-2,-6.262445439E-1,-2.197868961E0,2.286990267E0
2.528723750E-1,6.541163206E-2,-4.429481473E-1,-2.562049339E0,2.600880343E0
2.628633750E-1,-2.629030949E-1,-3.030487619E-1,-2.725375521E0,2.754746508E0
2.728543750E-1,-3.779318601E-1,4.630975793E-1,-1.203506670E0,1.343770875E0
2.828453750E-1,4.221680930E-1,4.258901381E-1,-2.135262823E0,2.217871870E0
2.928363750E-1,1.353800870E0,-1.331742834E-1,-6.036239762E0,6.187624961E0
3.028283750E-1,1.372970089E0,1.537811869E-1,-6.517880763E0,6.662692035E0
3.128183750E-1,5.778898247E-1,-2.403616400E-1,-2.279430018E0,2.363796010E0
3.228103750E-1,-1.882070930E0,-2.168700126E0,-4.489843011E-1,2.906378868E0
3.328013750E-1,-1.136876478E1,-3.057018483E0,3.472047418E-1,1.177772159E1
3.427923750E-1,-1.164651220E1,-3.276708608E0,8.666982776E-1,1.212968391E1
3.527833750E-1,-2.404292631E0,-3.795559242E0,-7.580511636E-1,4.556482699E0
3.627743750E-1,6.276611781E-1,-2.773514478E0,-2.036422074E0,3.497621475E0
3.727653750E-1,6.677333164E-1,-1.720965959E0,-2.499997517E0,3.107664590E0
3.827563750E-1,2.586643606E0,-2.196717352E0,-2.874249140E0,4.447201410E0
3.927473750E-1,5.980191277E0,-8.879170192E-1,-2.433572563E0,6.517158872E0
4.027383750E-1,6.724916051E0,1.563292573E-1,-3.065385264E-1,6.733713730E0
4.127293750E-1,3.712248698E0,1.242077974E-1,2.351152550E0,4.395922689E0
4.227203750E-1,1.091180049E0,1.225751817E-1,3.948317167E0,4.098158980E0
4.327113750E-1,5.665644988E-2,-1.140397087E-2,3.096191320E0,3.096730646E0
4.427023750E-1,3.644180676E-1,-2.034261528E0,7.749876237E-1,2.207176094E0
4.526933750E-1,2.408617231E-1,-4.167733349E0,-1.478550923E0,4.428784085E0
4.626843750E-1,-1.576564291E-1,-4.634004066E0,-2.104916359E0,5.092103898E0
4.726753750E-1,-5.982645938E-1,-4.099006346E0,-2.570003307E0,4.874904158E0
4.826663750E-1,-6.520858750E-1,-3.026083204E0,-2.798848125E0,4.173241710E0
4.926573750E-1,-5.821748105E-1,-2.347554758E0,-2.945105699E0,3.810982607E0
5.026483750E-1,-9.764610404E-1,-2.612185998E0,-3.535435329E0,4.502920698E0
5.126392083E-1,-2.215990067E0,-3.351967536E0,-3.478850069E0,5.314950248E0
5.226302083E-1,-3.418238416E0,-4.489925457E0,-3.669175769E0,6.731020376E0
5.326212083E-1,-3.160513616E0,-6.171682327E0,-4.068050601E0,8.039125870E0
5.426122083E-1,-2.349207181E0,-7.742534473E0,-3.496425630E0,8.814227512E0
5.526032083E-1,-1.756228178E0,-8.839191463E0,-2.778250723E0,9.430499468E0
5.625942083E-1,-1.757102922E0,-9.661870147E0,-2.207843142E0,1.006547151E1
5.725852083E-1,-1.967938315E0,-9.758284301E0,-2.677389176E0,1.030850651E1
5.825762083E-1,-1.693906800E0,-9.939818712E0,-3.232192293E0,1.058850241E1
5.925672083E-1,-1.057867146E0,-1.083703185E1,-3.761788648E0,1.152004324E1
6.025582083E-1,4.825753856E-1,-1.114452055E1,-3.644922980E0,1.173536028E1
6.125492083E-1,2.238320584E0,-1.141638451E1,-2.004604450E0,1.180518332E1
6.225402083E-1,3.508981356E0,-1.097953084E1,-7.953186849E-1,1.155402871E1
6.325312083E-1,4.286213726E0,-9.620611609E0,1.288317025E-1,1.053301445E1
6.425222083E-1,4.389791304E0,-8.481696206E0,3.269394618E-1,9.555957704E0
6.525132083E-1,6.233942310E0,-6.770207999E0,-1.002547224E0,9.257583594E0
6.625042083E-1,8.236339436E0,-5.795809271E0,-1.225591896E0,1.014548017E1
6.724952083E-1,9.379399930E0,-4.520683273E0,-1.745838261E-1,1.041346243E1
6.824862083E-1,1.058450815E1,-2.968937488E0,4.535556543E-1,1.100236863E1
6.924772083E-1,1.074236426E1,-2.579245124E0,4.394673729E-1,1.105640208E1
7.024682083E-1,1.091643237E1,-2.229597123E0,3.732020473E-1,1.114804372E1
7.124592083E-1,1.065979222E1,-1.526621760E0,-1.565004930E0,1.088168115E1
7.224502083E-1,9.598074101E0,-4.800833023E-1,-1.693510651E0,9.758149658E0
7.324412083E-1,9.263268380E0,-8.851982832E-2,-1.424600126E0,9.372591016E0
7.424322083E-1,1.166480814E1,1.053630254E0,-4.126818627E0,1.241807222E1
7.524232083E-1,1.653877346E1,4.868330941E0,-9.091391230E0,1.949064053E1
7.624142083E-1,1.248203722E1,5.422286797E0,-1.219299707E0,1.366342340E1
7.724052083E-1,1.108995317E1,2.466851406E0,-4.331240210E-1,1.136925739E1
7.823962083E-1,1.234294132E1,2.064704472E-1,5.405487746E-2,1.234478644E1
7.923872083E-1,1.371783689E1,2.188157321E0,-2.473307902E0,1.410972478E1
8.023782083E-1,1.226366126E1,4.589031669E0,-2.542120567E0,1.333862722E1
8.123692083E-1,1.190066962E1,4.978646851E0,-4.935193852E0,1.381191515E1
8.223602083E-1,1.220869392E1,6.055235612E0,-8.155163711E0,1.588158622E1
8.323512083E-1,8.703069452E0,7.529935559E0,-5.889726080E0,1.292796274E1
8.423432083E-1,5.241323658E0,7.480535942E0,-5.261698866E0,1.054112739E1
8.523342083E-1,2.341694094E0,5.925875906E0,-3.605359842E0,7.321076155E0
8.623252083E-1,1.528098475E0,4.441809304E0,-3.593985838E0,5.914515115E0
8.723162083E-1,5.327526820E-1,4.026763412E0,-3.577774433E0,5.412866051E0
8.823072083E-1,5.086574757E-1,4.789667764E0,-3.509419312E0,5.959502801E0
8.922982083E-1,-2.479201895E-1,6.657763118E0,-3.687715536E0,7.614888051E0
9.022892083E-1,4.562406957E-2,8.491554027E0,-5.567978945E0,1.015435674E1
9.122802083E-1,1.420440710E0,9.440168872E0,-8.035167736E0,1.247791492E1
9.222712083E-1,2.378236853E0,1.097115412E1,-8.954347697E0,1.435975543E1
9.322622083E-1,2.864323491E0,9.863103243E0,-7.923667765E0,1.297187980E1
9.422532083E-1,1.954975038E0,6.822751079E0,-7.134947956E0,1.006376381E1
9.522442083E-1,1.215902182E0,3.624923164E0,-6.587243358E0,7.616446752E0
9.622352083E-1,1.143439978E0,6.740024087E-1,-5.401869489E0,5.562546917E0
9.722262083E-1,3.116741359E-2,-2.315520495E0,-3.788413652E0,4.440122135E0
9.822172083E-1,-2.298354532E0,-5.363624606E0,-2.572379323E0,6.377149664E0
9.922082083E-1,-6.166606359E0,-5.608521785E0,-3.366456644E0,8.989748658E0
1.002199208E0,-8.909831091E0,-4.836582314E0,-2.107242966E-1,1.014011949E1
1.012190208E0,-9.135150622E0,-4.652399699E0,-1.031809030E0,1.030341835E1
1.022181208E0,-9.662063690E0,-4.586767335E0,-3.898548006E0,1.138387394E1
1.032172208E0,-9.552267598E0,-3.549446135E0,-9.991809815E0,1.427167291E1
1.042163208E0,-4.414672376E0,-4.144052418E0,5.651411111E0,8.282569057E0
1.052154208E0,-5.650585485E-1,-3.147576066E0,8.284153873E0,8.879962367E0
1.062145208E0,3.386561126E-1,-2.515384173E0,5.275056245E0,5.853893054E0
1.072136208E0,-5.611233723E-1,-5.937993675E-2,3.219837419E0,3.268904774E0
1.082127208E0,-1.044134960E0,1.577524112E0,-7.953599077E-1,2.052168980E0
1.092118208E0,-5.748011792E-1,3.088099943E0,-2.349189055E0,3.922428695E0
1.102109208E0,3.419901949E-1,4.592626829E0,-1.998051476E0,5.020098424E0
1.112100208E0,1.216167061E0,4.639635812E0,-1.239590423E0,4.953974889E0
1.122091208E0,3.907261527E-1,3.172755054E0,1.514301969E0,3.537252043E0
1.132082208E0,1.856555289E-1,1.518163471E0,1.523679149E-1,1.537044007E0
1.142073208E0,5.862517816E-1,-7.076300383E-2,-1.558009322E0,1.666160737E0
1.152064208E0,1.846773482E0,-9.814393598E-1,-3.530771005E-1,2.120957083E0
1.162055208E0,2.953399390E0,-1.244381046E0,1.842428270E0,3.696700431E0
1.172046208E0,2.592102274E0,-1.144352728E0,8.905685122E-1,2.970126199E0
1.182037208E0,1.804686978E0,-1.955079411E0,1.625809103E0,3.118090093E0
1.192028208E0,1.947221045E0,-2.545361678E0,2.272845322E0,3.928913556E0
1.202019208E0,3.687421421E0,-1.990288420E0,3.556092957E0,5.495827677E0
1.212010208E0,5.687089652E0,7.024494052E-2,4.435911802E0,7.212852180E0
1.222001208E0,7.062205085E0,2.490117770E0,3.137628783E0,8.119121969E0
1.231992208E0,6.665337017E0,3.508816465E0,1.179853367E0,7.624340266E0
1.241983208E0,5.128462456E0,3.792345905E0,7.196099599E-1,6.418789070E0
1.251974208E0,3.030328867E0,3.702547875E0,-1.617586456E0,5.050578161E0
1.261965208E0,8.445694900E-1,3.622046919E0,-2.964048339E0,4.755849457E0
1.271956208E0,6.092857182E-2,3.455093709E0,-3.399732563E0,4.847635128E0
1.281947208E0,6.694360256E-2,2.533745892E0,-3.118546979E0,4.018667062E0
1.291938208E0,-8.832745492E-2,2.104833328E0,-2.270825840E0,3.097543394E0
1.301929208E0,-1.507488794E0,2.993409255E0,-3.964660719E-1,3.374938041E0
1.311920208E0,4.904580170E-1,4.759552557E0,2.957243350E0,5.624871362E0
1.321911208E0,-1.420383992E0,1.587068522E0,7.835809842E-1,2.269422027E0
1.331903208E0,-1.444953407E0,3.972332266E-1,1.383838894E0,2.039778093E0
1.341894208E0,7.987881303E-3,2.575920689E0,1.827093508E0,3.158116827E0
1.351885208E0,1.046007239E0,4.147265756E0,1.838392960E0,4.655494932E0
1.361876208E0,9.533890969E-1,4.691743859E0,5.243271366E-1,4.816256861E0
1.371867208E0,2.581374972E0,5.183554337E0,-1.969569981E0,6.116529917E0
1.381858208E0,2.871481068E0,4.929873471E0,-2.881918056E0,6.391753096E0
1.391849208E0,8.686740518E-1,3.026902984E0,-2.173668505E0,3.826430589E0
1.401840208E0,1.239157729E0,9.211609983E-1,1.298144440E0,2.017232869E0
1.411831208E0,2.564099373E0,-1.140708743E0,2.787504819E0,3.955503147E0
1.421822208E0,3.633738719E0,-1.864754255E0,1.121084611E0,4.235350778E0
1.431813208E0,4.042510548E0,-1.850677083E0,1.586093791E0,4.720443910E0
1.441804208E0,3.885864810E0,-2.660794194E0,2.190595317E0,5.194081142E0
1.451795208E0,2.603658126E0,-1.308696910E0,3.914523768E-1,2.940230978E0
1.461786208E0,-7.044491529E-2,-1.021434900E0,-2.344752480E0,2.558545668E0
1.471777208E0,-1.079533419E0,-2.075614207E0,-3.279576375E0,4.028546628E0
1.481768208E0,4.499730653E-1,-2.218439466E0,2.173401287E-1,2.274024220E0
1.491759208E0,1.752085426E0,-1.814305648E0,2.121038886E0,3.295499094E0
1.501750208E0,2.012088302E0,-1.639593768E0,2.506178609E0,3.608004750E0
1.511741208E0,1.600234405E0,-1.217692600E0,2.752569459E0,3.408836172E0
1.521732208E0,2.227369334E0,-5.738042289E-1,2.717084754E0,3.559912218E0
1.531723208E0,2.646409459E0,-2.234367281E-1,3.019172672E0,4.021045961E0
1.541714208E0,3.380834947E0,4.694939947E-1,2.966648011E0,4.522330149E0
1.551705208E0,3.986009488E0,-1.577368283E-1,2.342257035E0,4.625939965E0
1.561696208E0,2.078865843E0,-2.535650915E0,9.725635788E-1,3.420100682E0
1.571687208E0,2.646976054E-1,-3.976282060E0,5.779095590E-1,4.026768345E0
1.581678208E0,-7.591545331E-1,-4.791253529E0,2.236457076E0,5.341738129E0
1.591669208E0,-1.094126315E0,-5.562163889E0,2.894603298E0,6.365022213E0
1.601660208E0,-5.663186234E-1,-4.971317950E0,2.447247885E0,5.569895974E0
1.611651208E0,5.327047348E-2,-3.407963104E0,1.575092693E0,3.754725989E0
1.621642208E0,3.612532622E-1,-1.610608535E0,3.927668309E-1,1.696711394E0
1.631633208E0,-1.869340226E0,-3.854285753E-1,-3.374498320E-1,1.938262226E0
1.641624208E0,-5.660402375E0,-1.203889078E-1,-1.763371722E0,5.929934937E0
1.651615208E0,-6.709181778E0,2.774041897E-1,-4.330818626E0,7.990373157E0
1.661606208E0,-7.101990125E0,1.937730430E0,-4.179352351E0,8.465225870E0
1.671597208E0,-7.542652668E0,3.505802225E0,-1.611932344E0,8.472342321E0
1.681588208E0,-5.810600388E0,2.175161299E0,8.072829652E-1,6.256685171E0
1.691579208E0,-4.312688164E0,1.006940821E0,1.026772530E-1,4.429870386E0
1.701570208E0,-3.300585421E0,1.713394400E0,-2.145249721E0,4.293213348E0
1.711561208E0,-2.542772824E0,2.005487965E0,-1.240285656E0,3.467850072E0
1.721552208E0,-1.683377134E0,1.782965156E0,9.210920012E-1,2.619376605E0
1.731543208E0,-1.762496978E-1,8.620047176E-1,1.714293702E0,1.926893610E0
1.741534208E0,8.165578187E-1,-2.933407760E-1,2.544977224E0,2.688814711E0
1.751525208E0,1.500811273E0,-1.087179823E0,2.764600983E0,3.328274784E0
1.761516208E0,2.017676486E0,-1.317188821E0,1.817985885E0,3.018456140E0
1.771508208E0,2.810536709E0,-1.337435390E0,-6.284002662E-3,3.112537470E0
1.781499208E0,3.554793706E0,-9.336939204E-1,-1.340187675E0,3.912089676E0
1.791490208E0,3.975930058E0,1.183493405E0,-6.824770707E-1,4.204099358E0
1.801481208E0,2.403293926E0,2.251354612E0,-1.544809232E0,3.637424205E0
1.811472208E0,2.523755924E0,2.612297387E0,-2.651081384E0,4.496851577E0
1.821463208E0,3.486049161E0,3.958198376E0,-4.233128609E0,6.763079991E0
1.831454208E0,1.611244127E0,6.235594733E0,-5.558511134E0,8.507396507E0
1.841445208E0,-3.151275015E-1,5.893159565E0,-4.765415268E0,7.585368658E0
1.851436208E0,-1.699985565E0,5.590401263E0,-3.070323238E0,6.600713748E0
1.861427208E0,-1.647277594E0,5.931367026E0,-8.351817852E-1,6.212259402E0
1.871418208E0,-5.697836834E-1,5.804280133E0,1.549978756E0,6.034629686E0
1.881409208E0,2.339500219E-1,6.072254518E0,2.646221763E-1,6.082518593E0
1.891400208E0,-3.722220540E-2,5.832318116E0,-1.565636430E0,6.038918573E0
1.901391208E0,-5.285157895E-1,4.719360259E0,-1.219313448E0,4.902898681E0
1.911382208E0,-1.826525744E0,2.888901093E0,-1.336384646E0,3.669859635E0
1.921373208E0,-3.729537746E0,2.444463002E0,-1.713285057E0,4.777048969E0
1.931364208E0,-5.565374596E0,3.843197678E0,-4.263631779E-1,6.776824355E0
1.941355208E0,-6.470915342E0,4.311308221E0,8.367687196E-1,7.820505472E0
1.951346208E0,-5.823909820E0,2.894755325E0,3.579004687E0,7.423396025E0
1.961337208E0,-5.371876781E0,1.571532177E0,3.237997994E0,6.466173872E0
1.971328208E0,-4.892531397E0,-1.211502737E0,2.829121499E0,5.780011316E0
1.981319208E0,-3.094376929E0,-2.614797072E0,1.341545983E0,4.267561122E0
1.991310208E0,-2.721510512E-1,-3.111198199E-1,-8.487004747E-1,9.440096571E-1
2.001301208E0,3.824225217E0,-3.035577913E0,-1.920806249E0,5.246801733E0
2.011292208E0,5.058508122E0,-1.199501093E1,3.034387420E0,1.336698540E1
2.021283208E0,5.079708372E0,-1.197704244E1,3.074291158E0,1.336803085E1
2.031274208E0,-9.539790809E-2,-1.730965985E1,-1.013433058E0,1.733956376E1
2.041265208E0,1.492692999E0,-2.954046677E0,4.505782521E0,5.590760260E0
2.051256208E0,1.000936900E0,6.172700912E-1,4.832743033E0,4.973761380E0
2.061247208E0,1.065142252E0,1.603116497E0,4.934072356E0,5.296185470E0
2.071238208E0,1.667118366E0,2.235434983E0,4.664478292E0,5.434501904E0
2.081229208E0,2.515813066E0,2.711317645E0,3.487468280E0,5.083600473E0
2.091220208E0,2.744562282E0,2.310795068E0,1.953984520E0,4.085394898E0
2.101211208E0,3.044681151E0,9.503456211E-1,1.076603964E0,3.366350576E0
2.111202208E0,3.026828724E0,3.501955926E-2,9.619454737E-1,3.176201755E0
2.121193208E0,2.819158428E0,-9.759470701E-1,6.328868347E-1,3.049700424E0
2.131184208E0,2.550898407E0,-2.300444911E0,-4.237371933E-1,3.461023357E0
2.141175208E0,1.999808272E0,-2.821159930E0,-2.011999863E0,4.000789912E0
2.151166208E0,9.975411299E-1,-2.472868191E0,-4.284737304E0,5.046695866E0
2.161157208E0,6.724552354E-1,-2.426446561E0,-5.332027422E0,5.896639330E0
2.171148208E0,7.606777328E-1,-2.618361534E0,-4.798652011E0,5.519194585E0
2.181139208E0,1.108697869E0,-2.586664363E0,-4.684413205E0,5.464775436E0
2.191131208E0,1.699666892E0,-2.314049043E0,-5.564544876E0,6.261617218E0
2.201122208E0,1.957972321E0,-2.244068397E0,-5.364978821E0,6.136162997E0
2.211113208E0,2.624266638E0,-2.147798669E0,-4.526229064E0,5.655666543E0
2.221104208E0,3.233623107E0,-1.725781142E0,-4.550818360E0,5.843336949E0
2.231095208E0,3.318523509E0,-1.186604708E0,-4.630241675E0,5.818914588E0
2.241086208E0,3.391421916E0,-5.347173464E-1,-4.037229343E0,5.299706220E0
2.251077208E0,3.355955629E0,1.040646511E-1,-3.676122846E0,4.978669181E0
2.261068208E0,3.141668624E0,-1.432842654E-1,-3.515948313E0,4.717256053E0
2.271059208E0,2.996090496E0,-7.858774781E-1,-2.479113017E0,3.967387431E0
2.281050208E0,2.350308797E0,-1.397150665E0,-1.614410394E0,3.175264137E0
2.291041208E0,1.988659093E0,-1.139695421E0,-1.267926030E0,2.619409677E0
2.301032208E0,1.989640256E0,-7.807956630E-1,-8.805395141E-3,2.137378710E0
2.311023208E0,1.959024820E0,-7.578435874E-1,1.039508643E0,2.343647449E0
2.321014208E0,1.642365932E0,-7.119154626E-1,1.229410420E0,2.171552316E0
2.331005208E0,1.257292868E0,-6.984762222E-1,1.000984263E0,1.752319572E0
2.340996208E0,7.354019737E-1,-7.056682974E-1,7.116476601E-1,1.243071278E0
2.350987208E0,9.117504895E-2,-1.925377017E-1,9.469706082E-1,9.706374138E-1
2.360978208E0,-5.404207206E-1,7.519238663E-1,1.425250044E0,1.699641652E0
2.370969208E0,-9.424284911E-1,1.349403471E0,1.601857007E0,2.296738353E0
2.380960208E0,-1.402754636E0,1.515506496E0,1.729739707E0,2.693785433E0
2.390951208E0,-1.705020602E0,1.240230693E0,1.842616696E0,2.800089948E0
2.400942208E0,-1.856351221E0,5.668074507E-1,2.027213295E0,2.806582314E0
2.410933208E0,-1.722017874E0,-1.950245225E-1,2.193664228E0,2.795629244E0
2.420924208E0,-1.582470564E0,-5.143702054E-1,2.202754310E0,2.760600721E0
2.430915208E0,-1.864261335E0,-6.748102015E-1,2.298479662E0,3.035432076E0
2.440906208E0,-2.087660056E0,-5.713770497E-1,2.819605156E0,3.554570224E0
2.450897208E0,-2.324343066E0,-5.349816406E-1,3.109630560E0,3.919002203E0
2.460888208E0,-3.002007294E0,-8.147831887E-1,3.294692597E0,4.531105687E0
2.470879208E0,-3.121533152E0,-7.926941621E-1,3.519867117E0,4.770932590E0
2.480870208E0,-3.684690771E0,-1.587277560E0,3.856307135E0,5.564845088E0
2.490861208E0,-5.154503615E0,-3.695683537E0,2.802752311E0,6.934147737E0
2.500852208E0,-6.027267210E0,-3.356859609E0,2.009708485E0,7.185776551E0
2.510842750E0,-5.162709013E0,-2.533577492E0,1.486416013E0,5.939866314E0
2.520833750E0,-4.727526480E0,-2.435927237E0,2.118686332E-1,5.322418289E0
2.530824750E0,-3.757669285E0,-1.328170477E0,2.652934366E-1,3.994307935E0
2.540815750E0,-2.787019207E0,-4.323010254E-1,1.711111647E-1,2.825533449E0
2.550806750E0,-2.371756968E0,-3.653363729E-1,-5.553513665E-2,2.400372041E0
2.560798750E0,-1.848413626E0,3.174862683E-2,1.949455669E-1,1.858936438E0
2.570789750E0,-1.616889029E0,5.512509334E-1,6.130788070E-1,1.814958222E0
2.580780750E0,-1.530130967E0,7.834473753E-1,9.545199484E-1,1.966265215E0
2.590771750E0,-1.253896220E0,1.111039971E0,6.227922016E-1,1.787326404E0
2.600762750E0,-1.052770128E0,1.222806575E0,-2.550206462E-2,1.613763061E0
2.610753750E0,-6.667445523E-1,1.292579060E0,-4.790144312E-1,1.531262143E0
2.620744750E0,-2.674539828E-1,1.375916501E0,-7.249974382E-1,1.578068166E0
2.630735750E0,-8.358010054E-3,1.201324489E0,-8.040178800E-1,1.445577786E0
2.640726750E0,2.343306756E-1,9.772141618E-1,-1.233674794E0,1.591166830E0
2.650717750E0,5.318621510E-1,6.911853290E-1,-1.919871279E0,2.108677366E0
2.660708750E0,6.701569873E-1,7.516443694E-1,-2.198984610E0,2.418597312E0
2.670699750E0,5.510649920E-1,1.219410512E0,-2.420254360E0,2.765549817E0
2.680690750E0,2.637550342E-1,1.227773200E0,-2.962035728E0,3.217242515E0
2.690681750E0,1.458576250E-1,1.306497188E0,-3.000984616E0,3.276296386E0
2.700672750E0,8.183587611E-2,1.564196845E0,-2.921048500E0,3.314503465E0
2.710663750E0,-2.181186855E-2,1.401298095E0,-2.949129753E0,3.265191941E0
2.720654750E0,1.495437098E-1,1.354613340E0,-3.255876440E0,3.529599413E0
2.730645750E0,4.628427869E-1,1.203450537E0,-3.216968483E0,3.465747085E0
2.740636750E0,1.057245587E0,1.098923371E0,-2.843902676E0,3.226946426E0
2.750627750E0,1.660143807E0,7.048631358E-1,-2.492211365E0,3.076365874E0
2.760618750E0,2.021687676E0,2.388950121E-1,-2.238073246E0,3.025436124E0
2.770609750E0,2.464661039E0,1.127074206E-1,-2.034509450E0,3.197887694E0
2.780600750E0,2.641639885E0,-1.360810804E-1,-1.908953943E0,3.262036863E0
2.790591750E0,2.788740043E0,-3.668665892E-1,-1.753239666E0,3.314439839E0
2.800582750E0,2.895026636E0,-5.453481692E-1,-1.434700314E0,3.276728375E0
2.810573750E0,2.975377319E0,-6.035209483E-1,-1.291335942E0,3.299190241E0
2.820564750E0,3.198769609E0,-6.544753397E-1,-1.172966663E0,3.469339385E0
2.830555750E0,3.326142431E0,-6.619258618E-1,-1.110254105E0,3.568477756E0
2.840546750E0,3.339255981E0,-6.582117105E-1,-1.050538246E0,3.561952242E0
2.850537750E0,3.506521432E0,-3.775886285E-1,-9.533896816E-1,3.653384405E0
2.860528750E0,3.393752031E0,-6.331113678E-1,-1.265547382E0,3.676954314E0
2.870519750E0,3.179390767E0,-4.274209392E-1,-1.430027804E0,3.512291820E0
2.880510750E0,2.826804247E0,-4.937277800E-1,-1.725005216E0,3.348168510E0
2.890501750E0,2.942212497E0,-7.531599677E-1,-2.034579617E0,3.655595510E0
2.900492750E0,3.322044702E0,-1.615492129E0,-2.386051657E0,4.397617347E0
2.910483750E0,3.507889096E0,-2.520809512E0,-2.726387089E0,5.108126180E0
2.920475750E0,3.695971220E0,-2.723364079E0,-2.628176671E0,5.290012077E0
2.930466750E0,3.637669217E0,-2.660132874E0,-1.876128843E0,4.881475563E0
2.940457750E0,3.716179782E0,-2.605910473E0,-8.830125940E-1,4.623902335E0
2.950448750E0,3.481536865E0,-2.217508004E0,-1.358594801E-1,4.129999817E0
2.960439750E0,2.618079114E0,-1.674337923E0,4.536503792E-1,3.140628025E0
2.970430750E0,1.538314145E0,-7.397692591E-1,1.075264367E0,2.017390003E0
2.980421750E0,3.918891639E-1,1.430918920E-1,1.678617500E0,1.729684687E0
2.990412750E0,-5.533863366E-1,9.393663043E-1,1.927511251E0,2.214485293E0
3.000403750E0,-1.361604272E0,1.868317548E0,1.949742365E0,3.024247335E0
3.010394750E0,-1.906416251E0,2.577469617E0,2.068143804E0,3.815100437E0
3.020385750E0,-2.486892153E0,2.951363974E0,1.980042636E0,4.337712615E0
3.030376750E0,-3.858652453E0,2.733659856E0,1.474705210E0,4.953468524E0
3.040367750E0,-4.139098365E0,2.591668995E0,1.278305422E0,5.048063808E0
3.050358750E0,-4.181101838E0,2.020203652E0,1.168253807E0,4.788282817E0
3.060349750E0,-4.302384785E0,8.644178635E-1,7.648660934E-1,4.454520538E0
3.070340750E0,-4.359868178E0,-5.022366482E-1,6.238370991E-1,4.432816814E0
3.080331750E0,-4.190687764E0,-1.791838306E0,5.007450600E-1,4.585116581E0
3.090322750E0,-3.522855629E0,-2.281524491E0,3.399653041E-1,4.210871904E0
3.100313750E0,-3.009308712E0,-2.366960497E0,1.783798019E-1,3.832787533E0
3.110304750E0,-2.808876684E0,-2.456739816E0,-1.907993976E-1,3.736544281E0
3.120295750E0,-2.816817203E0,-2.526605272E0,-3.894502171E-1,3.803927553E0
3.130286750E0,-3.070050173E0,-2.512156802E0,8.911514796E-2,3.967881220E0
3.140277750E0,-3.082023516E0,-2.587821527E0,9.133993312E-1,4.126740548E0
3.150268750E0,-2.516350425E0,-2.457908674E0,1.722753453E0,3.916786180E0
3.160259750E0,-2.312331716E0,-2.125287473E0,2.532740171E0,4.034662016E0
3.170250750E0,-2.066582597E0,-1.569355844E0,3.116906251E0,4.055705361E0
3.180241750E0,-1.909903530E0,-8.883043242E-1,3.190914459E0,3.823447548E0
3.190232750E0,-1.952316309E0,-2.227350622E-1,3.027301179E0,3.609113784E0
3.200223750E0,-1.906778778E0,1.144270867E-1,2.648103397E0,3.265172349E0
3.210214750E0,-1.935504979E0,4.954509544E-1,2.299390951E0,3.046120470E0
3.220205750E0,-1.769240572E0,1.247802252E0,2.402558931E0,3.234116893E0
3.230196750E0,-9.606215179E-1,1.747007119E0,2.028376744E0,2.844141310E0
3.240187750E0,-7.246454358E-2,1.831009973E0,9.257906775E-1,2.053031176E0
3.250179750E0,3.789527839E-1,1.879339550E0,1.353512017E-1,1.921937122E0
3.260170750E0,7.385296494E-1,2.008040859E0,3.745010063E-2,2.139873044E0
3.270161750E0,1.542085599E0,2.125958734E0,9.833701104E-3,2.626371115E0
3.280152750E0,2.265694908E0,2.292391541E0,-7.201357707E-2,3.223913515E0
3.290143750E0,2.464789093E0,2.298574387E0,1.602813904E-1,3.374065739E0
3.300134750E0,2.130068741E0,2.201547444E0,2.079503775E-1,3.070382281E0
3.310125750E0,1.333517756E0,2.279764479E0,-1.944316149E-2,2.641206868E0
3.320116750E0,7.424624866E-1,2.025854986E0,3.213132709E-2,2.157862691E0
3.330107750E0,7.388494921E-1,2.093755778E0,1.330324884E-1,2.224277292E0
3.340098750E0,4.891856629E-1,1.916283427E0,-2.534018080E-1,1.993905029E0
3.350089750E0,-2.113084334E-1,1.002027406E0,-4.255321424E-1,1.108957971E0
3.360080750E0,-2.211779487E-1,4.488410443E-1,-5.709965421E-1,7.592200071E-1
3.370071750E0,-5.483518839E-3,-8.401337922E-2,-7.434019880E-1,7.481542840E-1
3.380062750E0,2.651080799E-1,-4.633778071E-1,-7.517586824E-1,9.220316713E-1
3.390053750E0,6.610306531E-1,-5.572431600E-1,-5.926278779E-1,1.048183794E0
3.400044750E0,1.061174916E0,-4.712715483E-1,-6.568013620E-1,1.334007910E0
3.410035750E0,1.407988479E0,-4.004296070E-1,-1.338179741E0,1.983305435E0
3.420026750E0,2.159568529E0,-1.970318717E-1,-2.440885091E0,3.265038716E0
3.430017750E0,3.141551680E0,2.808499539E-1,-3.017032299E0,4.364711623E0
3.440008750E0,4.295516646E0,8.029408228E-1,-3.009422733E0,5.305921447E0
3.449999750E0,5.153668633E0,8.589431155E-1,-2.409514486E0,5.753593983E0
3.459990750E0,5.880932452E0,1.010024058E0,-1.464426097E0,6.144107657E0
3.469981750E0,6.137839812E0,1.372009977E0,-9.409336504E-1,6.359311682E0
3.479972750E0,5.541617943E0,1.523448184E0,-1.188807939E0,5.868874518E0
3.489963750E0,5.264351163E0,9.646578509E-1,-1.764507397E0,5.635374370E0
3.499954750E0,5.406940779E0,-1.227039374E0,-2.328189218E0,6.013409952E0
3.509945750E0,4.681765001E0,-2.218609035E0,-1.401760025E0,5.367129656E0
3.519937125E0,3.022352096E0,-2.252638661E0,-1.456357816E0,4.041035909E0
3.529928125E0,1.218566759E0,-1.889729467E0,-2.436735760E0,3.315669400E0
3.539919125E0,-2.256370354E-1,-1.841316276E0,-2.549498291E0,3.152982593E0
3.549910125E0,-8.207099265E-1,-2.198923799E0,-1.570973622E0,2.824320941E0
3.559901125E0,-1.311705887E0,-2.398869338E0,-8.551903725E-1,2.864698415E0
3.569892125E0,-1.951273166E0,-2.339009637E0,-9.252413316E-1,3.183473665E0
3.579883125E0,-1.678242694E0,-2.073660652E0,-4.667216836E-1,2.708209033E0
3.589875125E0,-1.797114834E0,-1.896814538E0,2.071232303E0,3.334296083E0
3.599866125E0,-5.969609571E-1,-9.303615922E-1,3.749434651E0,3.908989035E0
3.609857125E0,-6.543630731E-1,1.434801471E-1,4.337987312E0,4.389409015E0
3.619848125E0,-1.271777591E0,5.989671367E-1,4.690799826E0,4.896915650E0
3.629839125E0,-1.560589113E0,7.585891074E-1,4.713799556E0,5.023027182E0
3.639830125E0,-1.510446900E0,8.138528967E-1,4.629371610E0,4.937093059E0
3.649821125E0,-1.260428730E0,8.336322731E-1,4.335323321E0,4.591149273E0
3.659812125E0,-9.167428422E-1,8.181886071E-1,4.271291631E0,4.444522723E0
3.669803125E0,-7.430653346E-1,6.713275999E-1,4.323821847E0,4.438272435E0
3.679794125E0,-4.767451268E-1,9.204926616E-1,4.096174539E0,4.225309280E0
3.689785125E0,-5.450990778E-1,7.085386956E-1,3.956099811E0,4.055845880E0
3.699776125E0,-6.765269440E-1,2.402059579E-1,4.037377278E0,4.100707608E0
3.709767125E0,-7.184871483E-1,-8.610025048E-3,4.202882717E0,4.263862222E0
3.719758125E0,-9.499123424E-1,-2.908714968E-1,4.299778097E0,4.413052387E0
3.729749125E0,-9.702945668E-1,-4.339505249E-1,4.232937405E0,4.364349170E0
3.739740125E0,-7.808646601E-1,-5.106361735E-1,3.911099639E0,4.020845596E0
3.749731125E0,-3.125763613E-1,-3.984053010E-1,3.626111318E0,3.661299504E0
3.759722125E0,1.319593781E-1,-2.653466463E-1,3.596632873E0,3.608821157E0
3.769713125E0,3.393104160E-1,-1.818630248E-1,3.615973123E0,3.636408578E0
3.779704125E0,3.948057550E-1,-1.672502482E-1,3.524513315E0,3.550498322E0
3.789695125E0,3.171401131E-1,-1.940579778E-1,3.206073951E0,3.227560461E0
3.799686125E0,2.050279391E-1,-1.124665153E-1,2.630734828E0,2.641107894E0
3.809677125E0,2.815609753E-2,-1.315915883E-2,2.119368629E0,2.119596498E0
3.819668125E0,-5.827452064E-2,1.790417433E-2,1.696918116E0,1.698012830E0
3.829659125E0,-1.033232242E-1,-1.256800532E-2,1.331316279E0,1.335378852E0
3.839650125E0,1.681132972E-2,1.112450320E-1,9.576651657E-1,9.642513404E-1
3.849641125E0,-4.664908648E-3,2.441154063E-1,7.729188788E-1,8.105662750E-1
3.859632125E0,2.522839665E-2,4.939359409E-1,6.360238659E-1,8.056894834E-1
3.869623125E0,-2.127772540E-1,7.556853801E-1,3.843070793E-1,8.740860854E-1
3.879615125E0,-6.916034049E-1,8.821589005E-1,-6.981575489E-3,1.120967590E0
3.889606125E0,-1.191573672E0,9.241237825E-1,-4.725263242E-1,1.580232169E0
3.899597125E0,-1.939759998E0,7.567402178E-1,-1.002712115E0,2.311007614E0
3.909588125E0,-2.664684346E0,3.704100019E-1,-1.744637243E0,3.206478652E0
3.919579125E0,-3.370870707E0,-2.536913913E-1,-2.817137046E0,4.400385185E0
3.929570125E0,-3.436008105E0,-3.045493037E-1,-3.565958380E0,4.961346706E0
3.939561125E0,-3.165915858E0,3.522614139E-1,-4.135530978E0,5.220127182E0
3.949552125E0,-4.051259152E0,-6.309636855E-1,-4.597616551E0,6.160267351E0
3.959543125E0,-2.995451980E0,-1.902747123E0,-4.424709706E0,5.671969249E0
3.969534125E0,-2.652343798E-1,-9.536060286E-1,-4.105330110E0,4.222966853E0
3.979525125E0,5.354909331E-1,2.547409666E-1,-3.247100354E0,3.300803571E0
3.989516125E0,8.147428429E-1,3.848216343E-1,-2.023497974E0,2.215047999E0
3.999507125E0,1.604104677E0,3.584273028E-1,-1.214451488E0,2.043652212E0
4.009498125E0,2.057479067E0,2.967795235E-1,-6.605329820E-1,2.181192797E0
4.019489125E0,2.401566074E0,3.467960215E-1,-3.197537820E-1,2.447453691E0
4.029480125E0,2.620512140E0,3.638044024E-1,2.460749544E-2,2.645759447E0
4.039471125E0,3.018682968E0,4.503262371E-1,3.236493067E-1,3.069200133E0
4.049462125E0,3.479988522E0,5.008198678E-1,5.803759877E-1,3.563422083E0
4.059453125E0,3.611668403E0,4.478973037E-1,8.531321526E-1,3.737993462E0
4.069444125E0,3.641576911E0,4.342194968E-1,1.137236740E0,3.839653158E0
4.079435125E0,3.917109992E0,6.781039381E-1,1.326182570E0,4.190744069E0
4.089426125E0,4.083516487E0,8.549751949E-1,1.376439096E0,4.393253244E0
4.099417125E0,4.180826434E0,9.659781522E-1,1.212082050E0,4.458875011E0
4.109408125E0,4.291722388E0,1.244130201E0,9.508424883E-1,4.568461716E0
4.119399125E0,4.208718238E0,1.617967840E0,8.175027287E-1,4.582514577E0
4.129390125E0,4.340152536E0,1.609712157E0,7.435388128E-1,4.688384288E0
4.139381125E0,4.932235161E0,1.219053247E0,6.525327484E-1,5.122385527E0
4.149372125E0,5.187148036E0,6.977956063E-1,6.913152102E-1,5.279331413E0
4.159363125E0,5.174646689E0,4.269987702E-1,9.599246760E-1,5.280222693E0
4.169354125E0,4.635186666E0,3.242491579E-1,1.232896969E0,4.807299437E0
4.179346125E0,4.130030503E0,4.344691730E-1,1.454879787E0,4.400294377E0
4.189337125E0,3.633613588E0,3.445460129E-1,1.667158127E0,4.012639516E0
4.199328125E0,2.991159539E0,1.483736819E-1,1.830079243E0,3.509735057E0
4.209319125E0,2.226907403E0,-1.226020789E-1,1.990619372E0,2.989433615E0
4.219310125E0,1.171453988E0,-2.828508711E-1,2.170749575E0,2.482833619E0
4.229301125E0,-1.737114215E-1,-3.781739348E-1,2.259799015E0,2.297799550E0
4.239292125E0,-1.542095540E0,-3.765320367E-1,2.159769820E0,2.680380701E0
4.249283125E0,-2.512821631E0,-1.387836635E-1,1.997379777E0,3.212951825E0
4.259274125E0,-3.311358331E0,2.025867265E-1,2.094013202E0,3.923139899E0
4.269265125E0,-3.727754930E0,5.338940585E-1,2.157861142E0,4.340226306E0
4.279256125E0,-3.757989712E0,5.971392971E-1,1.851287094E0,4.231586691E0
4.289247125E0,-3.217267860E0,4.457005048E-1,1.333137394E0,3.510942429E0
4.299238125E0,-2.779009691E0,-1.296824723E-1,1.051317680E0,2.974051323E0
4.309229125E0,-2.473138917E0,-6.457477856E-1,1.062161926E0,2.767958501E0
4.319220125E0,-2.501045339E0,-1.240340620E0,1.312511195E0,3.084859523E0
4.329211125E0,-2.382504151E0,-1.595318066E0,1.666591824E0,3.316458061E0
4.339202125E0,-1.710693571E0,-8.331756055E-1,2.118351214E0,2.847466584E0
4.349193125E0,-2.545403486E0,-1.533139944E0,2.284682572E0,3.748249118E0
4.359184125E0,-2.872862180E0,-2.510462864E0,2.467400167E0,4.543547566E0
4.369175125E0,-1.514128892E0,-2.076433402E0,2.771420590E0,3.779541515E0
4.379166125E0,-1.118194039E0,-1.360001550E0,3.033902686E0,3.507781012E0
4.389157125E0,-1.102677283E0,-1.078087987E0,3.303372788E0,3.645605941E0
4.399148125E0,-8.060047638E-1,-7.458655661E-1,3.271362791E0,3.450764210E0
4.409139125E0,-5.451195431E-1,-4.926325965E-1,3.123584940E0,3.208835470E0
4.419130125E0,-2.115247804E-1,-1.018298453E-1,3.155706620E0,3.164426697E0
4.429121125E0,1.135342169E-1,1.954952234E-1,3.350682318E0,3.358300224E0
4.439112125E0,5.271691757E-1,6.164187366E-1,3.341339637E0,3.438376065E0
4.449104125E0,8.843399119E-1,9.727129751E-1,3.113714548E0,3.379858858E0
4.459095125E0,1.317341434E0,1.216400365E0,2.715491680E0,3.254061058E0
4.469086125E0,1.867800654E0,1.620613121E0,2.044695885E0,3.208714296E0
4.479077125E0,2.160238620E0,1.919390053E0,1.611092392E0,3.308520480E0
4.489068125E0,2.341136270E0,1.979759631E0,1.302436589E0,3.331172211E0
4.499059125E0,2.429177796E0,1.992429963E0,1.338825566E0,3.415133352E0
4.509050125E0,2.409763870E0,2.024811258E0,1.240115064E0,3.383002795E0
4.519041583E0,2.505601489E0,1.992015980E0,7.599798676E-1,3.289944663E0
4.529032583E0,2.505263520E0,1.860474678E0,-3.207343966E-2,3.120695441E0
4.539023583E0,1.912716626E0,1.448407357E0,-4.315812331E-1,2.437751243E0
4.549014583E0,1.024592981E0,1.050031292E0,-6.648259346E-1,1.610698611E0
4.559005583E0,1.556388474E-1,9.090081453E-1,-6.301126233E-1,1.116942781E0
4.568996583E0,-3.954004169E-1,7.114868617E-1,-3.254209399E-1,8.766149851E-1
4.578987583E0,-5.803928715E-1,4.736624748E-1,1.115802236E-1,7.574048928E-1
4.588978583E0,-6.877875119E-1,2.313994664E-1,4.919721535E-1,8.767177279E-1
4.598969583E0,-8.022064126E-1,9.436996758E-2,6.754095411E-1,1.052909715E0
4.608960583E0,-7.988881177E-1,2.861159563E-2,9.177720983E-1,1.217105777E0
4.618951583E0,-6.168578625E-1,4.702330828E-2,1.264360690E0,1.407598227E0
4.628942583E0,-2.108652145E-1,1.273073334E-1,1.377006130E0,1.398862816E0
4.638933583E0,2.032866383E-1,2.091490567E-1,1.254113152E0,1.287582457E0
4.648924583E0,6.200481033E-1,8.024835706E-2,9.042428108E-1,1.099342763E0
4.658915583E0,1.078883209E0,-7.459643841E-2,4.179101506E-1,1.159397473E0
4.668906583E0,1.601912556E0,1.681717694E-2,-1.860244882E-1,1.612765254E0
4.678897583E0,2.062008905E0,2.331279033E-1,-9.834654200E-1,2.296395780E0
4.688888583E0,2.629564215E0,6.621363616E-1,-2.187695975E0,3.484113403E0
4.698879583E0,3.522904746E0,1.221592693E0,-3.324581809E0,4.995597138E0
4.708870583E0,4.628685731E0,1.501031713E0,-2.802181330E0,5.615162332E0
4.718862583E0,5.183007622E0,1.472879709E0,-9.403632545E-1,5.469664131E0
4.728853583E0,5.184360668E0,1.326701657E0,4.452067074E-1,5.369910785E0
4.738844583E0,4.636281849E0,8.708825451E-1,7.467900109E-1,4.776111505E0
4.748835583E0,4.040421338E0,4.741056937E-1,2.985823663E-1,4.079084729E0
4.758826583E0,3.337867268E0,1.678145045E-1,-1.156915471E-1,3.344084948E0
4.768817583E0,2.919920572E0,1.905549109E-2,1.680343598E-3,2.919983233E0
4.778808583E0,2.450480956E0,8.093540490E-2,2.739848842E-1,2.467078267E0
4.788799583E0,2.069872241E0,-4.269245106E-1,7.862898530E-1,2.254969482E0
4.798790583E0,2.278282794E0,-1.445199575E0,8.040373220E-1,2.815253153E0
4.808781583E0,2.043084392E0,-1.567684125E0,8.085447943E-1,2.699179881E0
4.818772583E0,1.476552345E0,-1.397276380E0,7.054193522E-1,2.151791015E0
4.828763583E0,9.010682112E-1,-1.019315869E0,1.196748604E0,1.811942599E0
4.838754583E0,6.314992905E-1,-1.177011182E0,2.033562055E0,2.433006639E0
4.848745583E0,3.136329532E-1,-1.674282959E0,2.259339424E0,2.829523580E0
4.858736583E0,-2.197138059E-1,-2.402122144E0,1.324614054E0,2.751920665E0
4.868727583E0,-7.284432024E-1,-2.673276830E0,-9.448575707E-1,2.927421107E0
4.878718583E0,-1.056893000E0,-2.108769089E0,-1.357788963E0,2.721676093E0
4.888709583E0,-1.007234352E0,-4.915397519E-1,2.308307662E0,2.566011814E0
4.898700583E0,-1.079688955E0,8.022999680E-1,4.129301063E0,4.342872407E0
4.908691583E0,-1.142053603E0,1.140285990E0,4.217831416E0,4.516042562E0
4.918682583E0,-1.612075601E0,1.039337320E0,4.110921217E0,4.536373338E0
4.928673583E0,-1.940131297E0,7.234566969E-1,3.904364816E0,4.419452868E0
4.938664583E0,-2.082013400E0,3.752930117E-1,3.676342994E0,4.241594329E0
4.948655583E0,-1.185958006E0,4.955918723E-1,3.288420289E0,3.530696205E0
4.958646583E0,-5.856103420E-2,5.903717297E-1,3.881485831E0,3.926563437E0
4.968638583E0,9.719487441E-1,4.126777697E-1,4.096703420E0,4.230598801E0
4.978629583E0,1.652582188E0,3.083616883E-1,3.674197358E0,4.040524847E0
4.988620583E0,1.825958564E0,4.988247979E-1,3.486521616E0,3.967213611E0
4.998611583E0,1.758097533E0,8.009516001E-1,3.535117825E0,4.028583925E0
5.008602583E0,1.756747411E0,7.710740823E-1,3.709777665E0,4.176501770E0
5.018593583E0,1.712537198E0,6.381481594E-1,3.883237656E0,4.291800487E0
5.028584583E0,1.607269775E0,4.529761952E-1,4.132123221E0,4.456786497E0
5.038575583E0,1.404496522E0,3.281831646E-1,3.998094806E0,4.250303136E0
5.048566583E0,1.081505100E0,3.626478231E-1,3.603587551E0,3.779816128E0
5.058557583E0,6.906228268E-1,5.665332162E-1,3.294235929E0,3.413196468E0
5.068548583E0,4.367624509E-1,7.215984517E-1,2.945644813E0,3.064031515E0
5.078539583E0,2.892582500E-1,8.599196005E-1,2.534724716E0,2.692203826E0
5.088530583E0,1.292579645E-1,9.206201309E-1,2.328548530E0,2.507266899E0
5.098521583E0,-2.245740116E-2,1.007876376E0,2.028499682E0,2.265199789E0
5.108512583E0,-1.754082835E-1,1.014874908E0,1.748319673E0,2.029128094E0
5.118503583E0,-3.871353775E-1,9.588755393E-1,1.573438808E0,1.882823885E0
5.128494583E0,-3.016338819E-1,9.668172276E-1,1.388404984E0,1.718542101E0
5.138485583E0,-4.247861838E-1,8.668649232E-1,1.378592187E0,1.682977871E0
5.148476583E0,-5.225908059E-1,7.557672411E-1,1.354386030E0,1.636657200E0
5.158467583E0,-6.045430416E-1,6.442830580E-1,1.310316589E0,1.580348857E0
5.168458583E0,-6.620650256E-1,5.422813046E-1,1.294847195E0,1.552104497E0
5.178449583E0,-6.825975233E-1,4.105511373E-1,1.284751393E0,1.511647365E0
5.188440583E0,-7.848407668E-1,2.020277327E-1,1.309681581E0,1.540148070E0
5.198431583E0,-9.380986279E-1,2.161756557E-1,1.328361096E0,1.640519476E0
5.208422583E0,-1.004669178E0,3.335766363E-1,1.131831501E0,1.549734195E0
5.218414583E0,-1.073775081E0,5.727143079E-1,8.543694965E-1,1.486923616E0
5.228405583E0,-1.064609571E0,7.318065208E-1,5.216405968E-1,1.393213276E0
5.238396583E0,-9.984185046E-1,7.638346446E-1,3.460697607E-1,1.303858564E0
5.248387583E0,-9.227602118E-1,5.694012755E-1,3.320178052E-1,1.133992965E0
5.258378583E0,-8.790762484E-1,3.419884408E-1,3.253461321E-1,9.977881788E-1
5.268369583E0,-4.846242499E-1,1.465247923E-1,1.476924813E-1,5.273928777E-1
5.278360583E0,-1.159783530E-1,-6.653605163E-2,2.175529674E-4,1.337089072E-1
5.288351583E0,3.464913815E-1,-2.695162958E-1,-2.797810829E-1,5.205504447E-1
5.298342583E0,8.402618462E-1,-6.529995024E-1,-6.766514897E-1,1.261073177E0
5.308333583E0,1.362426975E0,-8.618725705E-1,-1.156850567E0,1.984271862E0
5.318324583E0,1.907195685E0,-8.945666921E-1,-1.568141377E0,2.626159235E0
5.328315583E0,2.399108489E0,-1.140951403E0,-2.166175883E0,3.427799528E0
5.338306583E0,3.358222595E0,-1.022213749E0,-2.927346536E0,4.570769923E0
5.348297583E0,4.423906884E0,-9.730731636E-1,-3.435062025E0,5.684846050E0
5.358288583E0,5.103792468E0,-9.419776708E-1,-3.659634283E0,6.350507269E0
5.368279583E0,5.432996557E0,-7.772803169E-1,-3.547757167E0,6.535150893E0
5.378270583E0,5.512270183E0,-4.566500008E-1,-3.179985428E0,6.380122187E0
5.388261583E0,5.446256288E0,-2.131877285E-1,-2.628316419E0,6.051049806E0
5.398252583E0,5.568329778E0,-3.916622919E-1,-2.115351300E0,5.969456172E0
5.408243583E0,5.806771047E0,-6.067304850E-1,-1.681741083E0,6.075768670E0
5.418234583E0,5.512009982E0,-3.637248802E-1,-1.153521162E0,5.643151682E0
5.428225583E0,4.683442567E0,-8.375259340E-2,-6.603705025E-1,4.730511386E0
5.438216583E0,4.118977511E0,-3.458686531E-2,-2.800711048E-1,4.128633165E0
5.448207583E0,3.775084632E0,-6.418956399E-2,1.084658504E-1,3.777187991E0
5.458199583E0,3.244981323E0,1.744282901E-2,4.198792005E-1,3.272079856E0
5.468190583E0,2.701241723E0,2.640175742E-1,6.590162873E-1,2.792975939E0
5.478181583E0,1.992828158E0,6.369108886E-1,8.523743534E-1,2.259106369E0
5.488172583E0,1.155409228E0,1.156932428E0,1.033166753E0,1.934139774E0
5.498163583E0,3.169068092E-1,1.694646472E0,1.120527736E0,2.056170956E0
5.508154583E0,-4.370904797E-1,2.233868514E0,1.137808597E0,2.544764238E0
5.518145958E0,-1.164742554E0,2.625001633E0,1.205723934E0,3.114647491E0
5.528136958E0,-1.757012290E0,2.853014392E0,1.213980276E0,3.563780495E0
5.538127958E0,-2.149545817E0,3.185969469E0,1.132667725E0,4.006729945E0
5.548118958E0,-2.427335923E0,3.337141628E0,1.281754256E0,4.321037827E0
5.558109958E0,-3.126848856E0,2.778047825E0,1.466678152E0,4.432367120E0
5.568100958E0,-3.272864356E0,2.220506456E0,1.690750473E0,4.301270414E0
5.578091958E0,-2.750366521E0,1.083159862E0,1.814351256E0,3.468374514E0
5.588082958E0,-2.602959968E0,-1.298719221E-1,1.841113085E0,3.190919100E0
5.598073958E0,-1.744191685E0,1.505155170E-1,2.122812785E0,2.751580214E0
5.608064958E0,-2.460354565E0,-1.035796831E0,2.178067073E0,3.445315056E0
5.618055958E0,-2.907485299E0,-2.473570442E0,1.885073329E0,4.257408008E0
5.628046958E0,-2.942674427E0,-4.048648371E0,1.551056982E0,5.239910703E0
5.638037958E0,-2.567338146E0,-4.675512573E0,1.571450755E0,5.560674460E0
5.648028958E0,-1.982441749E0,-3.978044411E0,2.355974164E0,5.030459908E0
5.658019958E0,-1.986583917E0,-3.374622281E0,3.205959345E0,5.060905701E0
5.668010958E0,-1.923947373E0,-2.906305330E0,3.733295166E0,5.107413922E0
5.678002958E0,-1.762761272E0,-2.171189286E0,4.068248237E0,4.936804021E0
5.687993958E0,-1.929801021E0,-1.503216233E0,4.292926329E0,4.940952084E0
5.697984958E0,-2.139743544E0,-7.700806403E-1,4.159158407E0,4.740266373E0
5.707975958E0,-2.153262892E0,5.703783453E-2,3.724223796E0,4.302282799E0
5.717966958E0,-1.840811076E0,6.426961237E-1,3.087651461E0,3.651744141E0
5.727957958E0,-1.606587405E0,1.119465809E0,2.698463126E0,3.334071090E0
5.737948958E0,-9.989833456E-1,1.556156924E0,2.380539633E0,3.014392317E0
5.747939958E0,-3.685482484E-1,1.630024214E0,1.810796149E0,2.464100129E0
5.757930958E0,2.823024023E-1,1.559752961E0,8.185178053E-1,1.783954973E0
5.767921958E0,1.602995460E0,2.061653395E0,-1.227680521E0,2.885690321E0
5.777912958E0,3.188914127E0,2.763132162E0,-3.092725967E0,5.231541509E0
5.787903958E0,4.096140041E0,3.047913784E0,-3.021619147E0,5.932817538E0
5.797894958E0,3.816653658E0,2.992313780E0,-2.322844863E0,5.377396690E0
5.807885958E0,2.941462884E0,3.049635204E0,-1.588269832E0,4.524939760E0
5.817876958E0,2.522620980E0,2.908433717E0,-1.309810805E0,4.066719518E0
5.827867958E0,2.260314885E0,2.673796062E0,-1.386126032E0,3.765574875E0
5.837858958E0,1.775340387E0,2.045726164E0,-1.344706403E0,3.024080743E0
5.847849958E0,6.093658251E-1,1.073680941E0,-1.032339080E0,1.609298433E0
5.857840958E0,-6.410197270E-1,2.483037668E-1,-2.562051094E-1,7.336225931E-1
5.867831958E0,-1.550277548E0,-4.151739460E-1,4.193140671E-1,1.658780929E0
5.877822958E0,-2.081518140E0,-7.532055759E-1,7.565281101E-1,2.339309982E0
5.887813958E0,-2.163128314E0,-1.030453645E0,1.157258410E0,2.660865620E0
5.897804958E0,-1.816169740E0,-7.643936384E-1,1.261548471E0,2.339716800E0
5.907796958E0,-1.311810552E0,-3.500125748E-1,1.272968230E0,1.861129722E0
5.917787958E0,-7.345862871E-1,-3.999928200E-1,1.295973369E0,1.542452023E0
5.927778958E0,-2.108201909E-1,-7.349090534E-1,1.360770020E0,1.560843207E0
5.937769958E0,2.146664894E-1,-8.628239125E-1,1.162708746E0,1.463707086E0
5.947760958E0,6.406975454E-1,-8.176758063E-1,4.474081841E-1,1.131044275E0
5.957751958E0,1.365579209E0,-6.333645523E-1,-8.896830976E-1,1.748568914E0
5.967742958E0,2.538707255E0,-1.403986645E-1,-2.661816287E0,3.681034128E0
5.977733958E0,4.160954672E0,4.478815162E-1,-3.844795722E0,5.683009394E0
5.987724958E0,5.631730553E0,7.236087245E-1,-3.029665793E0,6.435749640E0
5.997715958E0,6.628027103E0,1.134043502E0,-2.048161237E0,7.029350069E0
6.007706958E0,6.511804336E0,1.409717501E0,-2.334401739E0,7.059768454E0
6.017697958E0,6.388940302E0,2.040330353E0,-3.430433954E0,7.533218651E0
6.027688958E0,6.068148018E0,2.690624349E0,-4.793322859E0,8.187662901E0
6.037679958E0,5.240861728E0,2.721839125E0,-5.380957507E0,7.989351887E0
6.047670958E0,5.043962588E0,2.961597186E-1,-4.132048377E0,6.527104485E0
6.057661958E0,5.140725237E0,-1.881925773E0,-2.389952334E0,5.973321750E0
6.067652958E0,3.554693719E0,-1.431731683E0,-1.457119124E0,4.099865752E0
6.077643958E0,2.127573735E0,-1.680588596E0,-1.379373521E0,3.041976222E0
6.087634958E0,1.318160629E0,-2.100819215E0,-6.179233713E-1,2.555937814E0
6.097625958E0,4.332061744E-1,-2.568140384E0,7.668740273E-2,2.605550533E0
6.107616958E0,-7.792935133E-1,-2.374482356E0,3.679724438E-1,2.526038115E0
6.117607958E0,-1.890941595E0,-1.898092155E0,8.534363540E-1,2.811897501E0
6.127599958E0,-2.347606214E0,-1.570321804E0,2.107790411E0,3.524194365E0
6.137590958E0,-2.804119390E0,-1.217825332E0,3.845562876E0,4.912691516E0
6.147581958E0,-3.537150317E0,-1.217088583E0,4.642427273E0,5.961951691E0
6.157572958E0,-3.635973524E0,-1.200903490E0,4.475563233E0,5.890088193E0
6.167563958E0,-3.139139119E0,-7.853044510E-1,4.449717078E0,5.501897815E0
6.177554958E0,-4.160345392E0,-1.991792032E0,4.311631572E0,6.313942991E0
6.187545958E0,-2.838895120E0,-1.727809541E0,4.620351695E0,5.691423468E0
6.197536958E0,-2.574002218E0,-9.387950313E-1,5.097408478E0,5.787088795E0
6.207527958E0,-2.242828787E0,-7.246401733E-1,5.210374346E0,5.718687364E0
6.217518958E0,-1.799581774E0,-6.132641637E-1,5.063273603E0,5.408449600E0
6.227509958E0,-1.664788835E0,-7.418818581E-1,4.943437257E0,5.268726836E0
6.237500958E0,-1.498784629E0,-8.236586773E-1,5.036310922E0,5.318758942E0
6.247491958E0,-1.232067980E0,-6.011914176E-1,4.912332408E0,5.100042384E0
6.257482958E0,-9.586276174E-1,-2.352779245E-1,4.884230690E0,4.982974217E0
6.267473958E0,-7.135281247E-1,-2.808639872E-1,4.630219456E0,4.693286607E0
6.277464958E0,-3.719793946E-1,-2.352083427E-1,4.182677078E0,4.205767371E0
6.287455958E0,-2.318204659E-1,-3.193965536E-1,3.704754907E0,3.725716549E0
6.297446958E0,-1.714140505E-1,-4.858983582E-1,3.002279774E0,3.046171997E0
6.307437958E0,-9.100021720E-2,-2.948458493E-1,2.316856291E0,2.337314311E0
6.317428958E0,-1.430509615E-1,-1.075396514E-1,1.716757718E0,1.726060665E0
6.327419958E0,-1.448530734E-1,-2.366017342E-2,1.253583394E0,1.262146403E0
6.337411958E0,-2.337430304E-1,1.017824829E-2,9.251524539E-1,9.542779805E-1
6.347402958E0,-3.539606148E-1,4.811205983E-2,5.384290127E-1,6.461491228E-1
6.357393958E0,-3.382813060E-1,3.624981344E-2,3.132463060E-2,3.416570261E-1
6.367384958E0,-3.186071795E-1,5.496792018E-2,-4.695652577E-1,5.701083566E-1
6.377375958E0,-4.786027873E-1,7.953499675E-2,-8.724980577E-1,9.983182380E-1
6.387366958E0,-8.876237082E-1,4.467857480E-2,-1.283766721E0,1.561386889E0
6.397357958E0,-1.230550627E0,-4.786530733E-3,-2.030704082E0,2.374455059E0
6.407348958E0,-1.729309936E0,-7.666869164E-3,-2.876782154E0,3.356552874E0
6.417339958E0,-2.294577815E0,7.634884894E-2,-3.773753221E0,4.417253657E0
6.427330958E0,-2.455047632E0,3.009947813E-1,-4.555642898E0,5.183795805E0
6.437321958E0,-2.537137277E0,5.836977178E-1,-5.044022230E0,5.676260111E0
6.447312958E0,-2.453037944E0,8.790516901E-1,-5.190750505E0,5.808099331E0
6.457303958E0,-2.180720247E0,9.938173306E-1,-4.865194495E0,5.423405863E0
6.467294958E0,-1.638451222E0,9.855476135E-1,-4.361299576E0,4.762012232E0
6.477285958E0,-1.016437869E0,9.035936236E-1,-3.648753784E0,3.893973748E0
6.487276958E0,-3.957693762E-1,8.541612625E-1,-2.863788471E0,3.014549596E0
6.497267958E0,2.426091635E-1,7.799758834E-1,-2.157979256E0,2.307400280E0
6.507258958E0,8.322418052E-1,7.787625861E-1,-1.503834869E0,1.886959698E0
6.517249750E0,1.239234912E0,7.699824071E-1,-9.150600135E-1,1.722182018E0
6.527240750E0,1.551987274E0,6.757416630E-1,-4.551297247E-1,1.752836091E0
6.537231750E0,2.003228601E0,5.591435051E-1,-1.364166923E-1,2.084268649E0
6.547222750E0,2.540466097E0,3.843947875E-1,5.614383180E-2,2.569996006E0
6.557214750E0,2.975860299E0,7.523963213E-2,1.546238073E-1,2.980824390E0
6.567205750E0,3.482743730E0,-8.573363006E-2,2.771240715E-1,3.494803556E0
6.577196750E0,3.849471155E0,-1.534455568E-1,3.809004549E-1,3.871312293E0
6.587187750E0,4.041323563E0,-1.102667928E-1,5.681143034E-1,4.082549298E0
6.597178750E0,4.072433090E0,-5.302839875E-3,7.213499451E-1,4.135829437E0
6.607169750E0,3.865741618E0,2.585667998E-1,7.005302759E-1,3.937201762E0
6.617160750E0,3.586006143E0,6.354362208E-1,4.345171567E-1,3.667700152E0
6.627151750E0,3.366106980E0,9.693671983E-1,7.358954787E-2,3.503678694E0
6.637142750E0,3.397542781E0,1.033540975E0,-3.221850908E-1,3.565852932E0
6.647133750E0,4.035971607E0,1.403776145E-1,-5.916038112E-1,4.081515375E0
6.657124750E0,4.808194667E0,-7.290758711E-1,-1.018075089E0,4.968577711E0
6.667115750E0,4.974821017E0,-8.106860447E-1,-1.515121164E0,5.263235522E0
6.677106750E0,4.307422746E0,-6.328856653E-1,-1.679624391E0,4.666430443E0
6.687097750E0,4.182815657E0,-7.102267867E-1,-1.626086115E0,4.543624650E0
6.697088750E0,4.304008557E0,-1.213134111E0,-1.291989076E0,4.654612745E0
6.707079750E0,4.011709170E0,-1.375670918E0,-9.470068610E-1,4.345469242E0
6.717070750E0,3.113760449E0,-1.141477652E0,-3.359307253E-1,3.333365389E0
6.727061750E0,1.900358536E0,-6.740056247E-1,4.805172388E-1,2.072810402E0
6.737052750E0,5.317013526E-1,1.648388565E-2,1.153500185E0,1.270252229E0
6.747043750E0,-3.942362362E-1,8.036284554E-1,1.514328282E0,1.759099500E0
6.757034750E0,-1.414413400E0,1.283973128E0,1.971387588E0,2.745090396E0
6.767026750E0,-2.052228268E0,1.694824812E0,2.131046834E0,3.409608866E0
6.777017750E0,-2.506691410E0,1.976350704E0,2.012036115E0,3.773294749E0
6.787008750E0,-3.267322365E0,1.774726430E0,1.738800552E0,4.104689598E0
6.796999750E0,-3.900457122E0,1.404953189E0,1.027588509E0,4.271229023E0
6.806990750E0,-3.832569779E0,9.613594365E-1,6.433537162E-1,4.003336993E0
6.816981750E0,-3.786316549E0,2.087508613E-1,7.497544031E-1,3.865475597E0
6.826972750E0,-3.871992876E0,-6.359881979E-1,8.234971480E-1,4.009358723E0
6.836963750E0,-4.110574477E0,-1.877859619E0,7.023746339E-1,4.573457052E0
6.846954750E0,-3.650369954E0,-2.661828566E0,7.274440594E-1,4.575992458E0
6.856945750E0,-3.275835326E0,-2.675858960E0,1.042063876E0,4.356284585E0
6.866936750E0,-3.240016453E0,-2.716823968E0,1.408688976E0,4.456819911E0
6.876927750E0,-3.352139736E0,-2.609266775E0,1.524552723E0,4.513244390E0
6.886918750E0,-3.265631935E0,-2.542735401E0,1.321772600E0,4.344759839E0
6.896909750E0,-2.819674737E0,-2.404087393E0,1.435842422E0,3.973895479E0
6.906900750E0,-2.288810121E0,-2.069502112E0,1.691853404E0,3.519070716E0
6.916891750E0,-1.808457847E0,-1.726538941E0,1.935263636E0,3.161756132E0
6.926882750E0,-1.386264904E0,-1.304825469E0,2.271501047E0,2.963784219E0
6.936873750E0,-1.399150997E0,-3.455260062E-1,2.947781093E0,3.281223111E0
6.946864750E0,-1.312506371E0,5.178598237E-1,3.299500470E0,3.588531053E0
6.956855750E0,-9.810932046E-1,1.010854363E0,3.455408581E0,3.731516968E0
6.966847750E0,-6.705809104E-1,1.304582809E0,2.992286882E0,3.332475934E0
6.976838750E0,1.202772260E-2,1.758665298E0,2.181009977E0,2.801758878E0
6.986829750E0,1.006048536E0,2.190177534E0,1.207223453E0,2.695626041E0
6.996820750E0,1.627166095E0,2.691271051E0,7.875334096E-1,3.242039211E0
7.006811750E0,2.081704667E0,2.990261407E0,9.790314764E-2,3.644824087E0
7.016802750E0,2.656928015E0,3.071643539E0,-2.821237698E-1,4.071099892E0
7.026793750E0,2.764310961E0,3.115968357E0,-7.919381171E-2,4.166166770E0
7.036784750E0,2.468313210E0,3.142296031E0,4.677699432E-1,4.023108645E0
7.046775750E0,2.269090387E0,3.083065490E0,7.434034498E-1,3.899578527E0
7.056766750E0,2.329322555E0,2.832849684E0,3.565905462E-1,3.684825330E0
7.066757750E0,1.594666101E0,2.044215243E0,4.577916697E-2,2.593042936E0
7.076748750E0,-1.698253620E-1,8.687559128E-1,-6.717822209E-2,8.877445596E-1
7.086739750E0,-1.618587645E0,2.558741570E-3,-9.043303728E-2,1.621114014E0
7.096730750E0,-2.038724708E0,-4.423225683E-1,2.896083520E-1,2.106162550E0
7.106721750E0,-2.030391256E0,-9.628300112E-1,7.982019469E-1,2.384671179E0
7.116712750E0,-1.483491236E0,-9.881174648E-1,7.841721377E-1,1.947318236E0
7.126703750E0,-1.010961367E0,-8.964015484E-1,3.513308296E-1,1.396070189E0
7.136694750E0,-2.805423903E-1,-8.985603404E-1,9.130895019E-2,9.457547475E-1
7.146685750E0,4.691712284E-1,-9.017809868E-1,-3.747331408E-1,1.083399980E0
7.156676750E0,1.106968555E0,-1.028929276E0,-1.283523185E0,1.982802714E0
7.166667750E0,1.905342702E0,-9.576166338E-1,-2.630823998E0,3.386531461E0
7.176659750E0,3.119131116E0,-4.985955870E-1,-3.948932586E0,5.056841410E0
7.186650750E0,4.588756850E0,-2.095197701E-1,-4.204246872E0,6.227060279E0
7.196641750E0,5.938208853E0,-1.893995011E-1,-2.386748060E0,6.402715272E0
7.206632750E0,6.526375598E0,8.649376810E-2,-4.173454557E-1,6.540278040E0
7.216623750E0,6.580658224E0,1.359818532E0,-2.358168916E-1,6.723821734E0
7.226614750E0,6.128402991E0,2.383798140E0,-1.754304883E0,6.805688974E0
7.236605750E0,5.312275527E0,3.008830410E0,-3.452966784E0,7.014008221E0
7.246596750E0,5.412728353E0,2.479698908E0,-3.062117840E0,6.695005644E0
7.256587750E0,6.622183980E0,-5.001158631E-1,-2.397444956E0,7.060536726E0
7.266578750E0,5.741142483E0,-1.551641704E0,-2.296907638E0,6.375272048E0
7.276569750E0,3.501565917E0,-1.686135850E0,-2.788031653E0,4.783005172E0
7.286560750E0,1.700886036E0,-1.583849337E0,-1.370583694E0,2.698164505E0
7.296551750E0,7.199974841E-1,-1.915890495E0,1.686969955E-1,2.053653194E0
7.306542750E0,-2.205008411E-1,-2.708017477E0,3.635250516E-1,2.741191299E0
7.316533750E0,-1.414857203E0,-3.098657675E0,1.156814606E-1,3.408354808E0
7.326524750E0,-2.894781638E0,-2.913550031E0,-1.063186066E-1,4.108508021E0
7.336515750E0,-3.710511491E0,-2.430708597E0,8.080863726E-1,4.508796224E0
7.346506750E0,-3.366606917E0,-9.747162312E-1,2.874354390E0,4.532772554E0
7.356497750E0,-3.352878240E0,-8.460804105E-2,3.591604267E0,4.914119680E0
7.366489750E0,-3.407431592E0,7.509579062E-2,3.685997039E0,5.020239397E0
7.376480750E0,-3.505507525E0,-4.237722766E-1,3.936399372E0,5.288043680E0
7.386471750E0,-3.312505555E0,-7.896986336E-1,4.046634589E0,5.288815414E0
7.396462750E0,-2.810045543E0,-6.428762180E-1,4.077007366E0,4.993158805E0
7.406453750E0,-2.261668516E0,-4.486135876E-1,4.367032771E0,4.938357404E0
7.416444750E0,-1.670579917E0,-3.559258640E-1,4.342771504E0,4.666603135E0
7.426435750E0,-1.020088286E0,-2.395387906E-1,4.240149361E0,4.367702548E0
7.436426750E0,-7.908534586E-1,-4.291142929E-1,3.903584797E0,4.005940906E0
7.446417750E0,-9.822223020E-1,-8.034740889E-1,4.095989767E0,4.288060568E0
7.456408750E0,-1.202614970E0,-9.118627560E-1,4.255125250E0,4.514849648E0
7.466399750E0,-1.249946426E0,-9.109704709E-1,3.883668011E0,4.180324209E0
7.476390750E0,-8.794691813E-1,-7.620518285E-1,3.545550427E0,3.731637290E0
7.486381750E0,-3.056210983E-1,-5.801262385E-1,3.138926865E0,3.206682487E0
7.496372750E0,-4.451017499E-2,-5.592341369E-1,2.919418881E0,2.972832080E0
7.506363750E0,7.823574543E-3,-6.462980086E-1,2.734387250E0,2.809739482E0
7.516354958E0,1.208502531E-2,-6.136243522E-1,2.299949506E0,2.380430344E0
7.526345958E0,-1.783301371E-1,-5.143134874E-1,1.883087615E0,1.960188503E0
7.536336958E0,-4.420179284E-1,-4.525195277E-1,1.515185338E0,1.641931904E0
7.546327958E0,-7.981893754E-1,-5.214336419E-1,1.173183010E0,1.511739956E0
7.556318958E0,-1.041300815E0,-6.277196503E-1,9.034531443E-1,1.514782800E0
7.566309958E0,-1.356566311E0,-8.064251786E-1,5.155630374E-1,1.660240636E0
7.576301958E0,-1.608732748E0,-7.778398955E-1,-4.214314900E-2,1.787409299E0
7.586292958E0,-1.909013000E0,-6.841639924E-1,-6.996835991E-1,2.145219835E0
7.596283958E0,-2.478356388E0,-6.030420613E-1,-1.473255100E0,2.945571371E0
7.606274958E0,-3.167385263E0,-4.498625529E-1,-2.351309255E0,3.970309930E0
7.616265958E0,-3.581147692E0,-3.929410779E-1,-3.600656927E0,5.093500936E0
7.626256958E0,-3.842185525E0,-3.722606456E-1,-4.956136240E0,6.282058104E0
7.636247958E0,-3.659648316E0,-2.552999604E-1,-5.805679371E0,6.867613620E0
7.646238958E0,-3.116692243E0,9.116218507E-2,-6.085711884E0,6.837979981E0
7.656229958E0,-2.381487320E0,6.118193167E-1,-5.559964167E0,6.079391933E0
7.666220958E0,-1.317190576E0,1.050710154E0,-4.783971992E0,5.072018420E0
7.676211958E0,-6.014627284E-1,1.413836864E0,-3.677078866E0,3.985172653E0
7.686202958E0,-2.171381074E-1,1.420243074E0,-2.627086165E0,2.994298092E0
7.696193958E0,-2.248459071E-1,1.383564659E0,-1.713356978E0,2.213684481E0
7.706184958E0,-1.455868989E-1,1.201654272E0,-9.606016374E-1,1.545290924E0
7.716175958E0,6.633666158E-3,9.892313594E-1,-3.505031562E-1,1.049511863E0
7.726166958E0,2.176000375E-1,7.848232251E-1,1.378726673E-1,8.260182464E-1
7.736157958E0,5.513193458E-1,5.540844941E-1,4.733882769E-1,9.138156862E-1
7.746148958E0,9.713207531E-1,2.763388270E-1,6.486573601E-1,1.200243110E0
7.756139958E0,1.485826029E0,-4.316999316E-3,6.882278804E-1,1.637484425E0
7.766131958E0,2.054520961E0,-2.702822810E-1,6.557886243E-1,2.173515036E0
7.776122958E0,2.521321728E0,-4.561301833E-1,6.609680879E-1,2.646128647E0
7.786113958E0,2.925298841E0,-5.194233692E-1,6.677215489E-1,3.045164365E0
7.796104958E0,3.189597666E0,-4.914953130E-1,6.860456264E-1,3.299357440E0
7.806095958E0,3.256324922E0,-3.946788704E-1,6.461103129E-1,3.343184402E0
7.816086958E0,3.329672980E0,-1.394946849E-1,3.862354910E-1,3.354900710E0
7.826077958E0,3.227129774E0,1.623327398E-1,1.631303000E-1,3.235325330E0
7.836068958E0,3.176632635E0,4.658605349E-1,-1.050182955E-1,3.212327782E0
7.846059958E0,3.098538977E0,7.360112536E-1,-5.555029921E-1,3.232837752E0
7.856050958E0,2.908838344E0,1.029422196E0,-1.107252145E0,3.278270563E0
7.866041958E0,2.573903400E0,1.189227185E0,-1.791679262E0,3.354005752E0
7.876032958E0,2.886481515E0,3.854718447E-1,-2.821924746E0,4.055073779E0
7.886023958E0,3.624095491E0,-7.616027623E-1,-4.048944240E0,5.487080859E0
7.896014958E0,3.891897383E0,-1.076879368E0,-5.147867610E0,6.542711620E0
7.906005958E0,3.750709344E0,-1.445442234E0,-5.116587346E0,6.506657352E0
7.915996958E0,4.121920415E0,-1.680852306E0,-3.734013205E0,5.810193369E0
7.925987958E0,4.136868237E0,-1.665278247E0,-1.965867816E0,4.873547652E0
7.935978958E0,3.553068777E0,-1.236000232E0,-7.533716369E-1,3.836608285E0
7.945969958E0,2.341773616E0,-5.390027708E-1,2.433915210E-1,2.415298551E0
7.955960958E0,1.040050095E0,3.581419587E-3,1.145887038E0,1.547505777E0
7.965951958E0,-1.499916065E-1,2.858259344E-1,1.720986571E0,1.750996495E0
7.975943958E0,-1.213201938E0,6.231775331E-1,2.057458602E0,2.468470190E0
7.985934958E0,-2.465021812E0,4.817778254E-1,2.460569158E0,3.516083473E0
7.995925958E0,-3.638313580E0,1.241732258E-1,2.249329137E0,4.279278708E0
8.005916958E0,-4.140688807E0,9.264913201E-3,2.121901935E0,4.652725810E0
8.015907958E0,-4.258256434E0,-1.572240275E-1,2.302138849E0,4.843274773E0
8.025898958E0,-4.283781869E0,-2.411239707E-1,2.468255907E0,4.949870210E0
8.035889958E0,-4.137720761E0,-4.173222131E-1,2.204854045E0,4.707044963E0
8.045880958E0,-3.979431370E0,-9.802950597E-1,1.553108186E0,4.382807031E0
8.055871958E0,-3.801790620E0,-1.793491899E0,8.930686355E-1,4.297417445E0
8.065862958E0,-3.848732067E0,-2.445161744E0,7.293534677E-1,4.617738728E0
8.075853958E0,-3.535520114E0,-2.588003960E0,1.031254714E0,4.501239080E0
8.085844958E0,-3.526422431E0,-2.801361258E0,1.257557162E0,4.675973703E0
8.095835958E0,-3.488842376E0,-3.172051926E0,1.083686842E0,4.838213691E0
8.105826958E0,-3.164300272E0,-3.128796564E0,8.669703193E-1,4.533630078E0
8.115817958E0,-2.727096357E0,-2.868295505E0,1.030513433E0,4.089759355E0
8.125808958E0,-2.386724086E0,-2.542604424E0,1.369022780E0,3.746399938E0
8.135799958E0,-2.098822975E0,-2.127632791E0,1.736248827E0,3.456362129E0
8.145790958E0,-1.914756719E0,-1.481221932E0,2.062852220E0,3.180514265E0
8.155782958E0,-1.890332315E0,-8.648371089E-1,2.288346437E0,3.091573855E0
8.165773958E0,-1.763892124E0,-2.402983439E-1,2.071259493E0,2.731148953E0
8.175764958E0,-1.730190527E0,4.998416287E-1,1.729682550E0,2.497038774E0
8.185755958E0,-9.991996926E-1,1.395395916E0,1.247971529E0,2.122018549E0
8.195746958E0,1.246760863E-1,2.148019693E0,5.412874241E-1,2.218676363E0
8.205737958E0,1.201278881E0,2.665130489E0,-3.287561917E-1,2.941780431E0
8.215728958E0,2.208095741E0,3.244487818E0,-9.113540483E-1,4.029014049E0
8.225719958E0,2.627919978E0,3.654342552E0,-7.793473077E-1,4.568103012E0
8.235710958E0,2.730791797E0,3.846424756E0,4.162077338E-2,4.717408137E0
8.245701958E0,2.364475431E0,3.689051040E0,5.732893816E-1,4.419106511E0
8.255692958E0,2.520445815E0,3.649049068E0,4.734867659E-1,4.460089229E0
8.265683958E0,2.251317190E0,3.493593823E0,2.977668259E-1,4.166808368E0
8.275674958E0,1.628030899E0,2.984586099E0,3.055342671E-1,3.413442541E0
8.285665958E0,1.139634610E0,2.289380810E0,7.059214818E-1,2.652990138E0
8.295656958E0,2.425454289E-1,1.392447749E0,8.202003416E-1,1.634156547E0
8.305647958E0,-8.665415722E-1,5.425532001E-1,6.368228880E-1,1.204492284E0
8.315638958E0,-1.860668805E0,3.985052884E-2,5.950886786E-1,1.953920931E0
8.325629958E0,-2.202612222E0,-3.096363813E-1,8.154281366E-1,2.369028986E0
8.335620958E0,-2.126079186E0,-5.503732663E-1,9.115566543E-1,2.377826523E0
8.345611958E0,-1.848231778E0,-5.637961346E-1,6.787842616E-1,2.048066127E0
8.355602958E0,-1.587284576E0,-2.976753169E-1,3.167305157E-1,1.645722073E0
8.365594958E0,-1.054329581E0,-1.153977245E-1,4.468793035E-2,1.061567007E0
8.375585958E0,-1.927271515E-1,-3.774108732E-1,1.933004710E-1,4.657765497E-1
8.385576958E0,5.852969313E-1,-7.900482970E-1,4.082698461E-1,1.064628140E0
8.395567958E0,1.291003820E0,-1.210134489E0,4.897850025E-1,1.836029873E0
8.405558958E0,1.861065246E0,-1.310753376E0,3.329653099E-2,2.276564720E0
8.415549958E0,2.291065392E0,-1.221683909E0,-1.318496844E0,2.912031273E0
8.425540958E0,3.054554467E0,-7.639574361E-1,-3.244065650E0,4.520829116E0
8.435531958E0,4.116288961E0,-9.956872702E-2,-4.352524660E0,5.991512301E0
8.445522958E0,5.084878480E0,2.460876721E-1,-4.074387814E0,6.520520252E0
8.455513958E0,5.653914304E0,6.184868968E-1,-3.920168670E0,6.907748939E0
8.465504958E0,5.812929334E0,1.379592646E0,-4.767102774E0,7.643212163E0
8.475495958E0,5.759911460E0,1.791562318E0,-5.547642914E0,8.195280195E0
8.485486958E0,5.398910798E0,2.018338391E0,-5.836533959E0,8.202868786E0
8.495477958E0,4.685690821E0,1.782403824E0,-4.565687245E0,6.780719865E0
8.505468958E0,5.073646563E0,2.540012938E-1,-3.679830565E0,6.272763274E0
8.515459958E0,5.680424411E0,-1.757936735E0,-2.073643549E0,6.297424919E0
8.525450375E0,3.826127901E0,-2.148571671E0,-1.583113757E0,4.664961319E0
8.535441375E0,1.687539182E0,-2.720277919E0,-1.420194980E0,3.502092835E0
8.545432375E0,5.308646160E-1,-2.715469753E0,5.819499850E-2,2.767486202E0
8.555423375E0,-7.347131717E-1,-2.551479912E0,8.310938506E-1,2.782188020E0
8.565414375E0,-1.899159856E0,-2.429291816E0,8.966121212E-1,3.211258349E0
8.575406375E0,-2.514192218E0,-2.409793691E0,1.158103187E0,3.670077810E0
8.585397375E0,-2.878170283E0,-2.005677415E0,1.684443666E0,3.891523677E0
8.595388375E0,-4.079176683E0,-2.101957667E0,1.819370506E0,4.936397217E0
8.605379375E0,-3.687464105E0,-6.283874023E-1,2.316154625E0,4.399640270E0
8.615370375E0,-4.009136980E0,8.350525618E-2,2.372852737E0,4.659461617E0
8.625361375E0,-3.802323886E0,8.662123740E-2,2.389348902E0,4.491565245E0
8.635352375E0,-3.396659267E0,-1.492028171E-1,2.506971492E0,4.224270554E0
8.645343375E0,-3.428399123E0,-5.244326788E-1,3.243878539E0,4.748862827E0
8.655334375E0,-3.525190423E0,-9.587802297E-1,3.935845056E0,5.370018933E0
8.665325375E0,-3.360360337E0,-1.289874723E0,4.073800753E0,5.436143024E0
8.675316375E0,-3.076642324E0,-1.519801276E0,3.949007138E0,5.231651869E0
8.685307375E0,-2.874402337E0,-1.758744820E0,3.825698715E0,5.098170534E0
8.695298375E0,-2.701950991E0,-2.038663897E0,3.618390362E0,4.954738989E0
8.705289375E0,-2.494581826E0,-2.189598075E0,3.305298861E0,4.684258616E0
8.715280375E0,-2.195436519E0,-2.013750080E0,2.561440644E0,3.928881402E0
8.725271375E0,-1.653184451E0,-1.794192980E0,1.893178740E0,3.088085656E0
8.735262375E0,-1.018978484E0,-1.490694421E0,1.607667385E0,2.417660321E0
8.745253375E0,-5.489138013E-1,-1.228935626E0,1.283544527E0,1.859859051E0
8.755244375E0,-2.070206702E-1,-8.381141639E-1,9.551123444E-1,1.287451941E0
8.765236375E0,-6.890008092E-2,-5.472274643E-1,5.926948285E-1,8.096247764E-1
8.775227375E0,-1.905940872E-1,-3.513638663E-1,3.145697502E-1,5.086617741E-1
8.785218375E0,-3.239977276E-1,-1.238662469E-1,2.999285415E-2,3.481622408E-1
8.795209375E0,-4.611734068E-1,1.067379981E-1,-8.665347017E-2,4.812304389E-1
8.805200375E0,-6.495934993E-1,2.804874265E-1,-2.042923594E-1,7.364647166E-1
8.815191375E0,-8.604756707E-1,4.898423052E-1,-5.801934084E-1,1.147601087E0
8.825182375E0,-8.634308535E-1,7.221106678E-1,-9.014805130E-1,1.442090070E0
8.835173375E0,-7.679879218E-1,7.408042163E-1,-1.386611059E0,1.749653269E0
8.845164375E0,-7.669284064E-1,8.781401092E-1,-1.737710631E0,2.092593479E0
8.855155375E0,-9.307369834E-1,8.721502215E-1,-2.015234689E0,2.384971319E0
8.865146375E0,-1.061146849E0,8.289071381E-1,-2.558314723E0,2.891036821E0
8.875137375E0,-1.229305170E0,7.863739067E-1,-2.991360683E0,3.328334998E0
8.885128375E0,-1.384476240E0,8.679840803E-1,-3.113373363E0,3.516143416E0
8.895119375E0,-1.614722051E0,8.838785666E-1,-3.060768303E0,3.571676249E0
8.905110375E0,-1.655097075E0,8.276564187E-1,-3.059601198E0,3.575684685E0
8.915101375E0,-1.553180691E0,8.218466252E-1,-2.959583405E0,3.441937836E0
8.925092375E0,-1.255511806E0,8.590881264E-1,-2.780189660E0,3.169194984E0
8.935083375E0,-9.225590676E-1,1.017195083E0,-2.533430142E0,2.881678219E0
8.945074375E0,-6.711627084E-1,1.305228927E0,-2.233630532E0,2.672674182E0
8.955066375E0,-3.776634729E-1,1.575780764E0,-1.927539318E0,2.518158561E0
8.965057375E0,-7.287794173E-2,1.733003038E0,-1.632308722E0,2.381814956E0
8.975048375E0,2.240553635E-1,1.693530824E0,-1.357022978E0,2.181687150E0
8.985039375E0,4.831513363E-1,1.439918370E0,-1.072608562E0,1.859378727E0
8.995030375E0,7.359194523E-1,1.083948652E0,-8.581490636E-1,1.566187069E0
9.005021375E0,1.127776456E0,6.811322111E-1,-7.071412110E-1,1.495282421E0
9.015012375E0,1.576028686E0,2.121784991E-1,-5.707011481E-1,1.689551993E0
9.025003375E0,2.032467018E0,-1.900087810E-1,-4.451402684E-1,2.089300211E0
9.034994375E0,2.411046749E0,-5.394342953E-1,-3.228025568E-1,2.491653523E0
9.044985375E0,2.704804432E0,-7.745584381E-1,-2.158371019E-1,2.821789050E0
9.054976375E0,2.890854648E0,-1.101524797E0,-1.644669735E-1,3.097974638E0
9.064967375E0,3.045873106E0,-1.336852423E0,-9.134874780E-2,3.327591016E0
9.074958375E0,2.933860919E0,-1.487140483E0,-6.596715409E-2,3.289905527E0
9.084949375E0,2.939428053E0,-1.422100734E0,-4.196149063E-1,3.292215735E0
9.094940375E0,2.831841039E0,-1.217454618E0,-8.474007118E-1,3.196812066E0
9.104931375E0,2.796406327E0,-1.086710292E0,-1.551497862E0,3.377569129E0
9.114922375E0,3.168641245E0,-1.708968642E0,-2.574510341E0,4.425942234E0
9.124913375E0,3.936353179E0,-2.502258636E0,-3.679262216E0,5.940803404E0
9.134904375E0,4.531697381E0,-3.061189887E0,-4.440553322E0,7.044549558E0
9.144895375E0,5.007508122E0,-3.499021794E0,-4.222634611E0,7.426232838E0
9.154886375E0,4.935146490E0,-3.207070316E0,-2.912264228E0,6.566753674E0
9.164878375E0,3.821343709E0,-2.578011069E0,-1.156440092E0,4.752490137E0
9.174869375E0,2.647742624E0,-1.786835428E0,-9.141065519E-2,3.195571585E0
9.184860375E0,1.345579392E0,-1.134582031E0,5.860102550E-1,1.855065580E0
9.194851375E0,6.621679366E-2,-5.670325685E-1,1.171825213E0,1.303489519E0
9.204842375E0,-1.188885707E0,1.069075674E-1,1.833407332E0,2.187752476E0
9.214833375E0,-2.471658402E0,5.047948050E-1,2.559958960E0,3.594064959E0
9.224824375E0,-3.351487187E0,9.048373264E-1,2.835258737E0,4.482174590E0
9.234815375E0,-4.271687488E0,9.594409651E-1,2.835883219E0,5.216327692E0
9.244806375E0,-5.184090527E0,7.853898203E-1,2.198939002E0,5.685680653E0
9.254797375E0,-6.023263621E0,5.176732975E-1,1.526916168E0,6.235315812E0
9.264788375E0,-6.196083927E0,1.402875674E-1,1.197793940E0,6.312356688E0
9.274779375E0,-5.763741387E0,-5.783603793E-1,8.919213387E-1,5.860950364E0
9.284770375E0,-5.243667807E0,-1.625617753E0,6.518066704E-1,5.528429893E0
9.294761375E0,-4.282881398E0,-2.321344029E0,6.040723407E-1,4.908830264E0
9.304752375E0,-3.271542301E0,-2.492893735E0,2.901996517E-1,4.123314691E0
9.314743375E0,-3.175179017E0,-2.607734220E0,-1.795001650E-1,4.112694963E0
9.324734375E0,-3.145808453E0,-2.649526024E0,-6.591822752E-1,4.165407573E0
9.334725375E0,-3.162696966E0,-2.725057433E0,-7.845793232E-1,4.247841196E0
9.344716375E0,-3.071636522E0,-2.784258152E0,-4.625907719E-1,4.171454735E0
9.354708375E0,-2.994951459E0,-2.673251687E0,1.791692857E-1,4.018471159E0
9.364699375E0,-2.809365512E0,-2.442784851E0,7.062969462E-1,3.789272725E0
9.374690375E0,-2.572158006E0,-2.010618312E0,1.077226839E0,3.437877320E0
9.384681375E0,-2.521746821E0,-1.567339139E0,1.434491569E0,3.297502853E0
9.394672375E0,-2.324789209E0,-9.260808456E-1,1.817601138E0,3.092886111E0
9.404663375E0,-2.457167832E0,-4.035613757E-1,2.120330204E0,3.270525296E0
9.414654375E0,-2.429652005E0,1.212426013E-1,2.102574695E0,3.215389398E0
9.424645375E0,-1.906192887E0,7.475682753E-1,1.665618116E0,2.639453231E0
9.434636375E0,-1.232881327E0,1.180075123E0,1.103639735E0,2.032386363E0
9.444627375E0,-6.074292272E-1,1.391053188E0,8.098510623E-1,1.720423780E0
9.454618375E0,-1.194352269E-2,1.675475206E0,7.004496574E-1,1.816036767E0
9.464609375E0,3.087674850E-1,1.832772324E0,6.595871218E-1,1.972168077E0
9.474600375E0,3.715888005E-1,1.776896916E0,1.130286812E0,2.138454855E0
9.484591375E0,4.924554259E-1,1.881690130E0,1.613279835E0,2.527042129E0
9.494582375E0,5.005877334E-1,1.950044081E0,1.667836404E0,2.614371486E0
9.504573375E0,1.036982646E0,2.228116023E0,1.381649258E0,2.819359624E0
9.514564375E0,1.329047559E0,2.147395211E0,1.289402560E0,2.835530386E0
9.524555708E0,1.510926372E0,1.919590028E0,1.000360365E0,2.639781286E0
9.534546708E0,1.443416174E0,1.761166736E0,5.802531230E-1,2.349862169E0
9.544537708E0,1.308712698E0,1.730495167E0,2.253224552E-1,2.181309849E0
9.554529708E0,5.099491256E-1,1.315852148E0,-6.869425893E-2,1.412881413E0
9.564520708E0,-1.862613004E-1,6.730677313E-1,-4.096266925E-3,6.983768483E-1
9.574511708E0,-4.657699031E-1,1.894281524E-1,7.157240465E-2,5.078850624E-1
9.584502708E0,-6.342843193E-1,-1.937860823E-1,-1.370705755E-1,6.772429299E-1
9.594493708E0,-5.106344193E-1,-4.290219069E-1,-7.243941517E-1,9.846594304E-1
9.604484708E0,-3.298794419E-1,-5.520777297E-1,-1.296650330E0,1.447381202E0
9.614475708E0,-6.528767109E-2,-4.810942858E-1,-2.066497082E0,2.122763383E0
9.624466708E0,3.150742918E-1,-2.892126417E-1,-3.273741438E0,3.301560050E0
9.634457708E0,1.016049614E0,-1.575257438E-1,-4.449031785E0,4.566295544E0
9.644448708E0,1.996483253E0,4.136905074E-2,-5.356164143E0,5.716305722E0
9.654439708E0,3.182635387E0,4.436639196E-1,-5.733963271E0,6.573000873E0
9.664430708E0,4.173831995E0,7.029031491E-1,-4.883513821E0,6.462480453E0
9.674421708E0,4.853046319E0,1.065289602E0,-4.042669008E0,6.405472131E0
9.684412708E0,5.313508120E0,1.341078790E0,-4.073569204E0,6.828310693E0
9.694403708E0,5.335287829E0,1.112826880E0,-4.190092517E0,6.874631276E0
9.704394708E0,4.665147214E0,9.082485920E-1,-4.425655786E0,6.494223831E0
9.714385708E0,3.501114512E0,7.389997655E-1,-4.196070710E0,5.514610855E0
9.724376708E0,2.680208119E0,-6.832950962E-1,-4.112140946E0,4.955815868E0
9.734367708E0,2.696016651E0,-2.455717723E0,-3.409975716E0,4.992693632E0
9.744358708E0,1.793132880E0,-2.634106332E0,-2.909030718E0,4.314661216E0
9.754349708E0,4.320238674E-1,-3.021118333E0,-3.262265693E0,4.467233826E0
9.764341708E0,-4.690694869E-1,-3.282286559E0,-1.887381956E0,3.815185695E0
9.774332708E0,-7.506129205E-1,-3.090218389E0,1.370284756E-1,3.183024702E0
9.784323708E0,-9.311796176E-1,-2.695533087E0,9.790485795E-1,3.015216447E0
9.794314708E0,-1.323065858E0,-2.444727881E0,8.349078432E-1,2.902459092E0
9.804305708E0,-1.902523760E0,-2.582000624E0,2.936579874E-1,3.220645726E0
9.814296708E0,-1.795285825E0,-2.058457307E0,5.573931411E-2,2.731923232E0
9.824287708E0,-1.515452117E0,-9.284682637E-1,1.779849321E0,2.515255860E0
9.834278708E0,-1.277073414E0,1.717701459E-1,2.977109849E0,3.244010565E0
9.844269708E0,-9.473927772E-1,1.086867582E0,3.378654521E0,3.673437162E0
9.854260708E0,-7.415924209E-1,1.573262953E0,3.712025335E0,4.099298443E0
9.864251708E0,-6.713112277E-1,1.569117277E0,3.938284514E0,4.292187404E0
9.874242708E0,-6.308584356E-1,1.376901757E0,4.325409951E0,4.582904326E0
9.884233708E0,-5.390407777E-1,1.303553699E0,4.439838792E0,4.658539010E0
9.894224708E0,-7.193864501E-1,1.113931419E0,4.717812501E0,4.900623926E0
9.904215708E0,-8.525690657E-1,8.573918492E-1,4.894027115E0,5.041180040E0
9.914206708E0,-1.193954659E0,3.375878263E-1,4.630298101E0,4.793657661E0
9.924197708E0,-1.481718360E0,-3.323861432E-1,4.428908007E0,4.682007687E0
9.934188708E0,-1.745823643E0,-9.265813673E-1,4.534881774E0,4.946878402E0
9.944179708E0,-1.815884396E0,-1.422199552E0,4.420034273E0,4.985658500E0
9.954171708E0,-1.802945092E0,-1.786554177E0,4.067282277E0,4.794285344E0
9.964162708E0,-1.491558639E0,-1.842343047E0,3.484692607E0,4.214505622E0
9.974153708E0,-1.132365936E0,-1.655739099E0,2.911921581E0,3.535959823E0
9.984144708E0,-7.967626548E-1,-1.353778358E0,2.551245439E0,2.996064062E0
9.994135708E0,-6.088237882E-1,-9.825778127E-1,2.277690471E0,2.554212099E0
1.000412671E1,-5.224650908E-1,-6.837581956E-1,1.979445051E0,2.158401666E0
1.001411771E1,-5.584634739E-1,-4.749880385E-1,1.847409220E0,1.987565324E0
1.002410871E1,-6.048049968E-1,-3.667736185E-1,1.613936916E0,1.762130625E0
1.003409971E1,-7.141058296E-1,-2.585287929E-1,1.264130456E0,1.474723731E0
1.004409071E1,-7.844490033E-1,-2.123352045E-1,8.824898529E-1,1.199681132E0
1.005408171E1,-8.861274058E-1,-3.192918885E-1,2.270180746E-1,9.688685646E-1
1.006407271E1,-9.724141824E-1,-3.505475950E-1,-5.084059723E-1,1.151932980E0
1.007406371E1,-1.168645570E0,-2.972519785E-1,-1.113737803E0,1.641494168E0
1.008405471E1,-1.480464132E0,-3.058391994E-1,-1.910452584E0,2.436214428E0
1.009404571E1,-1.931327729E0,-3.757947028E-2,-3.154795039E0,3.699212179E0
1.010403671E1,-2.201447457E0,3.431403422E-1,-4.694371598E0,5.196271827E0
1.011402771E1,-1.964353387E0,8.816677344E-1,-6.290452141E0,6.648745021E0
1.012401871E1,-1.718193794E0,1.272738873E0,-7.289018580E0,7.596173116E0
1.013400971E1,-1.294229144E0,1.422359181E0,-7.185020002E0,7.437919544E0
1.014400071E1,-8.460786563E-1,1.347454594E0,-5.884136142E0,6.095452494E0
1.015399171E1,-7.487850809E-1,1.182913946E0,-4.415736569E0,4.632352960E0
1.016398371E1,-8.552470905E-1,1.123957640E0,-3.405018446E0,3.686309670E0
1.017397471E1,-8.117280185E-1,1.168708720E0,-2.394818387E0,2.785666447E0
1.018396571E1,-4.764100814E-1,1.113605145E0,-1.366041723E0,1.825692464E0
1.019395671E1,-6.799727082E-3,1.102207167E0,-5.374689730E-1,1.226286986E0
1.020394771E1,4.368179995E-1,1.014824038E0,-9.010522775E-3,1.104879623E0
1.021393871E1,9.240477687E-1,9.606355512E-1,2.895587969E-1,1.364012184E0
1.022392971E1,1.347142353E0,8.100639009E-1,3.515965855E-1,1.610781240E0
1.023392071E1,1.776922644E0,6.069971180E-1,3.533074443E-1,1.910687241E0
1.024391171E1,2.132616958E0,3.661947441E-1,4.364700902E-1,2.207410207E0
1.025390271E1,2.482241278E0,1.382843113E-1,5.690264690E-1,2.550379469E0
1.026389371E1,2.919846312E0,-7.665290415E-2,7.596538854E-1,3.018021236E0
1.027388471E1,3.309203632E0,-2.272169530E-1,9.919696105E-1,3.462146723E0
1.028387571E1,3.629638066E0,-2.684538567E-1,1.114375150E0,3.806333136E0
1.029386671E1,3.784678743E0,-9.845717132E-2,1.033495293E0,3.924487167E0
1.030385771E1,3.843395898E0,1.172507071E-1,8.281270465E-1,3.933348976E0
1.031384871E1,3.974309210E0,3.369300145E-1,5.661039575E-1,4.028539341E0
1.032383971E1,4.064585541E0,4.661271679E-1,2.817399001E-1,4.100915450E0
1.033383071E1,4.003219598E0,7.033650792E-1,-3.034295619E-1,4.075850719E0
1.034382171E1,3.832358109E0,8.568831414E-1,-9.971443963E-1,4.051606390E0
1.035381271E1,3.941285305E0,5.246689063E-1,-2.127228749E0,4.509335812E0
1.036380371E1,4.694249976E0,-3.125506335E-1,-3.953211286E0,6.145042734E0
1.037379571E1,5.441384388E0,-7.133766818E-1,-5.478874980E0,7.754717364E0
1.038378671E1,5.516304762E0,-1.003475177E0,-5.484101222E0,7.842955238E0
1.039377771E1,5.228004286E0,-1.010022304E0,-3.023385884E0,6.123155728E0
1.040376871E1,4.849431571E0,-1.117590607E0,-9.064540815E-1,5.058424095E0
1.041375971E1,3.739568059E0,-7.304821265E-1,4.843365669E-2,3.810553664E0
1.042375071E1,2.433540988E0,-3.502289218E-1,7.875801873E-1,2.581678638E0
1.043374171E1,9.559402370E-1,-3.180335677E-1,1.496941001E0,1.804383398E0
1.044373271E1,-7.796373296E-1,-2.456824601E-1,2.109750252E0,2.262573836E0
1.045372371E1,-2.474869693E0,-9.486756563E-2,2.413474513E0,3.458155444E0
1.046371471E1,-3.687544212E0,1.306472629E-1,2.644240726E0,4.539499977E0
1.047370571E1,-4.487694159E0,2.776655602E-1,2.837052662E0,5.316518112E0
1.048369671E1,-5.035054940E0,3.820535624E-1,2.896981945E0,5.821533094E0
1.049368771E1,-5.026503387E0,4.205849594E-1,2.759414502E0,5.749521407E0
1.050367871E1,-4.348777179E0,3.166208804E-1,2.065920693E0,4.824949745E0
1.051366971E1,-4.145112226E0,-4.027310711E-1,1.331508214E0,4.372306234E0
1.052366008E1,-3.973446161E0,-1.073465763E0,1.138647161E0,4.270494174E0
1.053365108E1,-3.577527096E0,-1.426201971E0,1.439511988E0,4.111562592E0
1.054364208E1,-3.308175107E0,-1.771038006E0,1.699861750E0,4.119481536E0
1.055363308E1,-3.231597632E0,-2.135192072E0,1.719807626E0,4.237924811E0
1.056362408E1,-3.126582223E0,-2.365246679E0,1.690707057E0,4.269472872E0
1.057361608E1,-2.719772719E0,-2.312156884E0,1.715307609E0,3.960494072E0
1.058360708E1,-2.364159096E0,-2.217947130E0,1.897213026E0,3.756055773E0
1.059359808E1,-1.931737034E0,-1.977245913E0,2.405160942E0,3.664138170E0
1.060358908E1,-1.342135967E0,-1.458339438E0,2.987376098E0,3.585038190E0
1.061358008E1,-9.174252123E-1,-8.410570675E-1,3.442945826E0,3.661000133E0
1.062357108E1,-6.565411609E-1,-4.828227228E-1,3.652756788E0,3.742565461E0
1.063356208E1,-5.059484607E-1,-2.225672472E-1,3.648994689E0,3.690620851E0
1.064355308E1,-2.060675740E-2,2.687023634E-1,3.371416837E0,3.382170470E0
1.065354408E1,9.145179766E-1,1.179925434E0,2.582229542E0,2.982696191E0
1.066353508E1,2.014442391E0,2.109792352E0,1.657410526E0,3.355027804E0
1.067352608E1,3.037345526E0,2.643483512E0,4.285169998E-1,4.049333247E0
1.068351708E1,3.883481485E0,2.956114837E0,-5.542619571E-1,4.911949683E0
1.069350808E1,4.142019634E0,3.254797629E0,-5.473724753E-2,5.268114503E0
1.070349908E1,4.113270628E0,3.461151717E0,7.911741784E-1,5.433647306E0
1.071349008E1,3.853671795E0,3.534281673E0,1.246926632E0,5.375570600E0
1.072348108E1,3.500816889E0,3.564674331E0,1.091899988E0,5.114182980E0
1.073347208E1,2.731508081E0,3.235456209E0,5.842178276E-1,4.274415018E0
1.074346308E1,1.880179210E0,2.473451743E0,3.778780657E-1,3.129828944E0
1.075345408E1,9.654273444E-1,1.719138705E0,3.538998038E-1,2.003180699E0
1.076344508E1,-2.890565211E-1,8.630981469E-1,8.089593619E-2,9.138031714E-1
1.077343608E1,-1.576359054E0,-2.864317060E-2,2.859800085E-2,1.576878608E0
1.078342808E1,-2.373554403E0,-7.520092356E-1,5.203399202E-1,2.543625764E0
1.079341908E1,-2.812058154E0,-1.215395229E0,9.801886404E-1,3.216461782E0
1.080341008E1,-2.902822144E0,-1.360822499E0,1.196186102E0,3.421852636E0
1.081340108E1,-2.861917362E0,-1.204441640E0,1.137987595E0,3.307002634E0
1.082339208E1,-2.678130603E0,-9.120405114E-1,8.354992890E-1,2.949959404E0
1.083338308E1,-1.975591151E0,-6.274430770E-1,6.675497139E-1,2.177674868E0
1.084337408E1,-9.313737452E-1,-6.697991377E-1,6.982183599E-1,1.342980572E0
1.085336508E1,9.438517034E-2,-8.462365311E-1,8.601017413E-1,1.210289152E0
1.086335608E1,1.079286667E0,-6.923629582E-1,9.047915719E-1,1.569354633E0
1.087334708E1,1.758273534E0,-3.483712614E-1,3.065797493E-1,1.818482747E0
1.088333808E1,2.040038577E0,1.652814907E-1,-1.971420625E0,2.841755557E0
1.089332908E1,2.806411498E0,7.574851531E-1,-4.984532658E0,5.770207541E0
1.090332008E1,4.671515417E0,1.331249036E0,-4.641993117E0,6.718882376E0
1.091331108E1,6.143664808E0,1.506657904E0,-1.220940728E0,6.442463161E0
1.092330208E1,7.149796375E0,1.857380331E0,2.581624648E-1,7.391623486E0
1.093329308E1,6.711206084E0,1.535159572E0,-1.375731437E-1,6.885922479E0
1.094328408E1,5.608752750E0,1.812186617E0,-1.981352120E0,6.218350582E0
1.095327508E1,4.618489941E0,2.159680211E0,-2.674053340E0,5.757189350E0
1.096326608E1,4.603985338E0,1.597587370E0,-1.571612284E0,5.120442517E0
1.097325708E1,5.511230548E0,-9.357269973E-1,-9.294044030E-1,5.666836835E0
1.098324908E1,4.864056627E0,-1.490814289E0,-1.084040014E0,5.201607142E0
1.099324008E1,3.236918013E0,-1.535946023E0,-1.084581320E0,3.743405542E0
1.100323108E1,1.932170897E0,-2.277316250E0,-8.910164090E-1,3.116627010E0
1.101322208E1,7.936004806E-1,-2.976915137E0,-5.045902987E-1,3.121928383E0
1.102321308E1,-7.211476314E-1,-2.981894626E0,-2.226584637E-1,3.075926894E0
1.103320408E1,-2.043170931E0,-2.576697784E0,1.412498729E-1,3.291484536E0
1.104319508E1,-2.503900534E0,-1.893852924E0,1.084947502E0,3.321642344E0
1.105318608E1,-2.417813147E0,-1.172724588E0,2.615868866E0,3.750183102E0
1.106317708E1,-2.349988369E0,-5.033587289E-1,3.567426031E0,4.301435090E0
1.107316808E1,-2.695575187E0,3.699849093E-1,3.912721949E0,4.765753610E0
1.108315908E1,-2.963041449E0,1.048411029E0,4.423925887E0,5.426776259E0
1.109315008E1,-2.583974059E0,1.248916147E0,4.976621375E0,5.744864993E0
1.110314108E1,-2.020325274E0,8.090920937E-1,5.775753906E0,6.172169588E0
1.111313208E1,-1.414188867E0,3.906425375E-1,5.901381919E0,6.081022965E0
1.112312308E1,-1.063019713E0,9.767481387E-2,5.391572542E0,5.496235599E0
1.113311408E1,-1.163309986E0,-4.443620771E-1,4.694172792E0,4.856542596E0
1.114310508E1,-1.352532901E0,-7.444218886E-1,4.235006150E0,4.507636441E0
1.115309608E1,-1.132470016E0,-5.970235223E-1,4.023524054E0,4.222282705E0
1.116308708E1,-8.162794912E-1,-4.934354192E-1,4.375076786E0,4.477844080E0
1.117307808E1,-5.739316982E-1,-7.601491445E-1,4.843587863E0,4.936351660E0
1.118306908E1,-3.764957839E-1,-1.160771125E0,4.748707434E0,4.902995102E0
1.119306008E1,-1.818940151E-1,-1.312453161E0,4.186819246E0,4.391477443E0
1.120305208E1,6.867554784E-2,-1.172884802E0,3.462763209E0,3.656652039E0
1.121304308E1,1.285405111E-1,-9.371589804E-1,2.933953890E0,3.082673360E0
1.122303408E1,6.765930176E-2,-6.464892125E-1,2.586393052E0,2.666824911E0
1.123302508E1,1.392982185E-2,-4.576422733E-1,2.296056576E0,2.341261688E0
1.124301608E1,-1.014988929E-1,-2.970970273E-1,2.043330560E0,2.067309470E0
1.125300708E1,-1.287030637E-1,-9.823556185E-2,1.784493034E0,1.791823120E0
1.126299808E1,-2.825602645E-1,3.285141170E-2,1.445667937E0,1.473389053E0
1.127298908E1,-6.094085097E-1,1.310676777E-1,9.987136428E-1,1.177279240E0
1.128298008E1,-7.104279310E-1,2.341710466E-1,3.629447155E-1,8.314281632E-1
1.129297108E1,-9.211206526E-1,3.768536335E-1,-3.355424702E-1,1.050271711E0
1.130296208E1,-1.263510797E0,4.913660896E-1,-1.073960365E0,1.729534918E0
1.131295308E1,-1.775654967E0,5.030657834E-1,-1.968344697E0,2.698222858E0
1.132294408E1,-2.462525636E0,5.787404484E-1,-2.911523970E0,3.856934644E0
1.133293508E1,-3.034380403E0,5.750549483E-1,-3.723080081E0,4.837300685E0
1.134292608E1,-3.117209136E0,4.666674507E-1,-4.321548450E0,5.348883277E0
1.135291708E1,-3.049153978E0,3.705743086E-1,-4.488955404E0,5.439244977E0
1.136290808E1,-2.794649824E0,3.806245029E-1,-4.057081225E0,4.941138605E0
1.137289908E1,-2.137735026E0,4.579527605E-1,-3.352101145E0,4.002026219E0
1.138289008E1,-1.299170626E0,8.611171103E-1,-2.640590894E0,3.066282320E0
1.139288108E1,-4.708949876E-1,1.104746613E0,-2.135524778E0,2.450035356E0
1.140287208E1,3.493670422E-1,1.185622376E0,-1.642194024E0,2.055373193E0
1.141286408E1,8.938053846E-1,1.216721962E0,-1.109608573E0,1.873641263E0
1.142285508E1,1.257495182E0,1.123212120E0,-5.117121343E-1,1.762029769E0
1.143284608E1,1.729433897E0,1.031516084E0,-6.456458978E-3,2.013705222E0
1.144283708E1,2.058897602E0,8.729781872E-1,4.319911595E-1,2.277666923E0
1.145282808E1,2.364680668E0,7.151355243E-1,7.333624649E-1,2.577004848E0
1.146281908E1,2.666674739E0,5.576811165E-1,9.403024435E-1,2.882070623E0
1.147281008E1,2.825339520E0,4.372992253E-1,1.057428093E0,3.048266423E0
1.148280108E1,2.946539437E0,3.199953085E-1,1.141011556E0,3.175909164E0
1.149279208E1,2.969784458E0,2.041146040E-1,1.148310124E0,3.190595342E0
1.150278308E1,2.983872154E0,1.218764395E-1,1.040354224E0,3.162385778E0
1.151277408E1,3.102161912E0,1.121139282E-1,9.232660691E-1,3.238579672E0
1.152276546E1,3.272227010E0,1.147106767E-1,6.949800988E-1,3.347181722E0
1.153275646E1,3.316722566E0,3.009275383E-1,3.565818485E-1,3.349381522E0
1.154274746E1,3.286890657E0,5.473438239E-1,-1.610557079E-2,3.332190697E0
1.155273846E1,3.274663544E0,8.688442057E-1,-3.686820035E-1,3.407966843E0
1.156272946E1,3.351008885E0,1.178548415E0,-8.781314114E-1,3.659146306E0
1.157272046E1,3.948325937E0,8.210309386E-1,-1.650679504E0,4.357535121E0
1.158271146E1,5.211520985E0,-4.361613572E-2,-2.481996864E0,5.772535126E0
1.159270246E1,6.196932943E0,-4.207983828E-1,-3.338275988E0,7.051463376E0
1.160269346E1,6.092563067E0,-5.217605013E-1,-3.647546918E0,7.120123403E0
1.161268446E1,5.761390806E0,-7.169662875E-1,-3.062897859E0,6.564221810E0
1.162267646E1,5.303649130E0,-1.147999052E0,-1.594422272E0,5.655862295E0
1.163266746E1,4.320669029E0,-1.336284074E0,-3.885241643E-1,4.539249608E0
1.164265846E1,3.021368594E0,-1.289822098E0,5.099321687E-1,3.324505985E0
1.165264946E1,1.812655563E0,-9.569348484E-1,1.357574955E0,2.458547184E0
1.166264046E1,6.763410026E-1,-4.526984525E-1,1.836996499E0,2.009211083E0
1.167263146E1,-5.806027865E-1,1.564527798E-1,2.255785632E0,2.334554751E0
1.168262246E1,-1.913979625E0,5.492500162E-1,2.844021374E0,3.471808053E0
1.169261346E1,-3.233367584E0,5.618770784E-1,3.063130578E0,4.489224958E0
1.170260446E1,-4.206477000E0,6.024620175E-1,2.818111192E0,5.098937137E0
1.171259546E1,-4.605440710E0,9.028048342E-1,2.616022063E0,5.372961208E0
1.172258646E1,-4.913818771E0,8.707591689E-1,2.720446318E0,5.683719259E0
1.173257746E1,-4.744595087E0,7.341418988E-1,2.384508430E0,5.360599530E0
1.174256846E1,-4.317877568E0,3.147392464E-1,1.632135644E0,4.626769310E0
1.175255946E1,-4.229343122E0,-8.099013484E-1,1.359829788E0,4.515796772E0
1.176255046E1,-3.611754942E0,-1.328431848E0,1.543328279E0,4.146247353E0
1.177254146E1,-3.378484367E0,-1.794789981E0,1.662103794E0,4.171092987E0
1.178253246E1,-3.344970465E0,-2.210988359E0,1.808124117E0,4.398478119E0
1.179252346E1,-2.742119608E0,-2.329366409E0,1.835745049E0,4.039198893E0
1.180251446E1,-2.877291446E0,-2.998683736E0,1.734800325E0,4.503381217E0
1.181250546E1,-2.195464001E0,-2.948748515E0,1.918997705E0,4.147014851E0
1.182249646E1,-1.465382409E0,-2.545223976E0,2.276741761E0,3.716054862E0
1.183248846E1,-1.162457462E0,-2.239421030E0,2.770044740E0,3.746926976E0
1.184247946E1,-8.293135196E-1,-1.675252427E0,3.163646554E0,3.674628026E0
1.185247046E1,-5.303418750E-1,-8.747867310E-1,3.227526215E0,3.385770193E0
1.186246146E1,-3.560159111E-1,-1.575339299E-1,3.336956564E0,3.359589763E0
1.187245246E1,-9.449158967E-2,6.123654467E-1,3.234963581E0,3.293768279E0
1.188244346E1,3.772921747E-1,1.206033837E0,2.297775365E0,2.622334576E0
1.189243446E1,1.499498574E0,2.034868469E0,7.235180926E-1,2.629194570E0
1.190242546E1,2.893251421E0,2.980566139E0,-1.596856761E0,4.450239298E0
1.191241646E1,4.217949822E0,3.420439308E0,-3.056223847E0,6.231453279E0
1.192240746E1,4.377850705E0,3.423258251E0,-1.674058426E0,5.804028382E0
1.193239846E1,3.138050367E0,3.416345673E0,6.025087953E-2,4.639224939E0
1.194238946E1,2.218939987E0,3.362906215E0,8.178018138E-1,4.111159530E0
1.195238046E1,1.794606963E0,3.139088833E0,6.346731591E-1,3.671144627E0
1.196237146E1,1.257263047E0,2.454141898E0,4.946267894E-1,2.801460063E0
1.197236246E1,5.950851703E-1,1.773175163E0,5.262175414E-1,1.942982609E0
1.198235346E1,-1.281621963E-1,1.080042711E0,7.408264357E-1,1.315956540E0
1.199234446E1,-7.659595227E-1,5.778727216E-1,7.863443783E-1,1.240551633E0
1.200233546E1,-1.163567848E0,2.034907061E-1,8.743572530E-1,1.469625534E0
1.201232646E1,-1.579911822E0,-9.394370556E-2,1.058870821E0,1.904246360E0
1.202231746E1,-1.924624481E0,-3.665613645E-1,1.193993250E0,2.294377150E0
1.203230846E1,-2.229341599E0,-6.372587979E-1,1.229648694E0,2.624518747E0
1.204229946E1,-2.335122408E0,-7.630113566E-1,1.132230281E0,2.704982144E0
1.205229046E1,-2.046159443E0,-6.003003019E-1,9.120747176E-1,2.319269111E0
1.206228246E1,-1.376162669E0,-4.445819324E-1,6.623696655E-1,1.590663497E0
1.207227346E1,-5.229112333E-1,-5.367188483E-1,5.118618961E-1,9.074722479E-1
1.208226446E1,1.888212115E-1,-6.102119172E-1,5.504710610E-1,8.432261991E-1
1.209225546E1,9.035018224E-1,-6.685285378E-1,7.188302337E-1,1.334152485E0
1.210224646E1,1.488606380E0,-3.836732411E-1,3.806761046E-1,1.583688229E0
1.211223746E1,2.020859710E0,2.998042881E-1,-1.434086941E0,2.496069297E0
1.212222846E1,2.987907318E0,1.160179971E0,-4.161018991E0,5.252398191E0
1.213221946E1,4.675604374E0,1.570449858E0,-4.985619655E0,7.013129998E0
1.214221046E1,6.148890465E0,1.389827612E0,-3.077229384E0,7.014970807E0
1.215220146E1,7.040848714E0,1.759027825E0,-2.001554397E0,7.528210246E0
1.216219246E1,7.348951955E0,2.280002460E0,-2.440388077E0,8.072236371E0
1.217218346E1,6.684114765E0,2.406826814E0,-3.384803452E0,7.869377352E0
1.218217446E1,5.568513381E0,2.661861311E0,-3.495701745E0,7.093220538E0
1.219216546E1,5.030423945E0,2.074191579E0,-2.031902761E0,5.808275528E0
1.220215646E1,5.803608288E0,-2.637930411E-1,-3.959640884E-1,5.823078523E0
1.221214746E1,4.858707594E0,-1.001971273E0,2.377888651E-1,4.966641668E0
1.222213846E1,2.745094087E0,-8.365763462E-1,-3.046337959E-1,2.885862657E0
1.223212946E1,1.128704410E0,-1.120159289E0,-4.385631010E-2,1.590802895E0
1.224212046E1,4.463173860E-1,-1.971084117E0,5.654796942E-1,2.098604082E0
1.225211146E1,6.943276227E-2,-3.127827680E0,7.847035034E-1,3.225505618E0
1.226210246E1,-6.119345069E-1,-3.781207836E0,4.764803942E-1,3.859926179E0
1.227209446E1,-1.837042546E0,-3.435974776E0,1.636426623E-1,3.899670101E0
1.228208546E1,-2.917346628E0,-3.118745785E0,7.387806411E-1,4.333968557E0
1.229207646E1,-2.703381220E0,-1.601658787E0,2.704968739E0,4.146135160E0
1.230206746E1,-2.762963178E0,-9.858996159E-1,3.979554454E0,4.943967762E0
1.231205846E1,-2.636935215E0,-8.089581925E-1,4.718879325E0,5.465863406E0
1.232204946E1,-2.091369529E0,-6.549437016E-1,5.132946686E0,5.581211288E0
1.233204046E1,-1.545658833E0,-5.648907334E-1,5.414790666E0,5.659339248E0
1.234203146E1,-1.284946105E0,-2.202593511E-1,5.326831001E0,5.484043142E0
1.235202246E1,-8.260490191E-1,3.756315655E-1,5.311307813E0,5.388269364E0
1.236201346E1,-4.089723891E-1,3.794895583E-1,5.109498181E0,5.139867937E0
1.237200446E1,-1.144826353E-1,1.839118892E-1,4.627342626E0,4.632410780E0
1.238199546E1,-5.854992449E-2,4.898037136E-2,4.248528421E0,4.249214153E0
1.239198646E1,-1.469066155E-1,-1.521328568E-2,4.227327586E0,4.229906798E0
1.240197746E1,-2.459116709E-1,-7.695578992E-2,4.225554711E0,4.233403755E0
1.241196846E1,-3.329550773E-1,8.324680924E-3,4.167861403E0,4.181147816E0
1.242195946E1,-4.474067223E-1,1.192943090E-1,3.890357226E0,3.917816133E0
1.243195046E1,-6.117783862E-1,1.448285151E-1,3.382749910E0,3.440675086E0
1.244194146E1,-7.603894651E-1,7.279725015E-2,2.895288591E0,2.994359298E0
1.245193246E1,-7.975830191E-1,-5.395869076E-2,2.511529981E0,2.635684552E0
1.246192346E1,-8.626368016E-1,-1.572246122E-1,2.279594325E0,2.442419316E0
1.247191446E1,-9.110821527E-1,-2.072785324E-1,1.948577892E0,2.161016168E0
1.248190546E1,-9.053021801E-1,-2.440984493E-1,1.550445656E0,1.811915512E0
1.249189646E1,-9.512466770E-1,-3.864933532E-1,1.175084378E0,1.560471290E0
1.250188846E1,-1.032121856E0,-5.331228107E-1,8.668169761E-1,1.449436831E0
1.251187946E1,-1.020437365E0,-5.771359724E-1,6.147132500E-1,1.323726076E0
1.252187008E1,-1.097830526E0,-5.985157317E-1,2.050524974E-1,1.267083057E0
1.253186108E1,-1.298946678E0,-4.820736945E-1,-3.605100080E-1,1.431651139E0
1.254185208E1,-1.785636749E0,-3.823482621E-1,-1.114867558E0,2.139536975E0
1.255184308E1,-2.251175687E0,-3.610638124E-1,-2.013298091E0,3.041632498E0
1.256183408E1,-2.639065356E0,-1.733997649E-1,-2.890485688E0,3.917861782E0
1.257182508E1,-3.035707721E0,9.483365178E-2,-3.842179677E0,4.897638152E0
1.258181608E1,-2.891628819E0,4.116141611E-1,-4.648894293E0,5.490278827E0
1.259180708E1,-2.533162925E0,8.726051348E-1,-5.065258148E0,5.730200191E0
1.260179808E1,-1.859105844E0,1.253968141E0,-4.862107165E0,5.354325048E0
1.261178908E1,-1.126742084E0,1.300978001E0,-4.113065976E0,4.458632437E0
1.262178008E1,-4.376319319E-1,1.193181072E0,-3.234699579E0,3.475411364E0
1.263177108E1,1.166326565E-1,1.211228503E0,-2.453732593E0,2.738883222E0
1.264176208E1,3.626098162E-1,1.047698253E0,-1.929618587E0,2.225440496E0
1.265175308E1,7.279812723E-1,9.005969256E-1,-1.408538117E0,1.823461319E0
1.266174408E1,1.084603540E0,6.788535511E-1,-9.451275659E-1,1.590746082E0
1.267173508E1,1.491502506E0,4.148698908E-1,-5.272738409E-1,1.635455428E0
1.268172608E1,1.936785520E0,2.601484716E-1,-1.480771915E-1,1.959781169E0
1.269171708E1,2.384217385E0,1.497998178E-1,9.586860895E-2,2.390841549E0
1.270170808E1,2.711862021E0,1.790318030E-1,2.343950681E-1,2.727854295E0
1.271169908E1,2.973750039E0,1.828465265E-1,3.470100661E-1,2.999506315E0
1.272169108E1,3.231863095E0,2.665862560E-2,3.725379133E-1,3.253372749E0
1.273168208E1,3.658642595E0,6.401414752E-2,3.578249665E-1,3.676656382E0
1.274167308E1,3.892891409E0,7.754051149E-2,4.027655697E-1,3.914439444E0
1.275166408E1,3.981143435E0,2.462701052E-1,3.860285727E-1,4.007389434E0
1.276165508E1,3.916303661E0,5.652427357E-1,3.076839229E-1,3.968828934E0
1.277164608E1,3.643046901E0,1.122204645E0,7.821586490E-2,3.812774805E0
1.278163708E1,3.382407264E0,1.692754898E0,-3.113455224E-1,3.795132946E0
1.279162808E1,3.255546073E0,2.024535854E0,-6.339130211E-1,3.885765224E0
1.280161908E1,3.873579226E0,1.230455902E0,-9.556221485E-1,4.175146876E0
1.281161008E1,5.236846445E0,5.125142992E-2,-1.441087228E0,5.431751080E0
1.282160108E1,5.645223003E0,-3.072624117E-1,-1.798622246E0,5.932789810E0
1.283159208E1,4.760032906E0,-5.222610229E-1,-1.806381501E0,5.117976550E0
1.284158308E1,4.455231587E0,-8.157029557E-1,-1.500693744E0,4.771429715E0
1.285157408E1,4.140497603E0,-1.200350928E0,-9.118322774E-1,4.406359138E0
1.286156508E1,3.447099103E0,-1.111155161E0,-2.832321095E-1,3.632819628E0
1.287155608E1,2.667914348E0,-8.641237485E-1,3.199152748E-1,2.822556041E0
1.288154708E1,1.758295754E0,-3.776184493E-1,1.039423201E0,2.077161583E0
1.289153808E1,7.908616447E-1,1.872635132E-1,1.695149918E0,1.879910372E0
1.290152908E1,1.451863647E-2,6.624217057E-1,2.088869698E0,2.191435585E0
1.291152008E1,-8.779477358E-1,9.976086652E-1,2.418414241E0,2.759482328E0
1.292151108E1,-1.583687369E0,1.282209023E0,2.435319711E0,3.175359469E0
1.293150208E1,-2.018230802E0,1.404559672E0,2.145987932E0,3.263634117E0
1.294149308E1,-2.690013315E0,1.078261650E0,2.006710618E0,3.525011677E0
1.295148408E1,-3.331027195E0,6.372640604E-1,2.001990453E0,3.938250046E0
1.296147608E1,-3.618293883E0,-3.723506927E-3,2.103864444E0,4.185488035E0
1.297146708E1,-3.645861751E0,-7.951856607E-1,2.119230927E0,4.291359675E0
1.298145808E1,-3.498164007E0,-1.629047145E0,1.754863877E0,4.239161856E0
1.299144908E1,-2.885031990E0,-1.845805183E0,1.682482363E0,3.815907921E0
1.300144008E1,-2.697186679E0,-1.870410267E0,1.848314223E0,3.766897399E0
1.301143108E1,-2.719015505E0,-1.878821486E0,1.837793913E0,3.781600449E0
1.302142208E1,-2.685290519E0,-2.049009960E0,1.728323511E0,3.794249484E0
1.303141308E1,-2.829312118E0,-2.142508108E0,1.678275876E0,3.925806665E0
1.304140408E1,-2.985987677E0,-2.150420560E0,1.777433106E0,4.086526574E0
1.305139508E1,-2.938218264E0,-2.066617681E0,2.062514105E0,4.142221582E0
1.306138608E1,-2.763763661E0,-1.767237900E0,2.409411868E0,4.070231556E0
1.307137708E1,-2.235440830E0,-1.373282331E0,2.669561509E0,3.742947864E0
1.308136808E1,-1.908092063E0,-9.307755750E-1,2.795108246E0,3.509955640E0
1.309135908E1,-2.004231398E0,-3.695025140E-1,2.874671017E0,3.523806047E0
1.310135008E1,-1.830770822E0,2.004828984E-1,2.828204656E0,3.375004707E0
1.311134108E1,-1.375883172E0,6.486947823E-1,2.692281450E0,3.092286990E0
1.312133208E1,-1.126176074E0,8.751691389E-1,2.347012867E0,2.746390899E0
1.313132308E1,-6.898439777E-1,1.085551373E0,2.063143411E0,2.431227516E0
1.314131408E1,-9.870041549E-2,1.690423028E0,1.765315336E0,2.446141865E0
1.315130508E1,5.159027606E-1,2.364325742E0,1.565124214E0,2.881979472E0
1.316129608E1,1.187781753E0,2.562685516E0,1.524054540E0,3.209505381E0
1.317128708E1,2.306584488E0,2.770809556E0,9.655951595E-1,3.732303794E0
1.318127808E1,2.976171371E0,2.925432158E0,-1.865904987E-1,4.177387384E0
1.319127008E1,3.628497275E0,3.247358217E0,-1.405695201E0,5.068264679E0
1.320126108E1,3.926106518E0,3.351873688E0,-1.489551583E0,5.372907363E0
1.321125208E1,3.651879120E0,3.147395387E0,-1.102381414E0,4.945458888E0
1.322124308E1,3.058224764E0,2.798344679E0,-1.063084032E0,4.279441472E0
1.323123408E1,1.705549775E0,2.104095410E0,-1.152661622E0,2.943594120E0
1.324122508E1,1.131956631E-1,1.311222323E0,-1.088427326E0,1.707861611E0
1.325121608E1,-8.843311411E-1,5.549212307E-1,-7.949184430E-1,1.312202145E0
1.326120708E1,-1.279912822E0,-4.880787849E-2,-2.546731389E-1,1.305916325E0
1.327119808E1,-1.462672225E0,-5.718658769E-1,2.203099295E-1,1.585867927E0
1.328118908E1,-1.382098762E0,-6.740991801E-1,2.658459985E-1,1.560538621E0
1.329118008E1,-9.996581143E-1,-4.339136875E-1,2.144958968E-1,1.110678137E0
1.330117108E1,-3.558013183E-1,-3.038020295E-1,4.636121343E-1,6.586550404E-1
1.331116208E1,4.805797309E-1,-4.889891964E-1,7.936881888E-1,1.048812783E0
1.332115308E1,1.224643770E0,-7.353990501E-1,8.493031034E-1,1.661890456E0
1.333114408E1,1.805294504E0,-8.027852869E-1,6.837220891E-1,2.090700446E0
1.334113508E1,2.319682835E0,-7.454919291E-1,6.331132682E-1,2.517442965E0
1.335112608E1,2.689377138E0,-7.286700743E-1,5.331758742E-1,2.836897245E0
1.336111708E1,3.063008371E0,-7.486932796E-1,-1.802111864E-2,3.153234319E0
1.337110808E1,3.203393002E0,-6.679426467E-1,-1.287484527E0,3.516459941E0
1.338109908E1,3.423058861E0,-3.994092679E-1,-3.285831141E0,4.761674707E0
1.339109008E1,4.062440198E0,1.215484107E-1,-3.760736150E0,5.537267446E0
1.340108108E1,4.406737120E0,4.323442948E-1,-2.159936904E0,4.926619638E0
1.341107208E1,4.588856252E0,7.300517714E-1,-1.726240586E0,4.956862300E0
1.342106408E1,4.385134581E0,1.300783873E0,-3.502019076E0,5.760692805E0
1.343105508E1,3.977197149E0,1.676285046E0,-4.746571738E0,6.415447918E0
1.344104608E1,3.819312971E0,1.361717123E0,-4.624540640E0,6.150430979E0
1.345103708E1,4.447924322E0,-1.420961112E-1,-4.656088707E0,6.440759593E0
1.346102808E1,4.580707573E0,-7.942465979E-1,-3.371940747E0,5.743143210E0
1.347101908E1,2.589062891E0,-6.092518044E-1,-2.617534153E0,3.731744828E0
1.348101008E1,1.256466072E0,-7.111009455E-1,-1.563199456E0,2.127901333E0
1.349100108E1,3.325200444E-1,-8.517516249E-1,-1.222820900E-1,9.224984120E-1
1.350099208E1,-1.328604341E-2,-1.173135062E0,6.954220752E-1,1.363830729E0
1.351098308E1,-6.737185264E-1,-1.248536078E0,7.093456113E-1,1.586162093E0
1.352097421E1,-1.609811559E0,-1.052538579E0,4.767807949E-1,1.981577816E0
1.353096521E1,-1.724419325E0,-3.531174463E-1,8.498752534E-1,1.954635998E0
1.354095621E1,-1.526652458E0,7.995014906E-2,2.417656296E0,2.860440826E0
1.355094721E1,-1.329034111E0,2.101237875E-1,3.546695312E0,3.793353571E0
1.356093821E1,-1.491238797E0,-1.313559455E-1,4.160281073E0,4.421423542E0
1.357092921E1,-1.694316105E0,-5.532436645E-1,4.504838780E0,4.844621559E0
1.358092021E1,-1.912490923E0,-7.743824369E-1,4.678641418E0,5.113411309E0
1.359091121E1,-2.463255953E0,-1.037277930E0,5.003695153E0,5.672789488E0
1.360090221E1,-2.992192742E0,-1.538909976E0,5.521881251E0,6.466268930E0
1.361089321E1,-3.057203840E0,-1.908779111E0,5.666874658E0,6.715906596E0
1.362088421E1,-2.655112454E0,-1.785141490E0,5.038828733E0,5.968764301E0
1.363087521E1,-2.128625064E0,-1.379285667E0,4.097844504E0,4.819315635E0
1.364086621E1,-1.546365761E0,-8.857104993E-1,3.725159351E0,4.129472405E0
1.365085821E1,-1.010048032E0,-5.423771989E-1,4.017535336E0,4.177913382E0
1.366084921E1,-6.971874958E-1,-2.779766321E-1,4.265544988E0,4.331075554E0
1.367084021E1,-4.092279124E-1,-2.881273985E-2,4.127137885E0,4.147476917E0
1.368083121E1,-1.333387363E-1,1.098949099E-1,3.927450793E0,3.931249908E0
1.369082221E1,1.601569909E-1,2.810657161E-1,3.634259706E0,3.648628757E0
1.370081321E1,3.027851987E-1,4.798862511E-1,3.149343095E0,3.200051815E0
1.371080421E1,3.755736780E-1,6.379967165E-1,2.605236290E0,2.708385409E0
1.372079521E1,5.703023314E-2,4.337575668E-1,2.132284251E0,2.176702599E0
1.373078621E1,2.670686513E-1,7.832795602E-1,1.780161417E0,1.963116706E0
1.374077721E1,1.797293758E-1,8.114719105E-1,1.130529983E0,1.403170465E0
1.375076821E1,-4.271157146E-2,7.233409220E-1,5.828598118E-1,9.299311415E-1
1.376075921E1,-1.990497458E-1,6.184214079E-1,1.499296991E-1,6.667418944E-1
1.377075021E1,-3.588167274E-1,5.957546765E-1,-8.141516894E-3,6.955137401E-1
1.378074121E1,-5.452651387E-1,5.383420354E-1,-1.689552963E-1,7.846477622E-1
1.379073221E1,-7.988021636E-1,4.370437020E-1,-5.846876149E-1,1.082105217E0
1.380072321E1,-1.159508711E0,4.408408839E-1,-1.064258738E0,1.634456422E0
1.381071421E1,-1.578022002E0,4.398661530E-1,-1.546562812E0,2.252885306E0
1.382070521E1,-1.923468486E0,4.235541755E-1,-2.116364622E0,2.891042782E0
1.383069621E1,-2.286609229E0,4.666756368E-1,-2.802150632E0,3.646699341E0
1.384068721E1,-2.758548530E0,4.103347903E-1,-3.691434950E0,4.626516683E0
1.385067821E1,-3.179776683E0,4.124672699E-1,-4.918402988E0,5.871268768E0
1.386066921E1,-2.913413790E0,6.253585446E-1,-6.186829539E0,6.867016308E0
1.387066021E1,-2.314953023E0,7.398850340E-1,-6.724433656E0,7.150136037E0
1.388065121E1,-1.287138226E0,7.383787912E-1,-6.313749787E0,6.485781712E0
1.389064221E1,-3.483899724E-1,5.304307526E-1,-5.019152852E0,5.059113332E0
1.390063421E1,3.066227263E-1,3.737698120E-1,-3.657447424E0,3.689260499E0
1.391062521E1,6.651716512E-1,2.961439312E-1,-2.660043996E0,2.757895686E0
1.392061621E1,9.469331861E-1,3.188743973E-1,-2.000884452E0,2.236493221E0
1.393060721E1,1.214457335E0,3.307115006E-1,-1.362307692E0,1.854766552E0
1.394059821E1,1.511042147E0,3.222102338E-1,-7.903915286E-1,1.735449962E0
1.395058921E1,1.801937032E0,2.642725128E-1,-3.835867023E-1,1.861170542E0
1.396058021E1,2.129173533E0,1.356249976E-1,-8.787314454E-2,2.135297582E0
1.397057121E1,2.532014531E0,-1.436660886E-3,3.130716205E-2,2.532208481E0
1.398056221E1,2.939869518E0,-9.526225269E-2,5.949543754E-2,2.942014171E0
1.399055321E1,3.284318467E0,-1.378165340E-1,1.265548332E-1,3.289643949E0
1.400054421E1,3.376285229E0,-6.061749995E-2,3.084897788E-1,3.390891088E0
1.401053521E1,3.326897891E0,7.769546270E-2,4.711136734E-1,3.360987096E0
1.402052621E1,3.250810413E0,2.887776089E-1,5.602521372E-1,3.311350677E0
1.403051721E1,3.209588712E0,4.973875523E-1,5.330298400E-1,3.291348491E0
1.404050821E1,3.118504295E0,7.111015302E-1,3.917997745E-1,3.222458919E0
1.405049921E1,3.255906261E0,5.007409304E-1,7.332291484E-2,3.295002779E0
1.406049021E1,4.140465444E0,-5.238625753E-1,-3.087855748E-1,4.184881673E0
1.407048121E1,5.310327235E0,-1.258652346E0,-7.624979711E-1,5.510461344E0
1.408047221E1,5.850991784E0,-1.375573854E0,-1.382972921E0,6.167570218E0
1.409046321E1,5.036042535E0,-1.287665645E0,-1.473626983E0,5.402905118E0
1.410045421E1,3.854996774E0,-1.047078449E0,-1.152346968E0,4.157556607E0
1.411044521E1,3.146826453E0,-1.001011160E0,-7.897051386E-1,3.395316521E0
1.412043621E1,2.335122993E0,-8.519451678E-1,-4.305118505E-1,2.522687142E0
1.413042821E1,1.555517238E0,-4.771556014E-1,5.009660482E-2,1.627827084E0
1.414041921E1,6.912443858E-1,9.006349325E-2,6.041308860E-1,9.224447740E-1
1.415041021E1,-9.586042285E-2,6.012674314E-1,1.105600964E0,1.262166881E0
1.416040121E1,-7.534482354E-1,7.418707484E-1,1.488773611E0,1.826062243E0
1.417039221E1,-1.530619209E0,5.412364072E-1,1.950894413E0,2.538054574E0
1.418038321E1,-2.038511869E0,3.902876115E-1,1.977534181E0,2.866792022E0
1.419037421E1,-3.019904451E0,-3.335778058E-2,1.801852248E0,3.516760890E0
1.420036521E1,-3.934345245E0,-3.135733116E-1,1.194913675E0,4.123738524E0
1.421035621E1,-4.088819911E0,-3.681026906E-1,9.026430856E-1,4.203416753E0
1.422034721E1,-3.591068662E0,-5.440834165E-1,1.014425111E0,3.771055450E0
1.423033821E1,-3.030673853E0,-8.605277109E-1,1.028685593E0,3.314164449E0
1.424032921E1,-2.976939111E0,-1.511809886E0,8.657763179E-1,3.449246908E0
1.425032021E1,-2.772383042E0,-1.877813426E0,8.352013003E-1,3.451065373E0
1.426031121E1,-3.039237100E0,-2.388483514E0,7.930649487E-1,3.945981204E0
1.427030221E1,-3.695185938E0,-3.058497244E0,8.031128772E-1,4.863516712E0
1.428029321E1,-3.291666078E0,-2.705772731E0,1.059758793E0,4.390826840E0
1.429028421E1,-3.156414133E0,-2.174977112E0,1.383685112E0,4.075298775E0
1.430027521E1,-3.210772188E0,-1.687199458E0,1.559265450E0,3.948038602E0
1.431026621E1,-2.828259619E0,-1.255484909E0,1.613492528E0,3.489792683E0
1.432025721E1,-2.529324228E0,-9.816171151E-1,1.615992943E0,3.157924382E0
1.433024821E1,-2.310195728E0,-7.444107789E-1,1.908499760E0,3.087640368E0
1.434023921E1,-1.960677243E0,-2.088198584E-1,2.379561978E0,3.090335935E0
1.435023021E1,-1.556565059E0,3.027828598E-1,2.422776118E0,2.895585668E0
1.436022121E1,-1.001648507E0,7.469478858E-1,2.247931652E0,2.571852948E0
1.437021221E1,-6.884353834E-1,1.055096151E0,2.307872191E0,2.629343114E0
1.438020321E1,-1.819326067E-1,1.568016831E0,2.463750043E0,2.926062291E0
1.439019521E1,2.387997025E-1,2.123160841E0,2.629340851E0,3.387959647E0
1.440018621E1,5.063238519E-1,2.450020781E0,2.576370925E0,3.591191002E0
1.441017721E1,7.214014006E-1,2.592685826E0,2.455538213E0,3.643090404E0
1.442016821E1,1.148905955E0,2.646132885E0,2.455154636E0,3.788111459E0
1.443015921E1,1.509165190E0,2.485813926E0,1.997906903E0,3.528240701E0
1.444015021E1,1.824663990E0,2.456558552E0,1.585997896E0,3.446660402E0
1.445014121E1,1.848288496E0,2.291973465E0,1.298349677E0,3.217922406E0
1.446013221E1,1.845222216E0,2.251103767E0,5.525548625E-1,2.962706545E0
1.447012321E1,1.792808944E0,2.031035035E0,-1.043682678E-1,2.711117843E0
1.448011421E1,1.432471941E0,1.615722510E0,-5.371180670E-1,2.225091213E0
1.449010521E1,6.906853920E-1,9.009044892E-1,-8.529517660E-1,1.419930253E0
1.450009621E1,-3.916739863E-1,5.330450428E-1,-7.505401227E-1,1.000427911E0
1.451008721E1,-1.536142489E0,2.284501308E-1,-5.582944894E-1,1.650338131E0
1.452007821E1,-1.946408867E0,3.716548741E-2,-5.248424225E-1,2.016270895E0
1.453006971E1,-1.962929006E0,-9.952253401E-2,-6.104431745E-1,2.058066055E0
1.454006071E1,-1.630452231E0,-3.143071371E-1,-7.814125443E-1,1.835148228E0
1.455005171E1,-1.038867788E0,-3.879329377E-1,-1.073006465E0,1.543075215E0
1.456004271E1,-3.198713475E-1,-4.647922486E-1,-9.096582095E-1,1.070433357E0
1.457003371E1,5.195373899E-1,-6.336966741E-1,-5.331350899E-1,9.776111693E-1
1.458002471E1,1.337219043E0,-5.977631950E-1,-4.353332452E-1,1.528067617E0
1.459001571E1,1.937116472E0,-4.235003811E-1,-8.368967736E-1,2.152247432E0
1.460000671E1,2.320863973E0,-2.673118955E-1,-1.862931093E0,2.988039071E0
1.460999771E1,2.770803124E0,-3.398986459E-2,-3.567293884E0,4.517088766E0
1.461998871E1,4.048163636E0,5.819675267E-1,-4.907710769E0,6.388422342E0
1.462998071E1,4.812037457E0,6.656119466E-1,-3.372762866E0,5.913905064E0
1.463997171E1,4.789476560E0,4.281261134E-1,-1.001551004E0,4.911769753E0
1.464996271E1,5.067392381E0,9.042169368E-1,-1.477859198E0,5.355384358E0
1.465995371E1,4.834282020E0,1.222353415E0,-3.969626759E0,6.373567849E0
1.466994471E1,4.352752116E0,1.247548483E0,-5.150136330E0,6.857603986E0
1.467993571E1,3.804016655E0,1.597523051E0,-4.798790005E0,6.328586582E0
1.468992671E1,3.967022409E0,4.170082176E-1,-4.423112247E0,5.956096423E0
1.469991771E1,4.642469373E0,-1.765886024E0,-3.759871931E0,6.229567583E0
1.470990871E1,3.380804542E0,-1.590090655E0,-2.723617848E0,4.623453452E0
1.471989971E1,1.269261534E0,-1.369325520E0,-2.968786923E0,3.507103222E0
1.472989071E1,4.302872443E-1,-1.747228144E0,-1.672872026E0,2.456919639E0
1.473988171E1,-1.943439066E-2,-2.247338744E0,4.442223287E-1,2.290904320E0
1.474987271E1,-7.156337070E-1,-2.333139617E0,1.327888934E0,2.778301837E0
1.475986371E1,-1.923587185E0,-2.234909318E0,1.884707294E0,3.499589819E0
1.476985471E1,-2.911813408E0,-2.036761798E0,2.088702468E0,4.121860495E0
1.477984571E1,-3.427571157E0,-1.582236675E0,2.509656533E0,4.533221023E0
1.478983671E1,-3.507534170E0,-1.158350962E0,3.265519084E0,4.930333436E0
1.479982771E1,-3.088994567E0,-6.890838397E-1,3.455074121E0,4.685537445E0
1.480981871E1,-2.716104761E0,-5.717635506E-1,3.563361046E0,4.516821955E0
1.481980971E1,-2.282146634E0,-7.237233299E-1,3.775752969E0,4.470825338E0
1.482980071E1,-2.217321478E0,-1.045341825E0,3.918048470E0,4.621726721E0
1.483979171E1,-1.992728755E0,-1.212605522E0,3.919912562E0,4.561479425E0
1.484978271E1,-1.210255526E0,-1.101445275E0,4.106748644E0,4.420778728E0
1.485977371E1,-6.408940119E-1,-1.332170557E0,4.008524777E0,4.272434249E0
1.486976471E1,-8.380586153E-1,-1.430180417E0,3.686827344E0,4.042332758E0
1.487975671E1,-1.096460524E0,-1.267954681E0,3.909109247E0,4.253359831E0
1.488974771E1,-1.057388259E0,-1.110262876E0,4.031194432E0,4.312920372E0
1.489973871E1,-7.821066087E-1,-9.129965311E-1,3.984058857E0,4.161487521E0
1.490972971E1,-5.590622288E-1,-5.542160565E-1,3.555905846E0,3.642001153E0
1.491972071E1,-5.614689428E-1,-3.282217562E-1,2.881186277E0,2.953677582E0
1.492971171E1,-6.227998030E-1,-2.781549722E-1,2.217453625E0,2.319989302E0
1.493970271E1,-6.258602357E-1,-1.115099108E-1,1.719382972E0,1.833143011E0
1.494969371E1,-5.639294511E-1,4.710224569E-2,1.189961010E0,1.317665456E0
1.495968471E1,-5.889789230E-1,1.712304479E-1,8.489128017E-1,1.047315131E0
1.496967571E1,-7.618343121E-1,1.832862371E-1,7.685732281E-1,1.097583788E0
1.497966671E1,-9.801564807E-1,2.139297402E-1,6.404057693E-1,1.190206793E0
1.498965771E1,-1.280106364E0,1.702504545E-1,2.327999476E-1,1.312194093E0
1.499964871E1,-1.493699305E0,1.354875880E-1,-3.592926177E-1,1.542266412E0
1.500963971E1,-1.680392715E0,1.797258675E-2,-7.913305184E-1,1.857483965E0
1.501963071E1,-1.824450567E0,-1.308039683E-1,-1.463758053E0,2.342715771E0
1.502962171E1,-1.948924339E0,-1.498775858E-1,-2.221336176E0,2.958902462E0
1.503961271E1,-1.844814665E0,-5.405341566E-2,-2.778054256E0,3.335243375E0
1.504960371E1,-1.772647160E0,7.226106048E-2,-3.353576982E0,3.793939666E0
1.505959471E1,-1.491004323E0,3.062180990E-1,-4.217653953E0,4.483912163E0
1.506958571E1,-1.327302750E0,6.943211907E-1,-4.861884971E0,5.087409948E0
1.507957671E1,-1.143061078E0,9.912463099E-1,-5.003509212E0,5.227261454E0
1.508956771E1,-9.278741866E-1,1.122606348E0,-4.591755302E0,4.817199630E0
1.509955871E1,-6.804410702E-1,1.172048650E0,-3.876246725E0,4.106334955E0
1.510954971E1,-4.598840958E-1,1.237834504E0,-3.238789122E0,3.497639578E0
1.511954071E1,-3.587822288E-1,1.256947882E0,-2.630903227E0,2.937736281E0
1.512953271E1,-2.976577753E-1,1.257056640E0,-2.026729145E0,2.403418935E0
1.513952371E1,-1.692067266E-1,1.275626813E0,-1.565530010E0,2.026509041E0
1.514951471E1,-7.588107169E-2,1.336604501E0,-1.206556578E0,1.802234253E0
1.515950571E1,5.738574386E-2,1.350446030E0,-8.621193230E-1,1.603199093E0
1.516949671E1,2.513291162E-1,1.318970468E0,-5.771459126E-1,1.461487880E0
1.517948771E1,5.331111163E-1,1.139784299E0,-3.906057000E-1,1.317531223E0
1.518947871E1,8.918541688E-1,9.014453566E-1,-2.616138204E-1,1.294777734E0
1.519946971E1,1.323769863E0,5.661133862E-1,-1.902403672E-1,1.452254252E0
1.520946071E1,1.795979304E0,2.475430441E-1,-1.562457883E-1,1.819679083E0
1.521945171E1,2.182567967E0,-1.307788253E-2,-9.989620764E-2,2.184892037E0
1.522944271E1,2.510413747E0,-2.392645562E-1,-4.792498548E-2,2.522245332E0
1.523943371E1,2.835565131E0,-4.540573454E-1,9.750341736E-2,2.873343801E0
1.524942471E1,3.203081346E0,-5.937356329E-1,1.151094933E-1,3.259678252E0
1.525941571E1,3.339871693E0,-6.436340171E-1,-3.359459281E-2,3.401490302E0
1.526940671E1,3.244609441E0,-5.747052848E-1,-1.739803203E-1,3.299703886E0
1.527939771E1,3.201454065E0,-6.599962807E-1,-3.865605962E-1,3.291554696E0
1.528938871E1,3.202684904E0,-6.931926781E-1,-7.824743986E-1,3.368972079E0
1.529937971E1,3.143512836E0,-1.107087253E0,-1.227113049E0,3.551495681E0
1.530937071E1,3.646251760E0,-2.362265183E0,-1.859395866E0,4.725759376E0
1.531936171E1,4.860432522E0,-2.809346216E0,-2.592028599E0,6.183432924E0
1.532935271E1,5.103335216E0,-2.970107224E0,-3.301154355E0,6.764849394E0
1.533934371E1,4.795789799E0,-3.101887677E0,-3.894150900E0,6.912721475E0
1.534933471E1,4.928895231E0,-2.535359139E0,-3.290625858E0,6.445950101E0
1.535932571E1,3.828627001E0,-1.787965111E0,-1.604859552E0,4.520041829E0
1.536931671E1,2.892291309E0,-9.785292006E-1,-2.299733122E-1,3.061985652E0
1.537930871E1,1.782795587E0,-2.874701715E-1,5.839567129E-1,1.897894794E0
1.538929971E1,6.158579886E-1,3.507276893E-1,1.051149280E0,1.267756200E0
1.539929071E1,-2.433178461E-1,8.272436053E-1,1.315464478E0,1.572889808E0
1.540928171E1,-1.448773978E0,1.249964553E0,1.713937021E0,2.568839725E0
1.541927271E1,-2.600270834E0,1.559192798E0,2.072862507E0,3.672771374E0
1.542926371E1,-3.564550370E0,1.544977047E0,2.393230283E0,4.562951304E0
1.543925471E1,-4.878041412E0,9.291395241E-1,2.283563415E0,5.465642702E0
1.544924571E1,-5.452882937E0,7.681978369E-1,1.556194346E0,5.722394699E0
1.545923671E1,-5.085847948E0,6.744798338E-1,1.235883873E0,5.277137609E0
1.546922771E1,-4.684560555E0,2.806721985E-2,9.492440057E-1,4.779849322E0
1.547921871E1,-4.587552323E0,-9.537785214E-1,7.934777621E-1,4.752361176E0
1.548920971E1,-3.906614240E0,-1.576475998E0,8.114848474E-1,4.290153733E0
1.549920071E1,-3.382945207E0,-2.542385738E0,4.812995962E-1,4.259071826E0
1.550919171E1,-2.853628349E0,-3.383304226E0,1.448530734E-1,4.428422367E0
1.551918271E1,-2.623985971E0,-3.724086971E0,2.201592907E-1,4.560986325E0
1.552917383E1,-3.076511346E0,-3.269061912E0,6.677227914E-1,4.538451451E0
1.553916483E1,-3.550997694E0,-3.188800106E0,9.409983353E-1,4.864515248E0
1.554915583E1,-3.805647444E0,-2.996138443E0,9.787970030E-1,4.941441248E0
1.555914683E1,-3.454790531E0,-2.712754306E0,1.039171697E0,4.513811178E0
1.556913783E1,-2.730540367E0,-2.240957093E0,1.214018940E0,3.735181572E0
1.557912883E1,-2.188245614E0,-1.679168308E0,1.656504500E0,3.217457417E0
1.558911983E1,-2.053702936E0,-1.175315489E0,2.055886871E0,3.134602538E0
1.559911083E1,-2.000585074E0,-5.783428377E-1,2.050775381E0,2.922755676E0
1.560910183E1,-1.960771383E0,-2.171714365E-2,2.005395140E0,2.804764824E0
1.561909283E1,-1.757090642E0,5.007654887E-1,1.861158363E0,2.608072862E0
1.562908483E1,-1.304607952E0,1.142144819E0,1.626614849E0,2.377471885E0
1.563907583E1,-8.106989086E-1,1.868679491E0,1.291257151E0,2.411750565E0
1.564906683E1,-8.791698039E-2,2.481098732E0,7.502424994E-1,2.593538918E0
1.565905783E1,1.158804706E0,3.120498780E0,1.291883826E-1,3.331220590E0
1.566904883E1,2.074178131E0,3.480963253E0,-2.036994517E-1,4.057192817E0
1.567903983E1,2.355384765E0,3.455246029E0,1.240124273E-1,4.183532191E0
1.568903083E1,2.665617562E0,3.446902637E0,9.032008369E-1,4.449991745E0
1.569902183E1,2.857681639E0,3.363712546E0,1.065013321E0,4.540392033E0
1.570901283E1,2.696110207E0,3.111202877E0,8.372256795E-1,4.201135611E0
1.571900383E1,2.288962149E0,2.714154714E0,5.155536819E-1,3.587726179E0
1.572899483E1,1.500929972E0,2.247389615E0,2.635094512E-1,2.715324676E0
1.573898583E1,2.797231954E-1,1.775084279E0,2.006852120E-2,1.797101002E0
1.574897683E1,-1.034674750E0,1.170199760E0,-1.412941656E-1,1.568401530E0
1.575896783E1,-1.633879868E0,5.970971972E-1,1.108234477E-1,1.743092173E0
1.576895883E1,-1.944212068E0,2.673621815E-1,4.634166911E-1,2.016481622E0
1.577894983E1,-1.850454889E0,1.239995635E-1,8.005095506E-1,2.019993745E0
1.578894083E1,-1.340393497E0,3.049790740E-2,6.168040681E-1,1.475815743E0
1.579893183E1,-8.982814282E-1,-1.035892725E-1,3.522738393E-1,9.704314090E-1
1.580892283E1,-5.251939863E-1,-2.940529668E-1,6.777975440E-2,6.057144258E-1
1.581891383E1,2.126398444E-2,-5.356739509E-1,-5.856698374E-1,7.939823028E-1
1.582890483E1,7.911072278E-1,-6.648757821E-1,-1.516380362E0,1.835025846E0
1.583889583E1,1.892973502E0,-4.230402052E-1,-2.400160403E0,3.085949069E0
1.584888683E1,3.219968104E0,-9.402498186E-2,-3.119618189E0,4.484311869E0
1.585887783E1,4.455122829E0,8.492671430E-2,-3.326686807E0,5.560771267E0
1.586886883E1,5.651208798E0,4.202972764E-1,-3.146890773E0,6.481954351E0
1.587885983E1,6.428828253E0,9.219673294E-1,-2.877923823E0,7.103682284E0
1.588885183E1,6.514151993E0,1.364484610E0,-3.159496200E0,7.367388322E0
1.589884283E1,5.643831950E0,1.430568672E0,-4.132339568E0,7.139719610E0
1.590883383E1,4.708427719E0,4.244441217E-1,-4.282282935E0,6.378666909E0
1.591882483E1,4.926086814E0,-2.272319219E0,-3.546083986E0,6.481086141E0
1.592881583E1,4.409633245E0,-2.791508700E0,-1.934277357E0,5.565861575E0
1.593880683E1,1.665803912E0,-2.016211758E0,-2.271439652E0,3.464022318E0
1.594879783E1,-3.745761430E-1,-2.095769559E0,-2.284852141E0,3.122996420E0
1.595878883E1,-7.871638656E-1,-2.608935238E0,-9.487716968E-1,2.885539423E0
1.596877983E1,-9.082263726E-1,-3.284880384E0,3.499090791E-1,3.426040082E0
1.597877083E1,-1.607363915E0,-3.546709346E0,2.228759801E-1,3.900312762E0
1.598876183E1,-2.268650676E0,-3.177968139E0,-9.490756059E-1,4.018333223E0
1.599875283E1,-1.607698960E0,-2.177179173E0,-8.040843920E-1,2.823359136E0
1.600874383E1,-3.924025494E-1,-9.698115867E-1,2.339085212E0,2.562388321E0
1.601873483E1,1.604364878E-1,-3.580934268E-1,3.657682482E0,3.678669856E0
1.602872583E1,-1.434269375E-1,-1.519591945E-1,3.614993130E0,3.621027232E0
1.603871683E1,-9.370303416E-1,3.210285115E-1,3.808601457E0,3.935292902E0
1.604870783E1,-1.883484641E0,5.495862311E-1,3.863907931E0,4.333514038E0
1.605869883E1,-2.179933797E0,6.086933953E-1,3.849929577E0,4.465935149E0
1.606868983E1,-1.889656962E0,6.548366976E-1,3.962086190E0,4.438213775E0
1.607868083E1,-1.394432879E0,8.324920660E-1,4.432554331E0,4.720701642E0
1.608867183E1,-1.116410639E0,9.331097835E-1,4.720275933E0,4.939440400E0
1.609866283E1,-9.908972311E-1,7.838941026E-1,4.380020607E0,4.558612486E0
1.610865383E1,-9.329665267E-1,6.815163732E-1,4.231552784E0,4.386448458E0
1.611864483E1,-9.014892107E-1,3.943297917E-1,4.215174733E0,4.328495907E0
1.612863583E1,-8.899298501E-1,2.067826885E-1,4.167883623E0,4.266847561E0
1.613862683E1,-1.029383605E0,8.504775167E-3,3.984693865E0,4.115517966E0
1.614861883E1,-1.056003639E0,-2.694940764E-1,3.800429681E0,3.953610565E0
1.615860983E1,-8.476006866E-1,-4.789138591E-1,3.547230917E0,3.678400819E0
1.616860083E1,-5.661291736E-1,-5.064466435E-1,3.216940416E0,3.305404073E0
1.617859183E1,-2.372642237E-1,-3.744919431E-1,2.838318000E0,2.872731731E0
1.618858283E1,-2.416069508E-2,-4.979354364E-1,2.391503016E0,2.442910173E0
1.619857383E1,2.044157356E-1,-5.264938223E-1,1.755349195E0,1.843971891E0
1.620856483E1,1.226593816E-1,-3.733102208E-1,1.298818478E0,1.356958099E0
1.621855583E1,1.292421770E-1,-2.698139191E-1,9.898305528E-1,1.034053971E0
1.622854683E1,2.091695219E-1,-9.577622294E-2,7.858516042E-1,8.188331439E-1
1.623853783E1,1.351168746E-1,1.743516916E-1,5.838876061E-1,6.241632949E-1
1.624852883E1,5.517666578E-2,2.652221006E-1,2.534359411E-1,3.709676581E-1
1.625851983E1,6.895738363E-2,3.302255970E-1,-3.242456496E-1,4.679095072E-1
1.626851083E1,-2.382687753E-1,4.849341524E-1,-7.157892430E-1,8.968207077E-1
1.627850183E1,-3.766834795E-1,5.078523141E-1,-1.087681441E0,1.258115787E0
1.628849283E1,-5.464334124E-1,4.955187821E-1,-1.787510197E0,1.933732412E0
1.629848383E1,-7.126609826E-1,4.392060024E-1,-2.226499268E0,2.378673281E0
1.630847483E1,-9.537229729E-1,3.992133862E-1,-2.467729658E0,2.675565081E0
1.631846583E1,-9.509484690E-1,5.232176274E-1,-2.715872626E0,2.924726278E0
1.632845683E1,-9.187443441E-1,7.366205335E-1,-2.863432961E0,3.096118425E0
1.633844783E1,-7.142391461E-1,8.930967021E-1,-2.870525633E0,3.089931502E0
1.634843883E1,-3.853408670E-1,1.081029137E0,-2.591607599E0,2.834350283E0
1.635842983E1,-5.896156847E-2,1.240658124E0,-2.038459829E0,2.387054152E0
1.636842083E1,1.730594569E-1,1.423715735E0,-1.580999404E0,2.134590168E0
1.637841183E1,3.713870716E-1,1.531841277E0,-1.254652265E0,2.014601291E0
1.638840283E1,6.237792116E-1,1.629867509E0,-8.813706958E-1,1.955091534E0
1.639839383E1,8.686711282E-1,1.727542323E0,-4.394592599E-1,1.982956492E0
1.640838483E1,1.110401455E0,1.737935749E0,-9.442902446E-2,2.064540845E0
1.641837683E1,1.304673441E0,1.674123330E0,2.260883673E-1,2.134473626E0
1.642836783E1,1.470958314E0,1.579410716E0,5.138860559E-1,2.218633690E0
1.643835883E1,1.642631981E0,1.395692369E0,7.404118681E-1,2.279124119E0
1.644834983E1,1.863804667E0,1.139319445E0,8.879102218E-1,2.358007887E0
1.645834083E1,2.194155394E0,8.649248171E-1,1.000533516E0,2.561928990E0
