"Time (s)","Linear Acceleration x (m/s^2)","Linear Acceleration y (m/s^2)","Linear Acceleration z (m/s^2)","Absolute acceleration (m/s^2)"
9.723166673E-3,5.646923666E-1,-6.264432031E-1,9.352796853E-2,8.485611566E-1
1.971416667E-2,5.765049116E-1,-3.215085679E-1,1.248257750E-1,6.717939762E-1
2.970516667E-2,6.843046179E-1,-5.040650725E-2,3.869687319E-1,7.877553082E-1
3.969616667E-2,6.988071746E-1,3.638400704E-2,5.087159479E-1,8.651284175E-1
4.968716667E-2,6.007473215E-1,-8.153357506E-3,4.710920388E-1,7.634733332E-1
5.967816667E-2,5.332605127E-1,-1.742022952E-1,4.186126935E-1,6.999641428E-1
6.966916667E-2,5.819213337E-1,-3.421606413E-1,1.776957142E-1,6.980559504E-1
7.966016667E-2,8.015760827E-1,-6.287867671E-1,-4.965888226E-1,1.133356728E0
8.965116667E-2,6.647591302E-1,-8.355557147E-1,-1.151770506E0,1.570551926E0
9.964216667E-2,-1.316980076E-1,-5.695636819E-1,-1.760362744E-1,6.105210258E-1
1.096331667E-1,-6.498940462E-1,-4.488540544E-1,1.185798377E0,1.424763147E0
1.196231667E-1,9.337126315E-2,-1.050569236E0,1.939837766E0,2.208027281E0
1.296141667E-1,1.868202943E-1,-9.516021878E-1,2.701432343E0,2.870223902E0
1.402301667E-1,4.491272655E-1,-1.160028675E0,3.105790694E0,3.345641592E0
1.502211667E-1,3.601250419E-1,-1.363943743E0,2.783949419E0,3.120962503E0
1.602121667E-1,3.901051784E-1,-1.342155555E0,2.538153523E0,2.897548428E0
1.702031667E-1,6.646983191E-1,-7.310544227E-1,2.514533696E0,2.701692827E0
1.801931667E-1,6.934660354E-1,-2.011217067E-1,2.333282874E0,2.442448373E0
1.901841667E-1,1.390062670E0,-2.443832088E-1,1.065416486E0,1.768363557E0
2.001751667E-1,2.067464358E0,-7.106932484E-2,-1.121051574E-1,2.071720851E0
2.101661667E-1,2.328153697E0,-2.593847521E-1,-9.662365991E-1,2.534007350E0
2.201571667E-1,2.301690368E0,-3.232130313E-1,-2.859645134E-1,2.341798650E0
2.301481667E-1,2.583487571E0,-4.876595396E-1,1.055089134E-1,2.631226327E0
2.401391667E-1,2.795108830E0,-1.149307366E0,-7.318106139E-1,3.109515649E0
2.501301667E-1,3.492413855E0,-1.450658535E0,-5.694317980E0,6.835687381E0
2.601211667E-1,3.439628116E0,2.179388836E-2,-8.225305740E0,8.915557810E0
2.701121667E-1,3.019860890E0,4.704475294E-1,-5.244247851E0,6.069844824E0
2.801031667E-1,2.379746312E0,3.379996164E-1,-4.366725792E0,4.984549167E0
2.900941667E-1,9.578066683E-1,8.254093337E-1,-5.289818126E0,5.438829836E0
3.000851667E-1,-1.057716580E0,1.277315342E0,-6.257687268E0,6.473712134E0
3.100751667E-1,-3.664985070E0,1.947128513E0,-1.693232031E0,4.482238249E0
3.200661667E-1,-4.146553857E0,1.417259824E0,3.127734125E0,5.383795599E0
3.300571667E-1,-2.601251412E0,-5.573723835E-1,-2.565875173E-1,2.672641023E0
3.400481667E-1,-1.180460162E0,-1.932788363E0,6.378306556E-1,2.352867399E0
3.500391667E-1,6.982038881E-1,-2.690343098E0,-3.328235149E-1,2.799322444E0
3.600301667E-1,1.950431752E0,-2.925498816E0,2.792027932E-1,3.527135033E0
3.700219583E-1,3.004630939E0,-2.477436621E0,9.598122633E-1,4.010827704E0
3.800129583E-1,3.667823893E0,-1.569607859E0,6.797575307E-1,4.047057108E0
3.900039583E-1,2.469133282E0,-8.786394614E-1,-2.103991914E-1,2.629238347E0
3.999949583E-1,1.097680253E0,-4.478552037E-1,-1.246251571E0,1.720063719E0
4.099859583E-1,1.664288606E0,-9.354629955E-1,-2.699026798E0,3.306008656E0
4.199769583E-1,2.186058316E0,-1.645210018E0,-3.318678460E0,4.301068901E0
4.299679583E-1,1.957632598E0,-2.221080068E0,-3.182476927E0,4.346686261E0
4.399579583E-1,2.077913917E0,-2.592110752E0,-2.646624636E0,4.247515316E0
4.499489583E-1,2.508955452E0,-2.849854849E0,-1.988333403E0,4.286023780E0
4.599399583E-1,2.865236827E0,-3.133351252E0,-1.456102293E0,4.488619613E0
4.699309583E-1,3.109180617E0,-2.913725447E0,-1.631697103E0,4.562810047E0
4.799219583E-1,3.089015617E0,-2.494563408E0,-2.267998127E0,4.572600964E0
4.899129583E-1,2.448721091E0,-2.360708362E0,-3.675728744E0,5.008009659E0
4.999039583E-1,1.634126182E0,-2.427981455E0,-5.200160429E0,5.967171090E0
5.098949583E-1,1.172968709E0,-2.977017756E0,-5.870437285E0,6.685845064E0
5.198859583E-1,1.377694493E0,-3.505331524E0,-5.111219602E0,6.349012287E0
5.298769583E-1,1.978402200E0,-3.664754982E0,-3.453854976E0,5.410510007E0
5.398679583E-1,2.058762239E0,-3.957625642E0,-2.208351849E0,4.977762606E0
5.498579583E-1,1.615148021E0,-4.551708014E0,-1.713603730E0,5.124762114E0
5.598489583E-1,5.970758548E-1,-5.182055111E0,-1.933447929E0,5.563130022E0
5.698399583E-1,-8.238858417E-1,-5.999670106E0,-2.426102160E0,6.523863959E0
5.798309583E-1,-1.715851692E0,-6.570703340E0,-2.435949456E0,7.214716845E0
5.898219583E-1,-2.246471018E0,-6.509754303E0,-1.705079075E0,7.094422299E0
5.998129583E-1,-2.833262497E0,-6.384140908E0,-8.172922289E-1,7.032254126E0
6.098039583E-1,1.244092194E0,-4.525262520E-1,-6.990059799E-1,1.497048682E0
6.197949583E-1,-8.217273420E-1,-6.207294209E0,1.228056790E0,6.380741391E0
6.297859583E-1,-1.674188234E0,-5.935287584E0,4.852723553E0,7.847258810E0
6.397769583E-1,-1.802383175E0,-6.356302314E0,7.169348295E0,9.749395837E0
6.497679583E-1,-6.737389916E-1,-6.134739034E0,9.672287546E0,1.147353884E1
6.597589583E-1,-1.811525881E-1,-5.376158697E0,1.086418515E1,1.212297066E1
6.697499583E-1,-2.761008453E-1,-4.813119192E0,1.030840497E1,1.138005101E1
6.797399583E-1,1.031133091E-1,-3.884043403E0,8.766659676E0,9.589095233E0
6.897309583E-1,5.396407020E-1,-2.554437434E0,6.915413074E0,7.391840142E0
6.997219583E-1,1.152769210E0,-1.174711179E0,5.165467730E0,5.421335635E0
7.097129583E-1,1.970902854E0,4.584415877E-1,4.514785771E0,4.947516277E0
7.197039583E-1,2.470600056E0,1.673435113E0,4.778630268E0,5.633787088E0
7.296949583E-1,2.554914567E0,2.171858499E0,5.816323643E0,6.713730595E0
7.396859583E-1,2.094784888E0,2.204645153E0,7.173546011E0,7.791556093E0
7.496769583E-1,1.801266941E0,2.223240615E0,8.090588815E0,8.581665852E0
7.596679583E-1,2.232788533E0,2.575923613E0,8.225262471E0,8.903688551E0
7.696589583E-1,3.599683950E0,3.485171202E0,7.689614832E0,9.177925643E0
7.796499583E-1,4.866787276E0,4.745912465E0,6.165486617E0,9.177283299E0
7.896399583E-1,5.966069666E0,6.188673751E0,4.008032149E0,9.484618693E0
7.996309583E-1,6.334778713E0,7.079714572E0,2.244309010E0,9.761593246E0
8.096219583E-1,6.052510809E0,7.053723114E0,1.068485690E0,9.355723303E0
8.196129583E-1,5.134868081E0,6.591523520E0,-8.479135126E-2,8.355970446E0
8.296039583E-1,4.456315661E0,6.168585057E0,-1.142251824E0,7.695123787E0
8.395949583E-1,4.183855877E0,6.283164171E0,-1.946843315E0,7.795704002E0
8.495859583E-1,3.654364187E0,6.099784963E0,-2.769368802E0,7.630934266E0
8.595769583E-1,2.746533671E0,5.655157422E0,-3.504495957E0,7.197620759E0
8.695679583E-1,1.350039648E0,4.823048934E0,-4.043725600E0,6.437089777E0
8.795589583E-1,-1.137973416E-1,4.225571083E0,-5.699648886E0,7.096083303E0
8.895499583E-1,-1.858626958E0,3.810884795E0,-1.134358433E1,1.211008846E1
8.995399583E-1,-3.529999173E0,2.844479796E0,-1.492968169E1,1.560279959E1
9.095309583E-1,-3.690263168E0,5.491192944E-1,-1.272342899E1,1.325915607E1
9.195219583E-1,-2.616672859E0,-8.532223459E-1,-8.805650080E0,9.225748671E0
9.295129583E-1,-5.430244857E-1,-5.559262940E-1,-5.635554047E0,5.688883815E0
9.395039583E-1,-5.213886184E-1,4.471243018E-1,-4.417024126E0,4.470108317E0
9.494949583E-1,-3.212701185E0,1.063400147E0,-3.750906395E0,5.051887525E0
9.594859583E-1,-4.917908898E0,-1.249074899E-1,-4.586018599E0,6.725548037E0
9.694769583E-1,-5.618556191E0,-4.178933398E-1,-5.454996706E0,7.842180665E0
9.794679583E-1,-3.605620043E0,2.844231874E-1,-2.978528384E0,4.685405402E0
9.894589583E-1,-1.570283212E0,-7.193654001E-2,2.295908056E0,2.782473367E0
9.994499583E-1,-3.284424886E0,7.977736384E-2,3.976645757E0,5.158248030E0
1.009440958E0,-3.258350397E0,-1.159738872E0,3.973854881E0,5.268146180E0
1.019430958E0,-5.141307034E0,-1.264619575E0,3.178689101E0,6.175464767E0
1.029421958E0,-4.508426047E0,-1.356614550E0,1.216895624E0,4.862832859E0
1.039412958E0,-7.448206687E-1,-2.172757655E0,-2.312121801E0,3.259070554E0
1.049403958E0,3.161725743E0,-3.001908476E0,-2.794807699E0,5.178698123E0
1.059394958E0,5.733583787E0,-3.653581245E0,-9.745642036E-1,6.868217698E0
1.069385958E0,6.871711569E0,-3.109063965E0,4.205259939E-2,7.542444369E0
1.079376958E0,7.450729761E0,-1.756393362E0,6.228056502E-1,7.680245991E0
1.089367958E0,5.321536932E0,-6.586929363E-1,-3.001334864E-1,5.370541110E0
1.099358958E0,2.659038275E0,-1.319718619E0,-6.897001362E-1,3.047593815E0
1.109349958E0,-3.731634557E-1,-4.452349787E0,2.536287092E0,5.137647497E0
1.119340958E0,-2.714616060E0,-7.855243063E0,5.614370170E0,1.002971267E1
1.129330958E0,-2.740480633E0,-7.436811048E0,5.711555572E0,9.769250725E0
1.139321958E0,-1.723502482E0,-4.544583767E0,4.166297858E0,6.401698232E0
1.149312958E0,3.160934615E-1,-2.132987671E0,1.240770975E0,2.487782968E0
1.159303958E0,1.530249665E0,-5.756349921E-1,-2.338441873E-1,1.651575849E0
1.169294958E0,2.372089675E0,6.493438232E-1,-5.461930919E-1,2.519282382E0
1.179285958E0,3.705524985E0,1.116733113E0,-4.398275614E-1,3.895055397E0
1.189276958E0,3.547036205E0,8.600789371E-1,8.857420743E-1,3.755760993E0
1.199267958E0,9.305510420E-1,2.182834893E0,1.225124411E0,2.670509920E0
1.209258958E0,-1.597693205E-1,2.707123438E0,1.703410864E0,3.202444709E0
1.219249958E0,2.500905590E0,2.366530727E0,2.786598208E0,4.429461144E0
1.229240958E0,1.346426069E0,8.483330503E-1,1.141832140E0,1.958650750E0
1.239230958E0,5.899957538E-1,-2.050902119E-1,-4.574515079E-1,7.742214583E-1
1.249221958E0,-1.028592476E0,-1.822609863E0,-6.708833577E-1,2.197724659E0
1.259212958E0,-2.652979390E0,-2.568020516E0,-2.238087572E-1,3.699070069E0
1.269203958E0,-2.378919223E0,-1.915323022E0,1.552167369E0,3.425922137E0
1.279194958E0,-1.745126070E0,-3.554990172E-1,2.633599963E0,3.179259869E0
1.289185958E0,-4.041911209E-1,1.332681019E0,2.347707955E0,2.729677967E0
1.299176958E0,-2.622072762E-1,2.529600509E0,8.035886943E-1,2.667093208E0
1.309167958E0,2.657682306E-1,3.668282022E0,3.862401688E-1,3.698122120E0
1.319158958E0,1.887367777E0,4.585668643E0,1.552190611E0,5.196134113E0
1.329149958E0,2.884851311E0,4.695284348E0,1.724747792E0,5.774323956E0
1.339140958E0,2.790031108E0,3.957572724E0,6.887206545E-1,4.890909076E0
1.349130958E0,7.259230524E-1,2.851777998E0,-1.665205157E-1,2.947427880E0
1.359121958E0,-1.105543004E0,1.545136092E0,-1.643521342E0,2.512137193E0
1.369112917E0,-2.731006975E0,4.827505097E-1,-3.085147684E0,4.148443489E0
1.379103917E0,-3.052226690E0,2.513373023E-1,-2.915441020E0,4.228363105E0
1.389094917E0,-2.361791559E0,9.655627075E-1,-1.162708892E0,2.803972660E0
1.399085917E0,-3.369217699E0,1.557020558E0,-3.890778226E-1,3.731932807E0
1.409076917E0,-4.680112578E0,2.037581577E0,-4.917560989E-1,5.128061669E0
1.419067917E0,-4.881909345E0,3.242006260E0,3.041604638E-2,5.860423925E0
1.429058917E0,-5.945051849E0,4.861974433E0,9.065862286E-1,7.733326288E0
1.439049917E0,-8.119241926E0,4.513931201E0,-2.428997701E-1,9.292828667E0
1.449040917E0,-7.059625878E0,1.812462605E0,-2.217907369E0,7.618559662E0
1.459030917E0,-3.770580522E0,3.949466729E-1,-1.735063012E0,4.169376932E0
1.469021917E0,5.840725243E-2,1.039035603E0,6.293288040E-1,1.216166574E0
1.479012917E0,3.824282520E0,1.791524311E0,7.934320807E-1,4.297002515E0
1.489003917E0,6.741592895E0,4.840290034E-1,2.479875056E-1,6.763494410E0
1.498994917E0,8.781660708E0,-2.423896590E0,-9.416788050E-1,9.158580591E0
1.508985917E0,8.550342518E0,-4.114520763E0,-2.587977648E0,9.835408817E0
1.518976917E0,5.697562600E0,-1.778642310E0,-4.515359091E0,7.484267216E0
1.528967917E0,1.865485157E0,1.810121380E0,-1.848704817E0,3.189715314E0
1.538958917E0,-1.149142182E0,1.756781325E0,2.320899495E-1,2.112030805E0
1.548949917E0,-1.432390664E0,1.567262540E0,-7.086170483E-1,2.238346043E0
1.558940917E0,-1.157274490E0,8.371195525E-1,-1.112242232E0,1.810286213E0
1.568930917E0,-5.887257385E-1,-4.159106952E-1,-1.708462858E0,1.854299070E0
1.578921917E0,6.027040923E-1,-1.272784481E0,-2.510684474E0,2.878674883E0
1.588912917E0,1.782616078E0,-1.859361368E0,-2.909096206E0,3.885586895E0
1.598903917E0,3.825962425E0,-2.221785243E0,-8.067754269E-1,4.497244126E0
1.608894917E0,6.887190319E0,-2.016536863E0,1.299095782E0,7.292973417E0
1.618885917E0,8.656491117E0,-1.540342544E0,9.860206532E-1,8.847583305E0
1.628876917E0,9.274825986E0,-9.195430738E-1,2.564495595E-1,9.323825551E0
1.638867917E0,8.764511994E0,-4.956725639E-1,4.059008467E-1,8.787896067E0
1.648858917E0,8.098705920E0,-1.157137665E0,3.076218401E0,8.740201645E0
1.658849917E0,3.476065625E0,-1.486844614E0,9.926975888E-1,3.908860146E0
1.668839917E0,-3.745586014E-1,-4.327711415E-1,-1.650646175E0,1.747059759E0
1.678830917E0,-2.178273187E0,4.923577774E-1,-3.511215577E0,4.161240811E0
1.688821917E0,-4.291053466E0,7.776054221E-1,-5.319956430E0,6.878934980E0
1.698812917E0,-4.809942400E0,3.685944414E-1,-6.694333359E0,8.251394238E0
1.708803917E0,-3.459943682E0,-1.795416217E0,-7.926364501E0,8.833005371E0
1.718794917E0,-1.652702640E0,-3.236813348E0,-8.115868667E0,8.892452468E0
1.728785917E0,1.395366095E0,-2.073244330E0,-5.629457740E0,6.159235589E0
1.738776917E0,4.289294039E0,-2.898248452E-1,-1.815279648E0,4.666613547E0
1.748767917E0,5.381514747E0,-7.182520902E-1,2.447492445E-1,5.434748313E0
1.758758917E0,5.419526911E0,-1.778987296E0,5.281000525E-1,5.728434114E0
1.768749917E0,6.071983207E0,-3.631471753E0,9.436371106E-1,7.137717993E0
1.778739917E0,5.942256880E0,-5.617363359E0,1.143444071E0,8.256673197E0
1.788730917E0,5.153216643E0,-3.943224242E0,-7.349635787E-1,6.530300962E0
1.798721917E0,5.099791219E0,3.037938434E-1,-1.859072077E0,5.436571545E0
1.808712917E0,5.043305361E0,2.896034696E0,-1.704063559E0,6.060179745E0
1.818703917E0,3.810567291E0,3.317325999E0,-7.922338401E-1,5.113971971E0
1.828694917E0,1.057813936E0,3.950145591E0,-6.121900302E-1,4.134899896E0
1.838685917E0,-9.669230622E-1,4.967855229E0,-7.085984103E-1,5.110443963E0
1.848676917E0,-3.927504002E0,4.001106999E0,-6.500589377E-1,5.644175895E0
1.858667917E0,-4.190070298E0,2.420767745E0,-2.146529238E0,5.293807075E0
1.868658917E0,-2.742334785E0,7.674412072E-1,-7.146178995E-1,2.935991285E0
1.878649917E0,-2.454876893E0,-1.624206820E0,1.680146547E0,3.389300927E0
1.888639917E0,-1.939753566E0,-3.380329748E0,2.919716504E0,4.869704053E0
1.898630917E0,-1.524971384E0,-4.524790649E0,2.735516932E0,5.502937491E0
1.908621917E0,-1.189253497E0,-5.122208274E0,2.969566941E-1,5.266832517E0
1.918612917E0,-9.909732449E-1,-3.930603027E0,-1.345203416E0,4.270976511E0
1.928603917E0,-2.228018374E0,-2.377448648E0,3.957863331E-2,3.258511074E0
1.938594917E0,-2.104532781E0,-1.651661836E0,1.136720942E0,2.906747245E0
1.948585917E0,-1.309647083E0,-1.921372259E0,5.017916020E-1,2.378789955E0
1.958576917E0,-9.579025626E-2,-2.043304247E0,-5.668196567E-1,2.122628687E0
1.968567917E0,6.327236974E-1,-1.844205385E0,-1.153497700E0,2.265389530E0
1.978558917E0,-6.562955779E-1,-1.724704084E0,-1.139612902E0,2.168881193E0
1.988548917E0,-1.990112126E0,-1.312480643E0,-2.140339668E-1,2.393525069E0
1.998539917E0,-2.837632121E0,-9.155634588E-1,1.217075280E-1,2.984162399E0
2.008530917E0,-3.659638376E0,-1.804908587E0,8.437625742E-1,4.166843329E0
2.018521917E0,-4.123976880E0,-2.165718046E0,1.266560997E0,4.827183104E0
2.028512917E0,-4.301736329E0,-1.393502587E0,4.260877740E-1,4.541842764E0
2.038503917E0,-3.966254085E0,-1.639927644E-1,1.943124779E-1,3.974395858E0
2.048494917E0,-3.980197940E0,8.927780288E-1,2.030634208E-1,4.084147770E0
2.058485917E0,-3.630517488E0,1.666096272E0,4.776555383E-1,4.023019864E0
2.068476917E0,-3.005023288E0,2.499829118E0,6.889060843E-1,3.969118563E0
2.078467917E0,-2.768477687E0,2.985008853E0,6.397482499E-1,4.121167841E0
2.088458917E0,-2.411817412E0,3.101133971E0,7.104125820E-1,3.992315265E0
2.098448917E0,-1.953889210E0,2.731862422E0,1.807524339E0,3.814170890E0
2.108439917E0,-1.609634389E0,2.322507625E0,2.386988088E0,3.699010228E0
2.118430917E0,-1.146172966E0,1.973956270E0,1.809771132E0,2.912985989E0
2.128421917E0,-6.735682529E-1,1.535230908E0,5.714814225E-1,1.771219679E0
2.138412917E0,-1.107608240E0,9.276777202E-1,-9.809066784E-1,1.746298909E0
2.148403917E0,-2.043161575E0,1.964869112E-1,-1.295965475E0,2.427476641E0
2.158394917E0,-3.488790920E0,-2.957305330E-1,-1.927417696E-1,3.506603488E0
2.168385917E0,-4.306029940E0,8.417768598E-2,6.416018173E-1,4.354380853E0
2.178376917E0,-4.155112134E0,-2.675159633E-1,1.068321383E0,4.298584909E0
2.188367917E0,-2.185604426E0,-2.101914398E0,2.250662887E0,3.776293722E0
2.198357917E0,9.576493782E-1,-3.037070707E0,-4.532217783E-1,3.216566615E0
2.208348917E0,2.309907460E0,-3.824201244E0,-1.775491830E0,4.807552274E0
2.218339917E0,7.746291894E-1,-2.357737100E0,-1.078387365E0,2.705899836E0
2.228330917E0,-2.023940608E0,6.736162001E-1,-1.094967437E0,2.397717260E0
2.238321917E0,-3.371865903E0,2.244394671E0,-6.523010525E-1,4.102716633E0
2.248312917E0,-3.842636930E0,2.600323459E0,-4.082917732E-1,4.657707895E0
2.258303917E0,-3.412199997E0,1.293652024E0,-1.112356764E-1,3.650892734E0
2.268294917E0,-2.828719795E0,-3.990894252E-1,-4.700263837E-1,2.895142976E0
2.278285917E0,-1.334867878E0,-1.437692335E0,-1.117699657E0,2.257893714E0
2.288276917E0,-5.930111629E-1,-1.673100067E0,-1.897339618E0,2.598234728E0
2.298266917E0,-1.582636625E-1,-9.600987768E-1,-3.661604502E0,3.788691671E0
2.308257917E0,-5.601340234E-2,-1.029823315E0,-5.685032601E0,5.777825650E0
2.318248917E0,8.267653030E-1,-2.186963904E-1,-6.288234876E0,6.346122189E0
2.328239917E0,2.317321145E0,6.521931714E-1,-5.724971423E0,6.210525825E0
2.338230917E0,3.488329575E0,8.406237888E-1,-5.357561628E0,6.448143777E0
2.348221917E0,4.606903099E0,5.739697051E-1,-4.737468208E0,6.632993473E0
2.358212917E0,5.658646456E0,-4.184618354E-1,-4.407570055E0,7.184849603E0
2.368203542E0,6.468334381E0,-1.906475893E0,-4.181503834E0,7.934669137E0
2.378194542E0,6.285604214E0,-1.549729080E0,-3.287200852E0,7.260590196E0
2.388185542E0,4.869764678E0,-4.554203314E-1,-5.065338839E0,7.041283495E0
2.398175542E0,3.326322525E0,3.299303126E-1,-6.159915390E0,7.008411601E0
2.408166542E0,9.908311576E-1,1.277738827E0,-3.460859648E0,3.819936177E0
2.418157542E0,-1.555818955E0,1.052372518E0,-2.278462596E0,2.952871880E0
2.428148542E0,-4.757080062E0,-6.823379070E-1,8.615579903E-1,4.882384449E0
2.438139542E0,-7.096998357E0,-4.366551545E0,3.480877883E0,9.030540898E0
2.448130542E0,-9.004308647E0,-4.709842161E0,6.089786224E0,1.184675836E1
2.458121542E0,-1.034919631E1,-9.762628198E-2,7.124414781E0,1.256473960E1
2.468112542E0,-9.697652768E0,3.677715628E0,4.069824939E0,1.114152308E1
2.478103542E0,-3.992219816E0,-3.398633287E0,-1.986810058E0,5.606776390E0
2.488094542E0,2.626254106E0,-6.268838493E0,-3.121336101E0,7.479190179E0
2.498084542E0,4.476239464E0,6.612627876E-1,5.675979357E0,7.258838053E0
2.508075542E0,3.384474839E0,7.311288285E0,1.301222648E1,1.530449752E1
2.518066542E0,1.864209294E-1,6.759755516E0,1.501103283E1,1.646390458E1
2.528057542E0,-1.923805870E0,2.819951311E0,1.256387134E1,1.301937086E1
2.538048542E0,-2.873601853E0,-5.907582307E-1,6.299452175E0,6.949077680E0
2.548039542E0,-2.480380109E0,-2.311052345E0,1.310545800E0,3.634663495E0
2.558030542E0,-9.146705890E-1,-2.795718695E0,-4.829325043E-2,2.941937720E0
2.568021542E0,-2.208142519E-2,-2.312396620E0,-1.284509318E0,2.645303367E0
2.578012542E0,-1.430583875E0,-5.634061253E-1,-2.391800054E0,2.843361423E0
2.588003542E0,-4.452795053E0,2.201495404E0,-2.261567359E0,5.457898196E0
2.597993542E0,-8.776238000E0,3.939410688E0,-1.472365154E0,9.731863601E0
2.607984542E0,-9.046479351E0,9.164931661E-1,-2.943686799E-1,9.097549191E0
2.617975542E0,-8.860663608E0,-2.068011072E0,1.173244990E0,9.174123020E0
2.627966542E0,-7.890862547E0,-3.605542860E0,1.333671538E0,8.777490007E0
2.637957542E0,-6.815825052E0,-3.411806479E0,1.282946357E0,7.729284957E0
2.647948542E0,-4.950166233E0,-4.091949926E0,1.018402534E0,6.502718174E0
2.657939542E0,-2.369159635E0,-6.208544344E0,1.768041893E0,6.876402575E0
2.667930542E0,-7.989454204E-1,-6.589958221E0,2.989279659E0,7.280223624E0
2.677921542E0,9.621578738E-1,-5.374151348E0,3.426461940E0,6.445765425E0
2.687912542E0,1.644996887E0,-3.948882008E0,3.321568739E0,5.415948925E0
2.697902542E0,2.536654882E0,-2.809637992E0,3.050624553E0,4.861583466E0
2.707893542E0,5.237754518E0,-4.435739309E0,2.163277418E0,7.196500872E0
2.717884542E0,7.732112396E0,-4.735464075E0,1.113537902E0,9.135105296E0
2.727875542E0,9.521446924E0,-3.385028570E0,-2.290383607E-1,1.010785974E1
2.737866542E0,9.272428043E0,-1.002091141E0,-2.444064807E0,9.641346444E0
2.747857542E0,6.581513672E0,6.891417271E-1,-4.656392763E0,8.091553132E0
2.757848542E0,2.606643714E0,7.536113727E-1,-4.903206074E0,5.603922855E0
2.767839542E0,-4.229106894E-1,8.743984759E-2,-3.664733639E0,3.690091032E0
2.777830542E0,-2.394261732E0,-2.324624902E-1,-2.314610522E0,3.338255520E0
2.787821542E0,-3.474414079E0,-4.250861460E-1,-1.270133646E0,3.723639470E0
2.797811542E0,-3.692327235E0,-4.459197754E-1,-5.371841405E-1,3.757750877E0
2.807802542E0,-3.147761715E0,-3.704316366E-1,-2.924341652E-1,3.182945358E0
2.817793542E0,-2.196911480E0,-1.237890637E-1,-4.597133571E-1,2.247905726E0
2.827784542E0,-1.129124532E0,3.479724813E-1,-8.128056604E-1,1.434106027E0
2.837775542E0,-2.038108411E-1,7.047573012E-1,-8.269104601E-1,1.105442274E0
2.847766542E0,5.948735011E-1,1.006682374E0,-6.112638313E-1,1.319442063E0
2.857757542E0,9.372630608E-1,1.046248729E0,-9.253031659E-1,1.682047680E0
2.867748542E0,3.218918529E-1,6.916425812E-1,-1.651032968E-1,7.805401487E-1
2.877739542E0,-3.791302469E-1,6.278079432E-1,1.881836164E0,2.019700450E0
2.887730542E0,-4.488159013E-1,2.526997036E-1,7.885189578E-1,9.418359731E-1
2.897720542E0,-4.641116327E-1,-3.906817138E-1,-1.695148163E0,1.800433033E0
2.907711542E0,-4.564105573E-1,-8.678232819E-1,-3.555280194E0,3.688013707E0
2.917702542E0,-2.285787696E-1,-1.187811574E0,-3.527936567E0,3.729541662E0
2.927693542E0,1.994812703E-1,-1.391707492E0,-2.190792368E0,2.603116156E0
2.937684542E0,8.029478395E-1,-1.544506347E0,-1.212011738E0,2.121131193E0
2.947675542E0,1.564033123E0,-1.699551702E0,-1.278697770E0,2.640027194E0
2.957666542E0,2.290357295E0,-2.067284848E0,-2.184244364E0,3.780254836E0
2.967657542E0,2.827424637E0,-2.374053755E0,-3.237139038E0,4.910145666E0
2.977648542E0,3.190973224E0,-2.305147827E0,-3.951582837E0,5.577725659E0
2.987638542E0,3.117481617E0,-1.947312847E0,-3.954421952E0,5.398904697E0
2.997629542E0,2.709894433E0,-1.469098315E0,-3.550801227E0,4.702123675E0
3.007620542E0,2.497047890E0,-8.786710364E-1,-3.134724471E0,4.102902444E0
3.017611542E0,2.513672693E0,-6.172262371E-1,-3.151108077E0,4.077867181E0
3.027602542E0,2.741011561E0,-5.799794734E-1,-3.559885754E0,4.530155311E0
3.037593542E0,3.238735912E0,-1.209330497E0,-3.855324218E0,5.178360299E0
3.047584542E0,3.880288028E0,-2.804464375E0,-3.859316697E0,6.149469976E0
3.057575542E0,4.074872548E0,-3.071922451E0,-4.741780530E0,6.966044532E0
3.067566542E0,3.796817856E0,-2.235487608E0,-5.652229722E0,7.166654135E0
3.077557542E0,3.426647005E0,-2.158071057E0,-5.015595991E0,6.446346526E0
3.087547542E0,2.772647336E0,-2.217535486E0,-3.614265444E0,5.066354862E0
3.097538542E0,1.936689333E0,-2.256090857E0,-2.404084616E0,3.823654583E0
3.107529542E0,7.790189865E-1,-2.351117467E0,-1.553227615E0,2.923549204E0
3.117520542E0,-4.074363256E-1,-2.393167718E0,-1.372287719E0,2.788625050E0
3.127511542E0,-1.184895860E0,-2.874212887E0,-8.435054429E-1,3.221269835E0
3.137502542E0,-1.357120627E0,-3.869401975E0,1.271251926E0,4.293032669E0
3.147493542E0,-1.621447811E0,-4.729726202E0,3.761467636E0,6.256839596E0
3.157484542E0,-2.159648928E0,-5.065756330E0,5.422399063E0,7.728413957E0
3.167475542E0,-2.487444130E0,-4.866744592E0,6.602615104E0,8.571295551E0
3.177466542E0,-1.933794669E0,-4.121685356E0,6.898176652E0,8.265149310E0
3.187456542E0,-7.200036237E-1,-2.912681719E0,6.133156192E0,6.827717400E0
3.197447542E0,6.023260698E-1,-1.966139127E0,4.866484390E0,5.283102316E0
3.207438542E0,1.220784315E0,-1.695868540E0,2.782026855E0,3.479361705E0
3.217429542E0,9.851652056E-1,-1.979097142E0,1.326699610E-1,2.214718334E0
3.227420542E0,5.830200255E-2,-2.639605638E0,-1.370331095E0,2.974680547E0
3.237411542E0,-8.280587071E-1,-2.908999727E0,-1.727770364E-1,3.029490475E0
3.247402542E0,-1.019779260E0,-2.558618778E0,1.656734880E0,3.214226230E0
3.257393542E0,-7.606408954E-1,-1.932719366E0,2.675790548E0,3.387304795E0
3.267384542E0,-2.956282067E-1,-1.171980237E0,3.061062710E0,3.291054334E0
3.277374542E0,-3.958506525E-2,-4.318542981E-1,3.155126868E0,3.184790522E0
3.287365542E0,-1.320213586E-1,1.815712488E-1,3.268039526E0,3.275741153E0
3.297356542E0,-5.909368631E-1,5.437933946E-1,3.276963547E0,3.373930604E0
3.307347542E0,-1.287305164E0,7.028610492E-1,3.393029315E0,3.696459952E0
3.317338542E0,-1.841120394E0,8.597699118E-1,3.497416733E0,4.044855054E0
3.327329542E0,-2.041396886E0,1.090349599E0,3.644809837E0,4.317499535E0
3.337320542E0,-2.041228778E0,1.450116498E0,3.908723915E0,4.641936603E0
3.347311542E0,-1.702546353E0,1.941398973E0,4.297628953E0,5.013712065E0
3.357302542E0,-1.136373325E0,2.261153961E0,4.631081336E0,5.277411857E0
3.367293833E0,-7.289451858E-1,2.557783796E0,4.805110261E0,5.492058234E0
3.377283833E0,-5.426257056E-1,2.779665164E0,4.857728770E0,5.623033868E0
3.387274833E0,-6.472622144E-1,2.730015287E0,4.812855483E0,5.570952319E0
3.397265833E0,-1.098414663E0,2.443578903E0,4.512951207E0,5.248268403E0
3.407256833E0,-1.939117389E0,2.020342816E0,3.623642039E0,4.579600744E0
3.417247833E0,-2.835714235E0,1.770408846E0,2.769519076E0,4.341181707E0
3.427238833E0,-3.410110202E0,1.696475481E0,2.255499119E0,4.426528767E0
3.437229833E0,-3.758860655E0,1.782055330E0,2.019435913E0,4.624162198E0
3.447220833E0,-3.886593373E0,1.773392095E0,1.778908943E0,4.627639204E0
3.457211833E0,-3.880654064E0,1.576694099E0,1.329326472E0,4.394604546E0
3.467201833E0,-3.802796049E0,1.402319604E0,9.151667252E-1,4.155152006E0
3.477192833E0,-3.546703206E0,1.476832427E0,6.751300442E-1,3.900761237E0
3.487183833E0,-3.204874102E0,1.643111452E0,7.447429007E-1,3.677726912E0
3.497174833E0,-2.980665541E0,1.692977092E0,8.922880322E-1,3.542134446E0
3.507165833E0,-2.916890253E0,1.542117174E0,1.051809138E0,3.463044410E0
3.517156833E0,-2.920775143E0,1.285633737E0,1.109093433E0,3.378441917E0
3.527147833E0,-2.860626589E0,8.920845491E-1,1.072144877E0,3.182529492E0
3.537138833E0,-2.579784237E0,6.197358620E-1,1.012699159E0,2.839880074E0
3.547129833E0,-2.105531486E0,7.186970633E-1,7.861981979E-1,2.359638937E0
3.557120833E0,-1.537158151E0,9.297505581E-1,2.100998139E-1,1.808710373E0
3.567110833E0,-1.086864658E0,8.414102393E-1,-3.808560526E-1,1.426287947E0
3.577101833E0,-8.671438354E-1,1.669532096E-1,-1.138079543E0,1.440498820E0
3.587092833E0,-2.213568735E-1,-1.285741911E0,-2.286362769E0,2.632410652E0
3.597083833E0,1.387237003E0,-3.010081714E0,-3.848704293E0,5.079128189E0
3.607074833E0,3.851608605E0,-4.254047023E0,-6.326115478E0,8.541167483E0
3.617065833E0,6.512042903E0,-4.629153509E0,-9.303338764E0,1.226327351E1
3.627056833E0,8.362477326E0,-4.232060323E0,-1.081599708E1,1.431178376E1
3.637047833E0,8.032807215E0,-3.515748923E0,-1.007563667E1,1.335683108E1
3.647038833E0,6.272047445E0,-2.518250771E0,-8.437968389E0,1.081108120E1
3.657028833E0,3.307693881E0,-1.851714964E0,-6.765441349E0,7.755055368E0
3.667019833E0,-4.829753351E-1,-1.611479770E0,-4.537051091E0,4.838901200E0
3.677010833E0,-3.484708979E0,-2.476437331E0,-2.840302837E0,5.132568434E0
3.687001833E0,-5.031788685E0,-3.778591792E0,-2.218379386E0,6.672170592E0
3.696992833E0,-6.006442936E0,-4.111439865E0,-1.588212383E0,7.450081415E0
3.706983833E0,-7.117715042E0,-4.651050746E0,1.378038163E-1,8.503712739E0
3.716974833E0,-6.884576029E0,-5.427620627E0,3.931164652E0,9.607835775E0
3.726965833E0,-5.792373447E0,-5.564823203E0,9.121403818E0,1.215396458E1
3.736956833E0,-4.699459260E0,-4.468186094E0,1.088437325E1,1.266961662E1
3.746946833E0,-4.167432802E0,-3.747092841E0,4.535273538E0,7.209501161E0
3.756937833E0,-2.197057660E0,-3.659492195E0,-9.095317050E0,1.004707608E1
3.766928833E0,-1.574394974E-1,-1.172041048E0,-5.260386751E0,5.391672856E0
3.776919833E0,-1.287615944E0,2.042150007E0,1.948799940E0,3.102604176E0
3.786910833E0,-3.434426140E0,4.344111686E0,6.773068457E0,8.748773947E0
3.796901833E0,-4.767645688E0,6.127007260E0,9.833905756E0,1.252902094E1
3.806892833E0,-4.752279206E0,7.114556960E0,1.137124634E1,1.423047159E1
3.816883833E0,-3.408588172E0,5.932222474E0,1.111447639E1,1.305148736E1
3.826874833E0,-1.833888558E0,2.117271525E0,9.704408641E0,1.010057093E1
3.836865833E0,-2.693859029E-1,-7.108267111E-1,8.130404845E0,8.165863477E0
3.846855833E0,1.264038216E0,-1.340864198E0,6.684238726E0,6.933596235E0
3.856846833E0,2.637179629E0,-1.046910633E0,4.820035279E0,5.593163537E0
3.866837833E0,3.984354141E0,-1.108008190E0,1.508516150E0,4.402088260E0
3.876828833E0,5.230748969E0,-1.360085750E0,-2.786304093E0,6.080629780E0
3.886819833E0,4.737522295E0,-1.612521744E0,-4.517673419E0,6.741937184E0
3.896810833E0,2.047579731E0,-1.877949082E0,-3.190188235E0,4.230434550E0
3.906801833E0,-3.116007534E-1,-1.679283498E0,-1.010395356E0,1.984436160E0
3.916792833E0,-1.778566588E0,-1.187843149E0,6.837850928E-1,2.245402527E0
3.926783833E0,-3.119518787E0,-8.420341372E-1,1.937277855E0,3.767421457E0
3.936773833E0,-4.305340261E0,-4.393469203E-1,2.647787063E0,5.073436390E0
3.946764833E0,-5.245921324E0,-6.119520485E-2,2.597599826E0,5.854140436E0
3.956755833E0,-5.592494566E0,2.459631264E-1,1.949499121E0,5.927650475E0
3.966746833E0,-4.744827514E0,5.592668813E-1,1.374782434E0,4.971538426E0
3.976737833E0,-2.842339422E0,4.679503298E-1,1.309900121E0,3.164444537E0
3.986728833E0,-7.588694814E-1,4.429850578E-2,1.409904612E0,1.601772850E0
3.996719833E0,9.649534276E-1,-4.702161258E-1,1.292077223E0,1.679792211E0
4.006710833E0,2.180944488E0,-7.632762355E-1,8.785453212E-1,2.472033849E0
4.016701833E0,2.877334131E0,-7.455270123E-1,8.505783811E-2,2.973566388E0
4.026691833E0,3.040779304E0,-5.806448865E-1,-8.772525018E-1,3.217617008E0
4.036682833E0,2.690029103E0,-4.453923565E-1,-1.828025701E0,3.282728878E0
4.046673833E0,2.071634884E0,-2.925297672E-1,-2.454811404E0,3.225421490E0
4.056664833E0,1.449475059E0,-2.425594622E-1,-2.436164780E0,2.845120713E0
4.066655833E0,8.636530477E-1,-2.184122157E-1,-2.087432161E0,2.269575623E0
4.076646833E0,3.118577385E-1,-1.662474507E-1,-1.731970127E0,1.767657768E0
4.086637833E0,-1.953964055E-2,2.787952423E-3,-1.592145367E0,1.592267703E0
4.096628833E0,-3.177616721E-1,2.259767586E-1,-1.622885349E0,1.669070050E0
4.106619833E0,-5.012242028E-1,4.479908592E-1,-1.724045249E0,1.850473867E0
4.116609833E0,-5.977266499E-1,6.222244370E-1,-1.715309948E0,1.920085575E0
4.126600833E0,-6.400113747E-1,6.980511296E-1,-1.496134086E0,1.770679853E0
4.136591833E0,-4.463244027E-1,5.460650378E-1,-1.112209414E0,1.316967076E0
4.146582833E0,-8.306057543E-2,2.982588691E-1,-7.778705934E-1,8.372216386E-1
4.156573833E0,3.192214295E-1,3.415545774E-1,-5.533310804E-1,7.243874204E-1
4.166564833E0,4.527548781E-1,6.149124938E-1,-4.342303142E-1,8.784419847E-1
4.176555833E0,3.144036162E-1,8.562732768E-1,-3.357015145E-1,9.719820293E-1
4.186546833E0,1.893997934E-1,9.255382240E-1,-2.893110211E-1,9.880253806E-1
4.196537833E0,1.956823343E-1,7.088374883E-1,-3.171342659E-1,8.008222670E-1
4.206527833E0,2.822895384E-1,8.991205037E-2,-5.189878978E-1,5.975951793E-1
4.216518833E0,1.833838856E-1,-6.549729377E-1,-9.046345742E-1,1.131805156E0
4.226509833E0,-8.315910101E-2,-9.021435142E-1,-1.266184290E0,1.556920362E0
4.236500833E0,-4.049302089E-1,-5.989495951E-1,-1.363670678E0,1.543472322E0
4.246491833E0,-7.574749205E-1,-3.660047096E-1,-1.285404819E0,1.536226953E0
4.256482833E0,-8.151927862E-1,-6.368284428E-1,-1.141906545E0,1.540792102E0
4.266473833E0,-2.095706409E-1,-1.135063257E0,-8.604288930E-1,1.439661880E0
4.276464833E0,6.293703192E-1,-1.417767947E0,-7.986437041E-1,1.744707631E0
4.286455833E0,9.206283170E-1,-1.770114731E0,-1.291144446E0,2.376534586E0
4.296445833E0,6.000824931E-1,-1.953439559E0,-1.931804277E0,2.812097593E0
4.306436833E0,5.168178499E-2,-1.336379968E0,-2.213623407E0,2.586254243E0
4.316427833E0,-1.857803670E-1,-3.532267892E-1,-1.819289814E0,1.862551727E0
4.326418833E0,1.215343773E-1,-1.364927244E-1,-1.303923828E0,1.316669365E0
4.336409833E0,8.588937065E-1,-5.981613904E-1,-1.370996069E0,1.724855261E0
4.346400833E0,1.699401428E0,-9.492048293E-1,-1.832023880E0,2.673063134E0
4.356391833E0,2.614065000E0,-1.369655887E0,-2.111746199E0,3.628879315E0
4.366382083E0,3.371209846E0,-2.186414266E0,-2.133724421E0,4.549532181E0
4.376373083E0,3.701762302E0,-2.555020986E0,-2.426997077E0,5.110918820E0
4.386363083E0,3.515808565E0,-2.311379204E0,-2.394890015E0,4.841371900E0
4.396354083E0,3.021583187E0,-2.138986330E0,-1.975512798E0,4.196174245E0
4.406345083E0,2.416353098E0,-2.428662071E0,-1.864687597E0,3.900541191E0
4.416336083E0,1.789253837E0,-2.724132988E0,-2.220121417E0,3.943509723E0
4.426327083E0,8.736342448E-1,-2.594884379E0,-2.729410100E0,3.866049822E0
4.436318083E0,-1.998595852E-1,-2.387459081E0,-3.311315939E0,4.087140561E0
4.446309083E0,-1.475352789E0,-1.998806936E0,-3.814496912E0,4.552173295E0
4.456300083E0,-2.681104205E0,-1.402106765E0,-3.663489352E0,4.751355319E0
4.466291083E0,-3.895934593E0,-7.688486320E-1,-2.823025192E0,4.872258799E0
4.476281083E0,-4.938784043E0,-2.241588593E-1,-1.994865328E0,5.331165228E0
4.486272083E0,-6.411278420E0,2.017815650E-1,-1.382515084E0,6.561749366E0
4.496263083E0,-7.475837120E0,5.798157513E-2,-6.721860442E-1,7.506219860E0
4.506254083E0,-7.382646536E0,-4.983049804E-1,3.873388606E-1,7.409575502E0
4.516245083E0,-6.088038492E0,-1.234250745E0,1.987697811E0,6.522156865E0
4.526236083E0,-4.460135939E0,-2.013611501E0,3.356789442E0,5.934263159E0
4.536227083E0,-2.880600093E0,-2.545027510E0,4.620568919E0,6.010380941E0
4.546218083E0,-1.691777828E0,-2.966786590E0,5.359264337E0,6.354970427E0
4.556209083E0,-7.463429913E-1,-3.667240925E0,5.556127224E0,6.698972578E0
4.566199083E0,3.457370907E-1,-4.495572698E0,5.459006141E0,7.080286440E0
4.576190083E0,8.131181940E-1,-5.533072237E0,4.982684938E0,7.490206858E0
4.586181083E0,1.275433562E0,-6.269508584E0,3.139537314E0,7.126721771E0
4.596172083E0,2.390844327E0,-6.035535173E0,3.036516099E-1,6.498924966E0
4.606163083E0,3.215865405E0,-4.467205516E0,-1.039049344E0,5.601547908E0
4.616154083E0,2.690104824E0,-2.516973739E0,-4.592578590E-1,3.712511084E0
4.626145083E0,1.783126832E0,-1.273803651E0,6.984262285E-1,2.299981790E0
4.636136083E0,7.354002196E-1,-4.061803436E-1,1.768183980E0,1.957618589E0
4.646127083E0,-1.439909014E-1,2.464133620E-1,2.760245684E0,2.774961110E0
4.656117083E0,-9.557931796E-1,7.351394337E-1,3.567088062E0,3.765380170E0
4.666108083E0,-1.670400993E0,1.130437524E0,3.896898799E0,4.387932169E0
4.676099083E0,-2.062397745E0,1.344521046E0,3.749394598E0,4.485441021E0
4.686090083E0,-2.377118865E0,1.458287982E0,3.519768299E0,4.490664408E0
4.696081083E0,-2.631424214E0,1.579879662E0,3.436720880E0,4.607761230E0
4.706072083E0,-2.786919220E0,1.702401634E0,3.460765216E0,4.758359585E0
4.716063083E0,-2.748415597E0,1.870425469E0,3.612930817E0,4.909740199E0
4.726054083E0,-2.497872055E0,2.038532919E0,3.781876758E0,4.969665288E0
4.736045083E0,-2.291903006E0,2.223851064E0,3.735092016E0,4.914188164E0
4.746035083E0,-2.136783684E0,2.291876401E0,3.517686691E0,4.710908788E0
4.756026083E0,-2.018408850E0,2.241860488E0,3.223300140E0,4.414700049E0
4.766017083E0,-2.030602048E0,2.203688110E0,2.989569681E0,4.232861071E0
4.776008083E0,-2.164301265E0,2.211458475E0,2.717338816E0,4.118091645E0
4.785999083E0,-2.302391742E0,2.231201014E0,2.383840240E0,3.995242168E0
4.795990083E0,-2.273589819E0,2.187750939E0,2.096473856E0,3.788227484E0
4.805981083E0,-1.965673689E0,2.165784119E0,1.585401188E0,3.326859004E0
4.815972083E0,-1.593528233E0,2.130013778E0,1.163900262E0,2.903610639E0
4.825962083E0,-1.273846335E0,2.039770775E0,8.909238768E-1,2.564584694E0
4.835953083E0,-1.087210813E0,1.906279426E0,7.303762919E-1,2.312872269E0
4.845944083E0,-1.061136909E0,1.758049001E0,7.863329762E-1,2.198878664E0
4.855935083E0,-1.165848555E0,1.618044439E0,7.802971879E-1,2.141526175E0
4.865926083E0,-1.357090513E0,1.413493633E0,6.077844456E-1,2.051599582E0
4.875917083E0,-1.433678221E0,1.210810427E0,2.619570154E-1,1.894760304E0
4.885908083E0,-1.240817168E0,1.120828795E0,-1.729544994E-1,1.681010914E0
4.895899083E0,-8.052914035E-1,1.197364755E0,-4.623986909E-1,1.515252174E0
4.905890083E0,-2.342762965E-1,1.290192227E0,-4.769372079E-1,1.395331669E0
4.915880083E0,2.808628178E-1,1.216607357E0,-4.245803618E-1,1.318819876E0
4.925871083E0,7.026987889E-1,1.025399897E0,-5.629801556E-1,1.364616133E0
4.935862083E0,1.050500531E0,6.687524861E-1,-1.160426139E0,1.702166290E0
4.945853083E0,1.454820583E0,5.085148036E-2,-2.246898157E0,2.677244877E0
4.955844083E0,2.101472933E0,-8.072069514E-1,-3.599682781E0,4.245643376E0
4.965835083E0,3.080618723E0,-1.789268455E0,-5.030259054E0,6.164024616E0
4.975826083E0,4.050166600E0,-2.814585321E0,-6.598692207E0,8.238232751E0
4.985817083E0,4.183193680E0,-3.580668220E0,-8.119013300E0,9.810131051E0
4.995808083E0,3.358566411E0,-3.576376364E0,-9.006728225E0,1.025629512E1
5.005798083E0,2.006638697E0,-2.925475427E0,-8.703059512E0,9.398311029E0
5.015789083E0,5.343299684E-1,-2.117842214E0,-7.353268955E0,7.670810158E0
5.025780083E0,-8.937469125E-1,-1.633315027E0,-5.526778879E0,5.831962474E0
5.035771083E0,-2.121226582E0,-1.567413399E0,-3.698562413E0,4.542659012E0
5.045762083E0,-3.245262282E0,-2.219701295E0,-2.758807561E0,4.803105275E0
5.055753083E0,-4.231426777E0,-3.267352771E0,-2.762408277E0,6.017596379E0
5.065744083E0,-5.233376123E0,-3.874872630E0,-2.585031821E0,7.006086857E0
5.075735083E0,-5.729714684E0,-3.825011668E0,-1.516036984E0,7.053985594E0
5.085726083E0,-5.373987626E0,-3.059245103E0,2.211547060E-1,6.187700139E0
5.095716083E0,-4.867644478E0,-2.063981756E0,2.755469094E0,5.962096391E0
5.105707083E0,-4.614955884E0,-1.100734838E0,5.416854733E0,7.200815940E0
5.115698083E0,-4.556688965E0,-1.643628931E-1,6.318650923E0,7.792033045E0
5.125689083E0,-4.536352934E0,9.774147213E-2,4.411556979E0,6.328497951E0
5.135680083E0,-4.339204995E0,-5.478958011E-2,1.650526307E0,4.642837384E0
5.145671083E0,-3.438810383E0,5.678856772E-1,1.768091594E0,3.908204047E0
5.155662083E0,-2.795938258E0,1.854408191E0,3.080210295E0,4.554535755E0
5.165653083E0,-2.430865594E0,3.002218963E0,4.498622020E0,5.929589052E0
5.175643083E0,-1.973395522E0,3.444542116E0,6.292579358E0,7.440142152E0
5.185634083E0,-1.188464415E0,2.983156455E0,8.301082731E0,8.900541816E0
5.195625083E0,-4.572815001E-2,1.970197095E0,9.584284612E0,9.784798372E0
5.205616083E0,9.571459329E-1,9.684164411E-1,9.292402132E0,9.391629045E0
5.215607083E0,1.772508581E0,3.579875922E-1,7.928702803E0,8.132297948E0
5.225598083E0,2.989344856E0,5.276644349E-2,5.861095773E0,6.579620857E0
5.235589083E0,4.643561048E0,5.508077145E-4,2.895785020E0,5.472497637E0
5.245580083E0,5.398429572E0,2.341143286E-1,-1.438524686E-2,5.403522767E0
5.255571083E0,3.758889599E0,-1.366552770E-1,-1.812075520E0,4.175109983E0
5.265561083E0,1.235826570E0,-1.308572949E0,-2.855379006E0,3.375325131E0
5.275552083E0,-8.350812131E-1,-2.629339682E0,-4.080347296E0,4.925446361E0
5.285543083E0,-2.235915624E0,-3.213215740E0,-5.145377866E0,6.465213643E0
5.295534083E0,-2.764224714E0,-2.746931282E0,-4.802262082E0,6.184520260E0
5.305525083E0,-2.704601241E0,-1.561622316E0,-2.797156525E0,4.192566846E0
5.315516083E0,-2.722544299E0,-7.449914074E-1,-2.650086772E-1,2.835046606E0
5.325507083E0,-2.493186388E0,-3.278089428E-1,1.869374578E0,3.133368536E0
5.335498083E0,-1.793263857E0,-1.018906564E-1,3.107596899E0,3.589336353E0
5.345489083E0,-8.426931185E-1,3.088733196E-2,3.286375517E0,3.392838010E0
5.355479083E0,1.637644306E-1,1.331428546E-1,2.665348005E0,2.673691418E0
5.365470083E0,1.114860249E0,3.976410699E-1,1.496372067E0,1.907920638E0
5.375461292E0,1.903979132E0,7.753700316E-1,1.758957951E-1,2.063316396E0
5.385452292E0,2.446264237E0,1.134843401E0,-9.736470678E-1,2.867065900E0
5.395443292E0,2.523391058E0,1.247016971E0,-1.621811361E0,3.248511328E0
5.405434292E0,2.221132109E0,1.046438178E0,-1.854710492E0,3.077078438E0
5.415425292E0,1.829911866E0,4.953264087E-1,-1.906322111E0,2.688492083E0
5.425416292E0,1.410226209E0,5.738165081E-2,-2.016000235E0,2.460952572E0
5.435406292E0,8.807052827E-1,-7.237098813E-3,-2.209654024E0,2.378710802E0
5.445397292E0,4.652413148E-1,2.333308017E-1,-2.387192595E0,2.443272647E0
5.455388292E0,2.735467815E-1,4.237044489E-1,-2.404215447E0,2.456543348E0
5.465379292E0,1.663760895E-1,4.255287802E-1,-2.217495140E0,2.264076068E0
5.475370292E0,-1.648388565E-2,3.884673733E-1,-1.937242187E0,1.975875986E0
5.485361292E0,-1.750083339E-1,4.994288152E-1,-1.700219746E0,1.780675221E0
5.495352292E0,-2.861793986E-1,8.671748257E-1,-1.414861589E0,1.683960849E0
5.505343292E0,-3.591719458E-1,1.290806184E0,-1.103276038E0,1.735627584E0
5.515334292E0,-2.623400080E-1,1.616596084E0,-7.865838218E-1,1.816843220E0
5.525324292E0,-1.452799201E-2,1.596623749E0,-6.010098615E-1,1.706057242E0
5.535315292E0,2.616681629E-1,1.077851760E0,-5.750844768E-1,1.249382567E0
5.545306292E0,4.459645066E-1,1.864045572E-1,-8.070522925E-1,9.407254663E-1
5.555297292E0,5.192985311E-1,-5.542102093E-1,-1.298256122E0,1.504090715E0
5.565288292E0,5.131478450E-1,-9.608466357E-1,-1.914035465E0,2.202289429E0
5.575279292E0,4.067372909E-1,-1.330954337E0,-2.508538253E0,2.868734710E0
5.585270292E0,2.276335672E-1,-1.687474862E0,-3.025442642E0,3.471698666E0
5.595261292E0,2.624551982E-2,-2.012263134E0,-3.399981070E0,3.950919263E0
5.605251292E0,5.374892190E-1,-2.536734404E0,-3.396949581E0,4.273544495E0
5.615242292E0,1.766508460E0,-2.738524155E0,-3.170408566E0,4.546598417E0
5.625233292E0,2.727834568E0,-2.821056435E0,-2.640135396E0,4.729667615E0
5.635224292E0,2.824140841E0,-3.265564692E0,-2.222087544E0,4.855652098E0
5.645215292E0,2.240099745E0,-3.692371089E0,-2.230515136E0,4.860745714E0
5.655206292E0,1.437756946E0,-3.366533242E0,-2.304587663E0,4.325715595E0
5.665197292E0,9.802851194E-1,-2.477237231E0,-2.279244661E0,3.506083205E0
5.675188292E0,1.346014133E0,-1.685607262E0,-2.520847519E0,3.317785120E0
5.685179292E0,2.206268925E0,-1.492756734E0,-3.249805569E0,4.202044915E0
5.695169292E0,2.951667737E0,-1.638129040E0,-4.229284065E0,5.411344831E0
5.705160292E0,3.116944842E0,-1.693302782E0,-5.154359189E0,6.256999130E0
5.715151292E0,3.166531570E0,-2.385119610E0,-5.465196589E0,6.751599180E0
5.725142292E0,3.253741622E0,-3.417640246E0,-4.987883697E0,6.866300545E0
5.735133292E0,3.171394699E0,-3.298726591E0,-4.600537528E0,6.488781627E0
5.745124292E0,3.091419992E0,-2.446113671E0,-4.183819624E0,5.748451644E0
5.755115292E0,3.014572960E0,-1.476135439E0,-3.901064940E0,5.146351487E0
5.765106292E0,2.749456694E0,-6.266776764E-1,-3.713740908E0,4.663057854E0
5.775096292E0,2.271772066E0,-1.685576856E-2,-3.251502138E0,3.966547440E0
5.785087292E0,1.367383806E0,2.092186385E-1,-3.001827199E0,3.305219727E0
5.795078292E0,6.346100092E-2,9.476582408E-2,-3.101349733E0,3.103446154E0
5.805069292E0,-1.244253431E0,-3.430918103E-1,-2.206669459E0,2.556417159E0
5.815060292E0,-1.573421267E0,-1.385931028E0,8.131547391E-2,2.098349709E0
5.825051292E0,-1.202105385E0,-2.696872684E0,2.606765336E0,3.938706025E0
5.835042292E0,-6.941149302E-1,-3.464326170E0,4.682605830E0,5.866016426E0
5.845033292E0,-1.680653501E-1,-3.474020854E0,6.136732349E0,7.053832347E0
5.855024292E0,4.018221214E-1,-3.150895531E0,7.038442000E0,7.721999058E0
5.865014292E0,9.014506191E-1,-2.945062430E0,6.567810137E0,7.254111657E0
5.875005292E0,1.258182522E0,-2.978154162E0,4.817130382E0,5.801480034E0
5.884996292E0,1.426043804E0,-3.268060868E0,1.351749813E0,3.813272915E0
5.894987292E0,1.278099308E0,-3.665416009E0,-2.208890963E0,4.466319698E0
5.904978292E0,7.098575351E-1,-3.717941548E0,-2.613177978E0,4.599531086E0
5.914969292E0,6.515441304E-1,-3.107741910E0,-9.162516761E-1,3.304858040E0
5.924960292E0,9.097144890E-1,-2.495676425E0,1.160836029E0,2.898882812E0
5.934951292E0,9.184739104E-1,-1.993085436E0,2.834194543E0,3.584500326E0
5.944941292E0,7.881514603E-1,-1.586318032E0,3.881959747E0,4.266989466E0
5.954932292E0,4.508372837E-1,-1.138639414E0,4.394333713E0,4.561789425E0
5.964923292E0,-1.310974985E-2,-6.135231954E-1,4.644665295E0,4.685029165E0
5.974914292E0,-5.625229034E-1,2.858996093E-2,4.716310351E0,4.749824495E0
5.984905292E0,-9.623756826E-1,8.383480525E-1,4.415338374E0,4.596107850E0
5.994896292E0,-9.845068091E-1,1.593958588E0,3.811532081E0,4.247085406E0
6.004887292E0,-8.047949749E-1,2.129938933E0,3.435100032E0,4.121194856E0
6.014878292E0,-9.094604275E-1,2.584966332E0,3.454722118E0,4.409566205E0
6.024869292E0,-1.227102232E0,2.889346651E0,3.725339445E0,4.871576535E0
6.034859292E0,-1.636238343E0,3.189089543E0,4.120694546E0,5.461473388E0
6.044850292E0,-2.101180573E0,3.457128248E0,4.463321795E0,6.023946959E0
6.054841292E0,-2.487740584E0,3.500352620E0,4.497512219E0,6.218435321E0
6.064832292E0,-2.630527544E0,3.359971497E0,4.319661261E0,6.071948372E0
6.074823292E0,-2.786542367E0,3.101953751E0,4.026433629E0,5.796473342E0
6.084814292E0,-3.054787771E0,2.893951333E0,3.774969150E0,5.653058882E0
6.094805292E0,-3.250698731E0,2.842153773E0,3.721762118E0,5.700560812E0
6.104796292E0,-3.516037191E0,2.947441662E0,3.587311242E0,5.823979037E0
6.114786292E0,-3.791379945E0,2.824857125E0,3.144394304E0,5.678168296E0
6.124777292E0,-3.744541993E0,2.626292113E0,2.693328979E0,5.307826861E0
6.134768292E0,-3.228594794E0,2.529730609E0,2.261833700E0,4.683935630E0
6.144759292E0,-2.605212901E0,2.484843873E0,1.952624750E0,4.095647293E0
6.154750292E0,-2.211029289E0,2.368418208E0,1.827583505E0,3.719961935E0
6.164741292E0,-2.067806712E0,2.117056932E0,1.711358692E0,3.418552797E0
6.174732292E0,-2.096905966E0,1.648777404E0,1.461992486E0,3.041858574E0
6.184723292E0,-1.905268150E0,1.317480013E0,1.042621116E0,2.540247842E0
6.194714292E0,-1.340012843E0,1.324286172E0,3.195029730E-1,1.910876876E0
6.204704292E0,-8.019020650E-1,1.242762537E0,-8.230868196E-1,1.692624459E0
6.214695292E0,-4.610210869E-1,6.475212461E-1,-2.161499280E0,2.303020483E0
6.224686292E0,-1.751083213E-1,-5.546195143E-1,-3.282859294E0,3.333981235E0
6.234677292E0,2.449243686E-1,-2.453538465E0,-4.989753052E0,5.565741143E0
6.244668292E0,1.402325451E0,-4.453706049E0,-7.663210561E0,8.973673180E0
6.254659292E0,3.317811026E0,-5.913324273E0,-1.030007619E1,1.233153857E1
6.264650292E0,4.758388377E0,-6.682081103E0,-1.168087395E1,1.427358694E1
6.274641292E0,5.055602056E0,-6.403505716E0,-1.090784047E1,1.362148969E1
6.284631292E0,4.447327321E0,-4.951820995E0,-8.902719122E0,1.111564929E1
6.294622292E0,2.034388120E0,-3.603912656E0,-6.166684127E0,7.426635482E0
6.304613292E0,-1.204067418E0,-5.351153079E0,-3.895942487E0,6.727777158E0
6.314604292E0,-2.016389221E0,-5.756446400E0,-1.820581172E0,6.365297829E0
6.324595292E0,-2.721307321E0,-4.116319367E0,3.273275708E-1,4.945375820E0
6.334586292E0,-3.584702506E0,-2.746629565E0,3.344716111E0,5.619714574E0
6.344577292E0,-3.797323055E0,-2.327191245E0,7.354385773E0,8.597817838E0
6.354568292E0,-3.321214690E0,-2.205924085E0,9.470562115E0,1.027560776E1
6.364559292E0,-2.432232966E0,-1.544109321E0,8.957003503E0,9.408928873E0
6.374549833E0,-1.836265743E0,-7.116049755E-1,4.522601452E0,4.932765696E0
6.384540833E0,-4.553998661E-1,5.563081902E-1,-6.520872637E-1,9.706109622E-1
6.394531833E0,-1.996707201E-1,1.981413224E0,1.568916864E0,2.535225214E0
6.404522833E0,-1.504702595E0,3.098800932E0,4.559375761E0,5.714420744E0
6.414513833E0,-1.826568136E0,4.874405614E0,6.185194073E0,8.084108297E0
6.424504833E0,-1.195031131E0,6.376931291E0,6.817317846E0,9.411119737E0
6.434495833E0,1.884730098E-1,6.720639982E0,6.901536462E0,9.635026175E0
6.444486833E0,1.717473125E0,4.208849216E0,6.712736886E0,8.107093323E0
6.454476833E0,2.759051683E0,1.097552783E0,6.416077230E0,7.069868126E0
6.464467833E0,3.491115773E0,-5.852700341E-1,5.521011186E0,6.558353061E0
6.474458833E0,4.013916202E0,-1.534493575E0,3.386193920E0,5.471060507E0
6.484449833E0,4.422341584E0,-2.517326326E0,-7.866208054E-2,5.089226330E0
6.494440833E0,3.436461264E0,-2.944575357E0,-3.514821555E0,5.730075097E0
6.504431833E0,1.371613243E0,-1.755660998E0,-4.706102282E0,5.206828892E0
6.514422833E0,-5.337738982E-1,-3.668005157E-1,-4.124970322E0,4.175504443E0
6.524413833E0,-2.033913911E0,2.381576782E-1,-2.858230693E0,3.516106877E0
6.534403833E0,-2.651259432E0,3.386181056E-1,-1.400750211E0,3.017605002E0
6.544394833E0,-2.498688326E0,4.325255585E-1,1.442501523E-1,2.539946813E0
6.554385833E0,-2.036288027E0,6.084554136E-1,1.317625024E0,2.500564461E0
6.564376833E0,-1.546582839E0,7.673570073E-1,1.913475010E0,2.577235315E0
6.574367833E0,-8.716375668E-1,8.788353431E-1,2.022516811E0,2.371218644E0
6.584358833E0,2.475081070E-1,9.508052123E-1,1.756550360E0,2.012649990E0
6.594349833E0,1.473232004E0,9.644157761E-1,1.249674531E0,2.159212069E0
6.604340833E0,2.474858583E0,9.692637026E-1,4.912536769E-1,2.702910895E0
6.614330833E0,3.191870187E0,1.092505467E0,-1.957460690E-1,3.379337214E0
6.624321833E0,3.273758980E0,1.241579061E0,-7.057448959E-1,3.571707194E0
6.634312833E0,2.603254083E0,1.260595960E0,-1.159850773E0,3.116293923E0
6.644303833E0,1.603763492E0,1.139513572E0,-1.492074218E0,2.469176784E0
6.654294833E0,7.287531048E-1,8.487683755E-1,-1.531798008E0,1.896811530E0
6.664285833E0,-1.067891613E-2,4.851206785E-1,-1.423729622E0,1.504148314E0
6.674276833E0,-5.659844550E-1,2.397761875E-1,-1.347042950E0,1.480660573E0
6.684267833E0,-9.468038164E-1,2.145735186E-1,-1.320514133E0,1.638974325E0
6.694257833E0,-1.238336487E0,2.928765070E-1,-1.416040826E0,1.903792406E0
6.704248833E0,-1.466862632E0,4.630708283E-1,-1.550587012E0,2.184133846E0
6.714239833E0,-1.531483574E0,6.587537473E-1,-1.617478575E0,2.322850700E0
6.724230833E0,-1.398232400E0,8.740394568E-1,-1.475483474E0,2.212702036E0
6.734221833E0,-1.089454682E0,1.102301307E0,-9.947425063E-1,1.841600481E0
6.744212833E0,-5.529907724E-1,1.178019826E0,-3.059858184E-1,1.336845850E0
6.754203833E0,1.930322300E-1,1.058018589E0,3.371166869E-1,1.127081380E0
6.764194833E0,1.069030504E0,8.205029351E-1,7.402510697E-1,1.537537945E0
6.774185833E0,1.836718318E0,6.653692871E-1,7.356209520E-1,2.087435904E0
6.784175833E0,2.268774929E0,5.188269532E-1,2.984208369E-1,2.346396404E0
6.794166833E0,2.262714144E0,1.798545063E-1,-5.266440958E-1,2.330145263E0
6.804157833E0,2.066691502E0,-2.712096494E-1,-1.432716062E0,2.529316855E0
6.814148833E0,1.962040229E0,-6.656943923E-1,-2.044504681E0,2.910798906E0
6.824139833E0,2.199000251E0,-1.051563263E0,-2.236643748E0,3.308166057E0
6.834130833E0,2.697697726E0,-1.440693710E0,-2.094166399E0,3.706575818E0
6.844121833E0,3.185974731E0,-1.837825488E0,-1.920767657E0,4.149383798E0
6.854112833E0,3.392682576E0,-2.219103125E0,-1.840035735E0,4.452015863E0
6.864102833E0,3.326274870E0,-2.473113189E0,-1.896584158E0,4.558226062E0
6.874093833E0,2.927241871E0,-2.514333136E0,-2.229468484E0,4.456584545E0
6.884084833E0,2.538307890E0,-2.282732525E0,-2.947282910E0,4.510027858E0
6.894075833E0,2.475705845E0,-1.694149459E0,-3.733867024E0,4.789678984E0
6.904066833E0,2.803567412E0,-1.021633705E0,-4.315220008E0,5.246413002E0
6.914057833E0,3.558569838E0,-1.081912651E0,-4.416429464E0,5.773976402E0
6.924048833E0,4.676943094E0,-2.506155805E0,-3.670750424E0,6.452055665E0
6.934039833E0,5.911146770E0,-3.555479584E0,-2.925377194E0,7.492724667E0
6.944029833E0,6.737860617E0,-3.565777116E0,-2.910112745E0,8.159797076E0
6.954020833E0,7.064854458E0,-2.929643322E0,-3.316336066E0,8.336249961E0
6.964011833E0,7.067536576E0,-2.045824982E0,-3.465486258E0,8.132961829E0
6.974002833E0,6.645824273E0,-1.193977463E0,-3.251467640E0,7.494304789E0
6.983993833E0,5.443977628E0,-6.785804862E-1,-2.674679577E0,6.103382237E0
6.993984833E0,3.777171503E0,-5.196268523E-1,-1.934512707E0,4.275438696E0
7.003975833E0,2.238899020E0,-6.929722381E-1,-6.947381703E-1,2.444491863E0
7.013966833E0,1.307339625E0,-8.646190077E-1,1.484091160E0,2.158524843E0
7.023957833E0,2.552723323E-1,-1.367964873E0,3.851962069E0,4.095620056E0
7.033947833E0,-6.461276353E-1,-2.458633144E0,5.647550780E0,6.193317985E0
7.043938833E0,-7.754106697E-1,-3.291167310E0,7.038254889E0,7.808333744E0
7.053929833E0,-2.090575477E-1,-3.295308893E0,7.934592118E0,8.594214207E0
7.063920833E0,6.610097493E-1,-2.783553563E0,8.233540374E0,8.716438000E0
7.073911833E0,1.294435259E0,-2.087434938E0,7.870120718E0,8.244498007E0
7.083902833E0,1.863484824E0,-1.489671743E0,5.393150121E0,5.897267657E0
7.093893833E0,2.735804615E0,-1.399619359E0,-4.022429748E-1,3.099251628E0
7.103884833E0,2.914673865E0,-1.869149022E0,-3.660256426E0,5.038503639E0
7.113874833E0,2.763371898E0,-2.183149180E0,-1.885464800E0,3.994664204E0
7.123865833E0,3.049927272E0,-1.900695335E0,8.299839029E-1,3.688302103E0
7.133856833E0,3.031262083E0,-1.451435046E0,3.199645522E0,4.640360436E0
7.143847833E0,2.242225062E0,-1.114658813E0,5.017702743E0,5.607796208E0
7.153838833E0,1.548308206E0,-8.921389282E-1,5.945412623E0,6.208147987E0
7.163829833E0,1.508140027E0,-6.154358196E-1,5.690199201E0,5.918751096E0
7.173820833E0,1.767750117E0,-3.147369075E-1,4.922706538E0,5.239946513E0
7.183811833E0,1.891082367E0,1.616111934E-2,4.426172972E0,4.813258862E0
7.193801833E0,1.952473453E0,4.190214139E-1,4.215081763E0,4.664187582E0
7.203792833E0,1.886041043E0,7.540972763E-1,4.092648084E0,4.568980396E0
7.213783833E0,1.792011238E0,8.574596769E-1,4.208249876E0,4.653590914E0
7.223774833E0,1.708951978E0,8.058743709E-1,4.602748652E0,4.975464352E0
7.233765833E0,1.401259211E0,7.496136314E-1,5.096815571E0,5.338817934E0
7.243756833E0,1.010030198E0,9.103085661E-1,5.442420514E0,5.609702643E0
7.253747833E0,5.304117492E-1,1.288527524E0,5.331378965E0,5.510466539E0
7.263738833E0,-1.116546294E-1,1.713675651E0,4.878648938E0,5.172075643E0
7.273728833E0,-1.173333429E0,1.997158021E0,4.361727592E0,4.938625222E0
7.283719833E0,-2.383741129E0,2.301699139E0,4.160236049E0,5.318609281E0
7.293710833E0,-3.369997718E0,2.603349978E0,4.088867859E0,5.903656163E0
7.303701833E0,-4.228934986E0,2.851198246E0,4.015703988E0,6.491463708E0
7.313692833E0,-4.667533463E0,2.977803329E0,3.970706155E0,6.813199591E0
7.323683833E0,-4.485134248E0,2.830366371E0,3.916387861E0,6.592836787E0
7.333674833E0,-4.124056402E0,2.426830723E0,3.878288865E0,6.159421490E0
7.343665833E0,-3.826312088E0,1.821905274E0,3.456375126E0,5.468686500E0
7.353656833E0,-3.619362462E0,1.332143075E0,2.761385306E0,4.743378397E0
7.363646833E0,-3.330447736E0,1.111912376E0,2.186136523E0,4.136112202E0
7.373637583E0,-2.968529645E0,1.006335050E0,1.696849703E0,3.564291992E0
7.383628583E0,-2.697625220E0,8.271260762E-1,1.311947962E0,3.111675888E0
7.393619583E0,-2.421811620E0,5.488734555E-1,1.188056864E0,2.752800883E0
7.403610583E0,-2.048524203E0,3.166033387E-2,6.463035634E-1,2.148292830E0
7.413601583E0,-1.137204507E0,-5.787316775E-1,-6.626833686E-1,1.437815597E0
7.423592583E0,2.913306494E-1,-7.345611441E-1,-2.514040483E0,2.635308933E0
7.433583583E0,1.680814884E0,-7.147548705E-1,-4.499983837E0,4.856528362E0
7.443573583E0,3.647680235E0,-9.153067660E-1,-6.272107086E0,7.313185686E0
7.453564583E0,6.411008279E0,-1.544392326E0,-6.999993049E0,9.616968207E0
7.463555583E0,8.786181775E0,-2.705210229E0,-6.774954768E0,1.141994591E1
7.473546583E0,9.754773633E0,-4.378987404E0,-6.340479748E0,1.243112315E1
7.483537583E0,9.056610237E0,-5.583274677E0,-5.882773156E0,1.215739138E1
7.493528583E0,7.720315053E0,-4.275860646E0,-7.070092978E0,1.130807072E1
7.503519583E0,4.342378863E0,-1.535037366E0,-8.952070792E0,1.006738126E1
7.513510583E0,4.619513789E-1,5.196303606E-1,-6.974139000E0,7.008710979E0
7.523500583E0,-2.118276662E0,7.904359674E-1,-2.180796846E0,3.141299081E0
7.533491583E0,-4.996743983E0,-3.091141664E0,1.577926108E0,6.083786487E0
7.543482583E0,-5.241285067E0,-3.309747423E0,5.037732965E0,7.987756292E0
7.553473583E0,-4.649233432E0,-1.479395846E0,8.063265946E0,9.424449124E0
7.563464583E0,-5.161875200E0,-2.170216894E0,9.455042435E0,1.098874990E1
7.573455583E0,-5.646653232E0,-4.464791785E0,8.761625808E0,1.133953902E1
7.583446583E0,-5.001421756E0,-5.558843840E0,6.351804636E0,9.811237768E0
7.593437583E0,-4.212358714E0,-4.930645303E0,-7.438558781E0,9.868504739E0
7.603427583E0,-1.212215513E0,1.741020155E-1,-1.230737270E1,1.236815268E1
7.613418583E0,4.673778874E-1,4.548264297E0,2.392301892E0,5.160257604E0
7.623409583E0,-1.180826198E0,4.505892448E0,9.956402586E0,1.099215037E1
7.633400583E0,-1.778513671E0,4.849566641E0,1.203957023E1,1.310086481E1
7.643391583E0,-1.132637685E0,6.001404975E0,1.246588838E1,1.388157422E1
7.653382583E0,3.088208409E-1,6.658429701E0,1.182688126E1,1.357590427E1
7.663373583E0,1.242213045E0,5.178274301E0,9.832481375E0,1.118191880E1
7.673364583E0,1.677771993E0,2.383006427E0,7.425908915E0,7.977327980E0
7.683354583E0,2.418031102E0,3.230288440E-1,5.222978604E0,5.764609921E0
7.693345583E0,4.102530463E0,-1.508592163E0,2.773605695E0,5.176822873E0
7.703336583E0,6.473138453E0,-3.349848797E0,-8.087167025E-1,7.333282424E0
7.713327583E0,7.983713408E0,-4.825236377E0,-5.175836597E0,1.066826464E1
7.723318583E0,7.659223344E0,-4.004821150E0,-7.153197116E0,1.121920334E1
7.733309583E0,5.606210380E0,-1.216014449E0,-6.060386424E0,8.344852879E0
7.743300583E0,2.805974126E0,7.300336450E-1,-3.675649222E0,4.681542173E0
7.753291583E0,2.678659192E-1,1.134688450E0,-1.116014197E0,1.613926181E0
7.763282583E0,-1.383991068E0,9.621423787E-1,6.898363763E-1,1.821269738E0
7.773272583E0,-1.948923462E0,6.934961486E-1,1.720778264E0,2.690783790E0
7.783263583E0,-2.121439859E0,2.760382801E-1,2.211772470E0,3.077115804E0
7.793254583E0,-2.319304520E0,-9.824257851E-2,1.780253218E0,2.925427590E0
7.803245583E0,-2.465703305E0,-1.738997018E-1,3.512959655E-1,2.496666328E0
7.813236583E0,-2.380800272E0,2.200090903E-1,-1.403413618E0,2.772396746E0
7.823227583E0,-1.772890404E0,8.110994428E-1,-2.335991743E0,3.042676472E0
7.833218583E0,-6.618405656E-1,1.115294405E0,-1.814953519E0,2.230688419E0
7.843208583E0,7.567055000E-1,1.060919977E0,-5.924217635E-1,1.431474051E0
7.853199583E0,2.018205366E0,9.832344550E-1,4.763481009E-1,2.294953247E0
7.863190583E0,2.873170036E0,9.450100368E-1,1.006773153E0,3.187748768E0
7.873181583E0,3.239020964E0,9.079153007E-1,8.869189726E-1,3.478820528E0
7.883172583E0,3.039727097E0,9.064839023E-1,1.974240737E-1,3.178148857E0
7.893163583E0,2.355332724E0,1.027952791E0,-6.416890870E-1,2.648781619E0
7.903154583E0,1.428604884E0,1.082603207E0,-1.157695490E0,2.133822970E0
7.913145583E0,5.873891381E-1,9.315421450E-1,-1.179342320E0,1.613581444E0
7.923136583E0,-1.856213227E-2,7.027832812E-1,-7.764932817E-1,1.047468715E0
7.933126583E0,-3.659972544E-1,6.575234932E-1,-2.378134234E-1,7.892061573E-1
7.943117583E0,-3.741711503E-1,7.487336254E-1,1.179180206E-1,8.452873778E-1
7.953108583E0,-2.133308391E-1,8.673420560E-1,3.186288142E-1,9.483230517E-1
7.963099583E0,1.321331866E-1,8.636197186E-1,3.974083507E-1,9.598081029E-1
7.973090583E0,4.895024358E-1,6.655645841E-1,4.145447856E-1,9.243571980E-1
7.983081583E0,7.504214973E-1,1.976838362E-1,4.797131735E-1,9.123245319E-1
7.993072583E0,9.080342185E-1,-4.440229386E-1,4.101394933E-1,1.090823962E0
8.003063583E0,1.081545154E0,-8.877400678E-1,6.444976509E-2,1.400705579E0
8.013053583E0,1.225072078E0,-1.019858490E0,-5.433288333E-1,1.684078133E0
8.023044583E0,1.243728205E0,-1.126613445E0,-1.245068971E0,2.089572790E0
8.033035583E0,1.153165652E0,-1.351488588E0,-1.978317123E0,2.658956762E0
8.043026583E0,1.131421026E0,-1.594308836E0,-2.692524109E0,3.327404437E0
8.053017583E0,1.480555349E0,-1.729828584E0,-3.139677063E0,3.878391823E0
8.063008583E0,2.252222631E0,-1.715145056E0,-3.091393679E0,4.191771013E0
8.072999583E0,3.108018775E0,-1.667749280E0,-2.583666496E0,4.372242094E0
8.082990583E0,3.870692748E0,-1.751010708E0,-1.919299714E0,4.661760637E0
8.092980583E0,4.596269645E0,-1.817942616E0,-1.387899200E0,5.133894642E0
8.102971583E0,5.194496816E0,-1.669262540E0,-1.221119945E0,5.591097256E0
8.112962583E0,5.309555987E0,-1.309372848E0,-1.426094090E0,5.651511868E0
8.122953583E0,5.246866819E0,-1.517127929E0,-2.095812536E0,5.850104166E0
8.132944583E0,5.230215118E0,-2.617480359E0,-2.941668998E0,6.546737363E0
8.142935583E0,5.043325242E0,-3.607196453E0,-3.972717597E0,7.364066869E0
8.152926583E0,4.604158416E0,-3.351155065E0,-4.773437648E0,7.430627293E0
8.162917583E0,4.093642695E0,-2.662813822E0,-5.279348686E0,7.191662570E0
8.172907583E0,3.300938008E0,-2.063787044E0,-5.322881792E0,6.594579536E0
8.182898583E0,2.452978887E0,-1.692969491E0,-5.113591232E0,5.918789269E0
8.192889583E0,1.831850657E0,-1.172201847E0,-4.684869580E0,5.165049562E0
8.202880583E0,1.575657096E0,-6.443152177E-1,-4.031068132E0,4.375768237E0
8.212871583E0,1.008382599E0,-1.761228132E-1,-3.254601163E0,3.411785960E0
8.222862583E0,5.103103374E-1,6.492046595E-2,-2.237499050E0,2.295873103E0
8.232853583E0,1.488902834E-1,3.451055914E-1,-7.912621790E-1,8.759920215E-1
8.242844583E0,-2.991662107E-1,1.168478340E-1,1.188400973E0,1.231036438E0
8.252834583E0,-2.174428204E-1,-7.934092766E-1,3.033064780E0,3.142652004E0
8.262825583E0,3.648033261E-1,-1.992194905E0,4.802528715E0,5.212120880E0
8.272816583E0,8.593709855E-1,-2.861847780E0,6.199126818E0,6.881705059E0
8.282807583E0,1.177634641E0,-3.416792985E0,6.787674801E0,7.689852200E0
8.292798583E0,1.511036153E0,-3.902108960E0,6.826066450E0,8.006551553E0
8.302789583E0,2.013716898E0,-4.575559099E0,5.997877350E0,7.808029810E0
8.312780583E0,2.362913055E0,-5.371704288E0,3.099393840E0,6.636626194E0
8.322771583E0,2.225122249E0,-5.689412751E0,-9.037630467E-1,6.175546463E0
8.332761583E0,1.101126309E0,-5.245968102E0,-1.912792494E0,5.691347432E0
8.342752583E0,6.767776434E-1,-4.168340290E0,-4.157168600E-1,4.243337043E0
8.352743583E0,6.917767748E-1,-3.020388601E0,1.762134597E0,3.564606674E0
8.362734583E0,7.356523807E-1,-2.227813137E0,3.570254621E0,4.272125216E0
8.372725792E0,4.105287717E-1,-1.640821683E0,4.544693987E0,4.849234280E0
8.382716792E0,1.096904035E-1,-1.136288248E0,4.847536488E0,4.980139855E0
8.392707792E0,-8.116154596E-2,-6.325915504E-1,4.934260637E0,4.975307759E0
8.402698792E0,-4.207676849E-1,-2.617190337E-1,4.779432506E0,4.805051235E0
8.412688792E0,-6.945477703E-1,2.210364461E-2,4.597237067E0,4.649459519E0
8.422679792E0,-8.567201503E-1,3.206817716E-1,4.381401134E0,4.475877804E0
8.432670792E0,-1.018254160E0,5.772347903E-1,4.290620480E0,4.447411117E0
8.442661792E0,-1.332161348E0,9.379085934E-1,4.272649940E0,4.572730464E0
8.452652792E0,-1.916281235E0,1.373549548E0,4.235624785E0,4.847606570E0
8.462643792E0,-2.559226888E0,1.838233039E0,4.213540437E0,5.261431933E0
8.472634792E0,-3.431699291E0,2.269165816E0,4.167456191E0,5.856053674E0
8.482625792E0,-4.166064554E0,2.718024986E0,4.162351280E0,6.486055956E0
8.492615792E0,-4.735593006E0,3.240942067E0,4.320143364E0,7.182839640E0
8.502606792E0,-5.153565137E0,3.756170059E0,4.681377038E0,7.910963159E0
8.512597792E0,-5.229271377E0,4.199367371E0,5.131479619E0,8.444646146E0
8.522588792E0,-5.137927929E0,4.556781351E0,5.344042865E0,8.701801757E0
8.532579792E0,-4.951070797E0,4.802445100E0,5.217316160E0,8.648524087E0
8.542570792E0,-4.645942034E0,4.835652022E0,4.756564922E0,8.221509455E0
8.552561792E0,-4.452122915E0,4.452174663E0,4.250280539E0,7.596587546E0
8.562552792E0,-4.085834323E0,3.961103273E0,3.975172259E0,6.941640710E0
8.572543792E0,-3.548347735E0,3.566279976E0,3.690747902E0,6.239450665E0
8.582533792E0,-3.025764531E0,3.086540490E0,3.370349135E0,5.480988642E0
8.592524792E0,-2.417480587E0,2.351216285E0,2.956721778E0,4.484934122E0
8.602515792E0,-1.693266676E0,1.331861824E0,2.392170768E0,3.219237322E0
8.612506792E0,-7.326594834E-1,4.253825998E-1,1.570479679E0,1.784417747E0
8.622497792E0,5.125065516E-1,-1.950981975E-1,5.195794898E-1,7.554396854E-1
8.632488792E0,1.668376687E0,-6.773806375E-1,-8.050271094E-1,1.972408158E0
8.642479792E0,2.144437397E0,-1.466533726E0,-2.473287436E0,3.586988104E0
8.652470792E0,2.256146990E0,-2.482619593E0,-4.647050959E0,5.731376963E0
8.662460792E0,2.934786825E0,-3.378842216E0,-6.550033432E0,7.932999836E0
8.672451792E0,4.341790341E0,-4.135429822E0,-7.771738392E0,9.815948288E0
8.682442792E0,5.441534661E0,-4.802246879E0,-8.159842068E0,1.092038906E1
8.692433792E0,5.739222842E0,-5.259773962E0,-7.600754696E0,1.088004471E1
8.702424792E0,4.938238497E0,-5.625479295E0,-6.997069441E0,1.024652124E1
8.712415792E0,3.755273681E0,-5.803356273E0,-6.810660791E0,9.703923168E0
8.722406792E0,2.594065184E0,-5.094663211E0,-6.917121631E0,8.973925510E0
8.732397792E0,-1.953560597E-1,-5.873838610E0,-6.239391915E0,8.571473355E0
8.742387792E0,-2.255538003E0,-7.222669639E0,-5.367189653E0,9.276913989E0
8.752378792E0,-3.216652441E0,-6.127129467E0,-3.784153956E0,7.887229526E0
8.762369792E0,-4.549082322E0,-3.668769972E0,-3.571659122E-1,5.855048298E0
8.772360792E0,-5.314534307E0,-1.221368160E0,3.877361205E0,6.691034672E0
8.782351792E0,-5.625609688E0,-1.288375497E-1,6.738746470E0,8.779224764E0
8.792342792E0,-5.523355334E0,5.649427736E-1,7.844943777E0,9.610918653E0
8.802333792E0,-5.346552490E0,1.725287052E0,6.169011319E0,8.343796473E0
8.812324792E0,-5.685900328E0,2.917355983E0,1.941061442E0,6.678933148E0
8.822314792E0,-5.216500474E0,3.249351532E0,1.053503442E0,6.235385479E0
8.832305792E0,-4.367234792E0,3.265102177E0,3.370312883E0,6.410354194E0
8.842296792E0,-3.551751984E0,3.582780234E0,5.047772634E0,7.136614388E0
8.852287792E0,-2.054225969E0,3.798672885E0,6.473841873E0,7.782055552E0
8.862278792E0,5.847493395E-2,3.483696241E0,7.978011203E0,8.705643088E0
8.872269792E0,2.147634216E0,2.242477954E0,9.212570096E0,9.721753334E0
8.882260792E0,4.213574643E0,7.131018627E-1,9.415503563E0,1.033994356E1
8.892250792E0,6.046257797E0,-5.433478367E-1,8.193057761E0,1.019699248E1
8.902241792E0,7.111542721E0,-1.393218412E0,5.731330270E0,9.239223132E0
8.912232792E0,7.629891956E0,-1.854250317E0,2.250213236E0,8.168044754E0
8.922223792E0,6.799358708E0,-2.010663335E0,-2.132927445E0,7.404284258E0
8.932214792E0,4.524596522E0,-1.730213331E0,-5.776065563E0,7.538471015E0
8.942205792E0,1.679743820E0,-1.403447531E0,-7.799726089E0,8.101045077E0
8.952196792E0,-1.090080334E0,-1.021333158E0,-8.045182847E0,8.182686820E0
8.962187792E0,-3.210220211E0,-5.322088909E-1,-6.323449148E0,7.111594001E0
8.972177792E0,-4.318771607E0,-2.126924694E-2,-3.273567191E0,5.419269576E0
8.982168792E0,-4.254591984E0,3.351191318E-1,-2.493632823E-1,4.275048517E0
8.992159792E0,-3.717780164E0,5.684832627E-1,2.083031546E0,4.299311921E0
9.002150792E0,-3.194501141E0,7.726978540E-1,3.481615217E0,4.787853803E0
9.012141792E0,-2.585448142E0,1.027612483E0,3.944514138E0,4.826978485E0
9.022132792E0,-1.610962145E0,1.340170133E0,3.437762854E0,4.026098417E0
9.032123792E0,-1.116939519E-1,1.261723888E0,2.298032935E0,2.624000396E0
9.042114792E0,1.262445873E0,9.893284231E-1,9.358806328E-1,1.856990272E0
9.052105792E0,2.314703785E0,7.163815659E-1,-1.548342705E-1,2.427968248E0
9.062095792E0,2.910488136E0,4.112077796E-1,-9.595484076E-1,3.092048864E0
9.072086792E0,2.912368016E0,2.677556992E-1,-1.708266976E0,3.386998175E0
9.082077792E0,2.402489349E0,3.499698901E-1,-2.269136726E0,3.323163474E0
9.092068792E0,1.469272123E0,4.767100435E-1,-2.472350712E0,2.915224019E0
9.102059792E0,2.003450502E-1,5.748777777E-1,-2.266952060E0,2.347273789E0
9.112050792E0,-1.125873626E0,5.189935988E-1,-1.682285458E0,2.089744037E0
9.122041792E0,-2.010323174E0,4.143383789E-1,-1.100378158E0,2.328928433E0
9.132032792E0,-2.338775310E0,4.679696256E-1,-7.504972918E-1,2.500422306E0
9.142022792E0,-2.235269214E0,6.751464164E-1,-8.733578177E-1,2.492991180E0
9.152013792E0,-1.757587948E0,8.278657490E-1,-1.232193695E0,2.300603920E0
9.162004792E0,-1.025307364E0,9.209791499E-1,-1.533302497E0,2.061667852E0
9.171995792E0,-6.136418939E-2,7.152565616E-1,-1.585284244E0,1.740253903E0
9.181986792E0,9.979295312E-1,4.137361157E-1,-1.319174536E0,1.705069611E0
9.191977792E0,1.756588805E0,1.781599832E-1,-9.326779667E-1,1.996805799E0
9.201968792E0,1.969227480E0,1.367944407E-1,-7.526591536E-1,2.112596835E0
9.211959792E0,1.639208436E0,2.848178744E-2,-9.224666816E-1,1.881159294E0
9.221949792E0,1.197145703E0,-3.847298330E-1,-1.386806648E0,1.872006292E0
9.231940792E0,1.085929834E0,-7.517250609E-1,-2.079570433E0,2.463523363E0
9.241931792E0,1.347142207E0,-1.129190898E0,-2.658594764E0,3.187160229E0
9.251922792E0,2.255707279E0,-1.577203392E0,-2.618332883E0,3.798875223E0
9.261913792E0,3.411810572E0,-1.731618417E0,-2.087730515E0,4.358620473E0
9.271904792E0,4.031412533E0,-2.116210256E0,-1.565943409E0,4.814853229E0
9.281895792E0,3.801224902E0,-2.900228319E0,-1.317256064E0,4.959415147E0
9.291886792E0,2.992205606E0,-3.332874915E0,-1.585334822E0,4.751277311E0
9.301876792E0,2.066112335E0,-3.100812959E0,-2.229736579E0,4.342301970E0
9.311867792E0,1.386692335E0,-2.620912675E0,-2.672473715E0,3.991768359E0
9.321858792E0,1.262219732E0,-2.495557142E0,-3.076754298E0,4.157814463E0
9.331849792E0,1.440360712E0,-2.630820197E0,-3.750312318E0,4.802155388E0
9.341840792E0,1.639731177E0,-2.745933162E0,-4.809230794E0,5.775601102E0
9.351831792E0,2.231396749E0,-3.631871703E0,-5.716988804E0,7.131169926E0
9.361822792E0,2.901588089E0,-4.703613707E0,-5.541316227E0,7.826198366E0
9.371812708E0,3.305089239E0,-4.314707792E0,-5.196119419E0,7.519306831E0
9.381803708E0,3.601525823E0,-3.230074432E0,-4.791928883E0,6.809328271E0
9.391794708E0,3.778002100E0,-2.081737996E0,-3.965180537E0,5.859145811E0
9.401785708E0,4.037115615E0,-1.133640629E0,-3.197044388E0,5.273000700E0
9.411776708E0,4.222373825E0,-3.365423441E-1,-2.437285691E0,4.886927768E0
9.421767708E0,3.674247936E0,-3.992829680E-2,-1.668183144E0,4.035409170E0
9.431758708E0,2.997566918E0,9.174281359E-2,-1.125461178E0,3.203199500E0
9.441749708E0,2.211806823E0,1.190995967E-1,-3.696743491E-1,2.245647626E0
9.451740708E0,1.502166658E0,-5.754934895E-1,1.067013361E0,1.930340627E0
9.461730708E0,1.308476178E0,-1.888637207E0,3.728368887E0,4.379474280E0
9.471721708E0,1.304941536E0,-2.890809624E0,6.388438611E0,7.132447026E0
9.481712708E0,1.063706614E0,-3.122330713E0,7.780934308E0,8.451234202E0
9.491703708E0,1.174456679E0,-2.799989501E0,8.183032125E0,8.728190217E0
9.501694708E0,1.403242879E0,-2.584398567E0,7.936818738E0,8.464118277E0
9.511685708E0,1.801829736E0,-2.704895648E0,5.777365984E0,6.628801443E0
9.521676708E0,2.764358908E0,-2.880417368E0,-6.557220391E-1,4.045794826E0
9.531666708E0,2.286832008E0,-3.071257623E0,-4.930975671E0,6.243135838E0
9.541657708E0,1.535783032E0,-2.737045979E0,-3.794344776E0,4.924134694E0
9.551648708E0,1.832095947E0,-2.078159500E0,-1.027653852E0,2.954893383E0
9.561639708E0,2.339015192E0,-1.568086998E0,1.679003562E0,3.278557894E0
9.571630708E0,2.385974035E0,-1.267961698E0,3.946218309E0,4.782597401E0
9.581621708E0,2.098356660E0,-1.177613445E0,5.688522220E0,6.176500558E0
9.591612708E0,1.626599062E0,-1.130579027E0,6.484550464E0,6.780370799E0
9.601603708E0,1.101399667E0,-8.099025178E-1,6.142884790E0,6.293175419E0
9.611594708E0,8.028953607E-1,-2.700519007E-1,5.189074109E0,5.257761795E0
9.621584708E0,4.798483904E-1,2.456111240E-1,4.515252671E0,4.547316350E0
9.631575708E0,2.641080599E-1,6.017018795E-1,4.245060730E0,4.295618561E0
9.641566708E0,1.033648856E-1,7.892770493E-1,4.279745243E0,4.353143911E0
9.651557708E0,7.147972628E-2,9.406521070E-1,4.464935626E0,4.563505877E0
9.661548708E0,1.255248097E-1,1.122512208E0,4.533714085E0,4.672296388E0
9.671539708E0,-6.347532660E-2,1.387348393E0,4.348593577E0,4.564978727E0
9.681530708E0,-3.567302947E-1,1.816121793E0,4.200624814E0,4.590294511E0
9.691520708E0,-8.195676729E-1,2.360091189E0,4.095489246E0,4.797369461E0
9.701511708E0,-1.313684439E0,2.968030878E0,3.981211848E0,5.136635268E0
9.711502708E0,-1.787358900E0,3.506965821E0,3.829238912E0,5.491496313E0
9.721493708E0,-2.350239215E0,3.864948151E0,3.747933086E0,5.874389414E0
9.731484708E0,-2.783130809E0,3.997378229E0,3.727346794E0,6.133348509E0
9.741475708E0,-2.991640180E0,3.935065622E0,3.681319559E0,6.163340499E0
9.751466708E0,-3.135310070E0,3.708924556E0,3.596362147E0,6.043187180E0
9.761457708E0,-3.121160685E0,3.266849325E0,3.543111554E0,5.741740853E0
9.771447708E0,-3.127326574E0,2.784135361E0,3.497872816E0,5.455886311E0
9.781438708E0,-3.006503510E0,2.421133196E0,3.489903061E0,5.203880541E0
9.791429708E0,-2.865639700E0,2.236061804E0,3.376961752E0,4.961424589E0
9.801420708E0,-2.755886000E0,2.172967424E0,3.159746461E0,4.722360932E0
9.811411708E0,-2.683751824E0,2.047342919E0,2.770178057E0,4.366694785E0
9.821402708E0,-2.683618800E0,1.805382797E0,2.359374028E0,4.003481324E0
9.831393708E0,-2.684582714E0,1.321753743E0,2.022834022E0,3.611907361E0
9.841384708E0,-2.614526930E0,4.534112281E-1,1.352198148E0,2.978216353E0
9.851374708E0,-1.645864760E0,-2.562244052E-1,-5.344062746E-3,1.665698146E0
9.861365708E0,-1.344657871E-1,-5.099730992E-1,-2.144104106E0,2.208016310E0
9.871356708E0,1.327794940E0,-5.906728613E-1,-4.158219637E0,4.404852368E0
9.881347708E0,2.858307291E0,-9.857002258E-1,-5.604539831E0,6.368076022E0
9.891338708E0,4.527878564E0,-1.916193965E0,-6.013612207E0,7.767690479E0
9.901329708E0,6.089399139E0,-3.277770170E0,-6.578916339E0,9.544982941E0
9.911320708E0,7.181896420E0,-4.597267472E0,-7.782726479E0,1.154492684E1
9.921311708E0,7.134742134E0,-5.230802178E0,-7.654745547E0,1.169875917E1
9.931301708E0,6.328195333E0,-4.595637853E0,-7.172958366E0,1.061212868E1
9.941292708E0,4.460820648E0,-2.451645137E0,-7.648534634E0,9.187467920E0
9.951283708E0,1.417028275E0,-6.566329622E-1,-6.581335917E0,6.764105146E0
9.961274708E0,-1.946551247E0,-2.217628457E0,-3.491837612E0,4.571637304E0
9.971265708E0,-3.959141532E0,-6.675056843E0,-3.580144894E-1,7.769128645E0
9.981256708E0,-2.869689481E0,-6.344302073E0,2.988195001E0,7.577241970E0
9.991247708E0,-2.468917812E0,-4.208256308E0,5.915328113E0,7.667860393E0
1.000123871E1,-3.721169795E0,-4.331838965E0,7.692373549E0,9.580425057E0
1.001122871E1,-4.140076604E0,-4.670645351E0,6.488431846E0,9.003050044E0
1.002121971E1,-2.516697750E0,-1.656733126E0,-1.747646220E0,3.483216836E0
1.003121071E1,5.058848722E-1,3.114187295E0,-8.461968870E0,9.031002114E0
1.004120171E1,1.220505403E-1,3.145618418E0,3.880625120E0,4.996905332E0
1.005119271E1,-2.561853458E0,6.881096935E-1,1.124685034E1,1.155544160E1
1.006118371E1,-2.673408977E0,1.261281838E0,1.090879473E1,1.130220111E1
1.007117471E1,-1.441663910E0,3.587741012E0,9.483675081E0,1.024160014E1
1.008116571E1,-9.312509537E-2,5.398555287E0,8.230403928E0,9.843404913E0
1.009115571E1,8.446041347E-1,5.696377954E0,6.239872556E0,8.491059265E0
1.010114671E1,1.833088658E0,3.814401310E0,3.081922359E0,5.235276193E0
1.011113771E1,3.471181446E0,1.235291550E0,1.252216315E0,3.891412538E0
1.012112871E1,4.222666478E0,-2.696735859E-3,1.915709231E0,4.636902125E0
1.013111971E1,4.467567751E0,-4.658488405E-1,2.030702913E0,4.929496026E0
1.014111071E1,5.475309348E0,-1.020284168E0,2.506876767E-1,5.575198342E0
1.015110171E1,6.540607136E0,-1.433357209E0,-2.138474114E0,7.029020282E0
1.016109271E1,5.682937544E0,-1.047080787E0,-2.235921471E0,6.196087647E0
1.017108271E1,3.092731522E0,-3.156022954E-1,-8.004545867E-1,3.210190123E0
1.018107371E1,6.120712586E-1,-1.152591455E-1,-6.726463297E-2,6.264506582E-1
1.019106471E1,-1.151159180E0,-1.118683451E-1,-2.582340566E-1,1.185059834E0
1.020105571E1,-2.294404884E0,4.634503126E-3,-9.628516459E-1,2.488252105E0
1.021104671E1,-2.800607552E0,1.767817944E-1,-1.581468936E0,3.221133101E0
1.022103771E1,-2.984662698E0,4.812287718E-1,-1.459574370E0,3.357104391E0
1.023102871E1,-2.883305892E0,8.250164008E-1,-9.371858776E-1,3.142041104E0
1.024101971E1,-2.329111032E0,1.161313162E0,-1.975780382E-1,2.610065812E0
1.025100971E1,-1.347104054E0,1.471727223E0,4.383792061E-1,2.042754679E0
1.026100071E1,-1.186633945E-1,1.558687014E0,8.938803021E-1,1.800724355E0
1.027099171E1,1.198550497E0,1.394400135E0,1.335341502E0,2.272446250E0
1.028098271E1,2.342916747E0,1.244724278E0,1.649507137E0,3.124015238E0
1.029097371E1,3.121995082E0,1.197265352E0,1.721103954E0,3.760651066E0
1.030096471E1,3.370451754E0,1.145680046E0,1.524767316E0,3.872653246E0
1.031095571E1,2.922552989E0,1.051878428E0,9.833163160E-1,3.258017062E0
1.032094671E1,1.942454541E0,9.279993170E-1,2.161076818E-1,2.163565323E0
1.033093671E1,7.786702001E-1,7.560672033E-1,-5.372399814E-1,1.211029188E0
1.034092771E1,-2.021152582E-1,6.235114092E-1,-1.061271541E0,1.247362954E0
1.035091871E1,-8.426912181E-1,5.922019082E-1,-1.127362327E0,1.527015850E0
1.036090971E1,-1.051405973E0,7.160219622E-1,-7.659576224E-1,1.484868024E0
1.037090017E1,-8.122591650E-1,9.323806357E-1,-1.559334008E-1,1.246360231E0
1.038089117E1,-2.267017768E-1,1.101159346E0,5.051813060E-1,1.232539554E0
1.039088217E1,4.932615376E-1,1.096792645E0,1.072199987E0,1.611171581E0
1.040087217E1,1.174431025E0,8.002780008E-1,1.379970376E0,1.980921843E0
1.041086317E1,1.707225587E0,2.022569436E-1,1.287591239E0,2.147886933E0
1.042085417E1,2.000702896E0,-3.570888752E-1,8.662398559E-1,2.209229737E0
1.043084517E1,1.963256304E0,-7.488236725E-1,2.666064289E-1,2.118063076E0
1.044083617E1,1.705795505E0,-1.165806747E0,-3.637146476E-1,2.097887514E0
1.045082717E1,1.384647710E0,-1.734189438E0,-1.083165125E0,2.469394455E0
1.046081817E1,1.297459293E0,-2.302144697E0,-1.816830475E0,3.206890051E0
1.047080917E1,1.697860394E0,-2.612518997E0,-2.410972051E0,3.939641057E0
1.048079917E1,2.551826945E0,-2.689043847E0,-2.838874070E0,4.669259422E0
1.049079017E1,3.644742886E0,-2.503011172E0,-2.856017814E0,5.263653996E0
1.050078117E1,4.719320790E0,-2.293157526E0,-2.446489062E0,5.789289152E0
1.051077217E1,5.346810352E0,-2.126891949E0,-1.928606727E0,6.068902225E0
1.052076317E1,5.308542080E0,-1.730319750E0,-1.744598359E0,5.849636646E0
1.053075417E1,4.957060685E0,-1.256802287E0,-1.968316630E0,5.479623434E0
1.054074517E1,4.499060562E0,-7.944904268E-1,-2.256666369E0,5.095616163E0
1.055073617E1,4.080021314E0,-4.913947409E-1,-2.416953314E0,4.767568147E0
1.056072617E1,4.075975040E0,-7.891256064E-1,-2.580669798E0,4.888368681E0
1.057071717E1,4.212502263E0,-2.165795814E0,-2.550056700E0,5.379464286E0
1.058070817E1,4.560474160E0,-3.887700251E0,-2.764790432E0,6.599712414E0
1.059069917E1,4.982360417E0,-4.054958101E0,-3.326171667E0,7.233949024E0
1.060069017E1,5.187171425E0,-2.904716642E0,-4.206455365E0,7.282746247E0
1.061068117E1,4.998163102E0,-1.686584916E0,-4.585622742E0,6.989573593E0
1.062067217E1,4.589659952E0,-1.260151572E0,-4.283312337E0,6.403102767E0
1.063066317E1,3.819627551E0,-1.075921594E0,-3.213006409E0,5.105934987E0
1.064065317E1,3.160361003E0,-8.660270172E-1,-1.858793457E0,3.767359497E0
1.065064417E1,2.204895853E0,-5.935169470E-1,-9.635047799E-1,2.478340079E0
1.066063517E1,1.278749518E0,-3.591213673E-1,1.330983792E-1,1.334872153E0
1.067062617E1,6.497988828E-1,-5.341893429E-1,1.983922264E0,2.154888487E0
1.068061717E1,1.459899914E-1,-1.179136645E0,4.195690641E0,4.360676124E0
1.069060817E1,3.150189625E-1,-2.035756661E0,5.726505733E0,6.085754681E0
1.070059917E1,1.015847885E0,-2.597564158E0,6.938977354E0,7.478548869E0
1.071059017E1,1.810647337E0,-2.577491251E0,7.235338801E0,7.891263048E0
1.072058017E1,1.775912245E0,-2.790588933E0,7.287804698E0,8.003333568E0
1.073057117E1,1.845201312E0,-2.998757996E0,7.527821206E0,8.310560120E0
1.074056217E1,2.429359644E0,-3.143594112E0,6.699612225E0,7.789016382E0
1.075055317E1,3.680773721E0,-3.297318581E0,3.053673291E0,5.809072696E0
1.076054417E1,5.443904538E0,-3.365218788E0,-1.824503192E0,6.655043652E0
1.077053517E1,5.669763767E0,-3.157682394E0,-1.782886219E0,6.730220096E0
1.078052617E1,5.431030138E0,-2.618873166E0,2.833078310E-1,6.036128589E0
1.079051717E1,5.102886735E0,-1.967748281E0,2.296104815E0,5.931575140E0
1.080050717E1,4.308178207E0,-1.262917889E0,4.220006580E0,6.161478442E0
1.081049817E1,3.090932334E0,-8.908993185E-1,6.000920241E0,6.808715593E0
1.082048917E1,1.777498741E0,-7.751414055E-1,6.828487197E0,7.098491627E0
1.083048017E1,1.001484273E0,-4.652500856E-1,6.100512357E0,6.199651555E0
1.084047117E1,8.506841426E-1,-9.246260583E-2,5.061972597E0,5.133788019E0
1.085046217E1,1.066783858E0,2.920444483E-1,4.420943222E0,4.557198343E0
1.086045317E1,1.262567641E0,5.249840713E-1,4.128870123E0,4.349396948E0
1.087044317E1,1.532213745E0,5.589014304E-1,4.339702885E0,4.636062004E0
1.088043417E1,1.629454111E0,4.737297177E-1,4.609579369E0,4.912001884E0
1.089042517E1,1.295662589E0,5.048252106E-1,4.893219907E0,5.086962856E0
1.090041617E1,6.318934659E-1,9.673165798E-1,5.032034268E0,5.162979721E0
1.091040717E1,6.630903348E-2,1.565057555E0,4.971619667E0,5.212562148E0
1.092039817E1,-7.310216052E-1,2.043808277E0,4.760029398E0,5.231579563E0
1.093038917E1,-1.775934464E0,2.361766416E0,4.694094732E0,5.546747622E0
1.094038017E1,-2.807157018E0,2.537905601E0,4.691607619E0,6.027626184E0
1.095037017E1,-3.718813367E0,2.747623007E0,4.606420411E0,6.526723072E0
1.096036117E1,-4.211498881E0,2.996268836E0,4.464597073E0,6.829859207E0
1.097035217E1,-4.283777191E0,3.158295767E0,4.156478921E0,6.752917606E0
1.098034317E1,-4.138108723E0,3.030580882E0,3.736460264E0,6.345825368E0
1.099033417E1,-4.046786909E0,2.476798105E0,3.218494606E0,5.733212073E0
1.100032517E1,-3.781149949E0,1.859956614E0,2.785051619E0,5.051044057E0
1.101031617E1,-3.461936121E0,1.545498619E0,2.602466463E0,4.598521434E0
1.102030717E1,-3.144529375E0,1.434191022E0,2.397400225E0,4.206244966E0
1.103029717E1,-2.765962799E0,1.476204436E0,2.142964483E0,3.797634332E0
1.104028817E1,-2.404371129E0,1.554241376E0,1.786816425E0,3.374815509E0
1.105027917E1,-2.034795525E0,1.437247362E0,1.685811914E0,3.007995116E0
1.106027017E1,-1.899264668E0,9.715938181E-1,1.253994161E0,2.474611521E0
1.107026117E1,-1.612783991E0,3.333667213E-1,-7.242858320E-2,1.648469434E0
1.108025217E1,-8.066090736E-1,9.639602780E-2,-1.676504609E0,1.862948763E0
1.109024317E1,1.265061186E-1,6.321951091E-2,-3.005391370E0,3.008716967E0
1.110023417E1,1.149531022E0,-2.641959143E-1,-4.232349175E0,4.393631823E0
1.111022417E1,2.849540561E0,-7.401382184E-1,-5.233100719E0,6.004417467E0
1.112021517E1,4.977641129E0,-1.593835797E0,-5.656661911E0,7.701626305E0
1.113020617E1,6.916832778E0,-3.061205090E0,-5.947778406E0,9.622350038E0
1.114019717E1,7.588281416E0,-4.773791404E0,-5.952867823E0,1.076140021E1
1.115018817E1,7.006342540E0,-5.818505239E0,-5.646554414E0,1.071575549E1
1.116017917E1,6.243257509E0,-5.179444329E0,-5.950588578E0,1.006053738E1
1.117017017E1,4.579636070E0,-3.270482200E0,-7.322337184E0,9.235028002E0
1.118016117E1,8.840327869E-1,-3.049421781E0,-6.345297854E0,7.095300700E0
1.119015117E1,-2.545625680E0,-6.346267322E0,-2.906771353E0,7.429982418E0
1.120014217E1,-2.821059650E0,-6.902073821E0,1.968675357E0,7.711853425E0
1.121013317E1,-2.487706670E0,-4.363234420E0,5.541087016E0,7.478645893E0
1.122012417E1,-3.213014011E0,-1.700605955E0,6.858720810E0,7.762575011E0
1.123011517E1,-4.890116497E0,-1.549732003E0,6.567522454E0,8.333502255E0
1.124010617E1,-6.507907167E0,-3.011131289E0,4.054252342E0,8.237519614E0
1.125009717E1,-7.286929954E0,-2.483997781E0,-3.650116185E0,8.520149136E0
1.126008817E1,-5.920819818E0,1.522703249E0,-7.041836894E0,9.325352505E0
1.127007817E1,-3.265310338E0,5.571582000E0,5.435033727E-1,6.480754084E0
1.128006917E1,-2.536998406E0,5.984678430E0,7.013681381E0,9.562659846E0
1.129006017E1,-1.781680523E0,5.602001554E0,9.680408159E0,1.132550701E1
1.130005117E1,-2.676606088E-1,5.551260002E0,1.052258146E1,1.190011976E1
1.131004217E1,1.943231198E0,5.527429674E0,1.024253141E1,1.179991847E1
1.132003317E1,3.385030909E0,3.880604655E0,9.201752747E0,1.054465648E1
1.133002417E1,3.962573848E0,1.231742874E0,7.625600685E0,8.681530269E0
1.134001517E1,4.514932244E0,-1.022882085E0,5.956150450E0,7.543648262E0
1.135000517E1,5.942348097E0,-3.014799247E0,3.950644358E0,7.746489931E0
1.135999617E1,7.207797831E0,-4.037836869E0,9.276326966E-1,8.313662163E0
1.136998717E1,7.682212842E0,-3.715623127E0,-2.788270512E0,8.977566587E0
1.137997867E1,6.805522842E0,-2.226972308E0,-5.947500663E0,9.308453736E0
1.138996967E1,4.617319036E0,-3.120658994E-1,-6.730115395E0,8.167709192E0
1.139996067E1,2.018114588E0,6.651353985E-1,-5.244182947E0,5.658325403E0
1.140995167E1,-4.690652842E-1,5.972878164E-1,-2.876592704E0,2.975157233E0
1.141994267E1,-2.234090123E0,5.010783148E-1,-4.870040667E-1,2.340814200E0
1.142993267E1,-3.058021281E0,7.223854870E-1,1.363583554E0,3.425302184E0
1.143992367E1,-2.944750189E0,9.857475883E-1,2.292756407E0,3.860049731E0
1.144991467E1,-2.645472735E0,1.061972476E0,2.410554999E0,3.733240808E0
1.145990567E1,-2.467865898E0,1.078045887E0,1.997251577E0,3.352843403E0
1.146989667E1,-2.277872320E0,1.088660923E0,8.994538680E-1,2.680093687E0
1.147988767E1,-1.726235178E0,9.885291088E-1,-3.526034760E-1,2.020249217E0
1.148987867E1,-5.685455720E-1,1.003604400E0,-7.778410649E-1,1.391223412E0
1.149986967E1,7.116033675E-1,1.079898870E0,-6.091939900E-1,1.429572747E0
1.150985967E1,1.841984028E0,9.747343576E-1,-2.798092226E-1,2.102690045E0
1.151985067E1,2.613068635E0,8.150492370E-1,8.638340190E-2,2.738593625E0
1.152984167E1,2.970121842E0,8.542378610E-1,2.208312088E-1,3.098404832E0
1.153983267E1,2.810015430E0,9.309468985E-1,9.394955277E-2,2.961701430E0
1.154982367E1,2.090178013E0,8.230435503E-1,-2.642488316E-2,2.246540248E0
1.155981467E1,1.113386897E0,6.605254537E-1,-1.422196336E-1,1.302363498E0
1.156980567E1,7.247579947E-2,5.888824439E-1,-2.349506266E-1,6.381512918E-1
1.157979567E1,-7.675528890E-1,5.629278231E-1,-3.426604320E-1,1.011652778E0
1.158978667E1,-1.259586584E0,5.705637020E-1,-5.237492855E-1,1.478652973E0
1.159977767E1,-1.364067265E0,6.497747630E-1,-6.409811354E-1,1.641262795E0
1.160976867E1,-1.119242445E0,6.685168433E-1,-7.057910889E-1,1.482484227E0
1.161975967E1,-6.430044913E-1,5.447336268E-1,-6.166970640E-1,1.044272363E0
1.162975067E1,1.524431247E-2,4.024889964E-1,-3.534293953E-1,5.358564348E-1
1.163974167E1,6.774564321E-1,3.841842878E-1,4.660757124E-2,7.802032107E-1
1.164973267E1,1.152147359E0,3.648194790E-1,3.678114992E-1,1.263258520E0
1.165972267E1,1.387929606E0,2.421484029E-1,4.626597691E-1,1.482915541E0
1.166971367E1,1.379576566E0,-1.043844938E-1,1.976262411E-1,1.397563507E0
1.167970467E1,1.288803075E0,-6.007499528E-1,-3.491987886E-1,1.464190447E0
1.168969567E1,1.299893927E0,-1.069376805E0,-8.618749094E-1,1.891063017E0
1.169968667E1,1.522579288E0,-1.401341364E0,-1.185276952E0,2.384719430E0
1.170967767E1,1.932710157E0,-1.763081115E0,-1.378170749E0,2.956886569E0
1.171966867E1,2.427276866E0,-2.113606490E0,-1.522627381E0,3.560533601E0
1.172965967E1,2.879580631E0,-2.311889666E0,-1.591643676E0,4.021212259E0
1.173964967E1,3.235214719E0,-2.288233586E0,-1.680226069E0,4.304159252E0
1.174964067E1,3.495654674E0,-2.173546298E0,-1.914851152E0,4.539885466E0
1.175963167E1,3.744362776E0,-1.869280000E0,-2.178848846E0,4.718245713E0
1.176962267E1,4.083747452E0,-1.442568328E0,-2.253249987E0,4.882123732E0
1.177961367E1,4.425164620E0,-1.318242490E0,-2.202782376E0,5.115867020E0
1.178960467E1,4.648661866E0,-1.566977196E0,-2.363718801E0,5.445423882E0
1.179959567E1,4.712239519E0,-1.878673552E0,-2.891111633E0,5.838933299E0
1.180958667E1,4.914015237E0,-2.759436722E0,-3.610257178E0,6.692980925E0
1.181957667E1,5.084398423E0,-4.181896475E0,-3.994211670E0,7.700200797E0
1.182956767E1,5.266484812E0,-4.570913486E0,-4.091850231E0,8.085316981E0
1.183955867E1,5.244195811E0,-3.890538490E0,-4.108035032E0,7.714520806E0
1.184954967E1,4.946339815E0,-3.042961777E0,-4.189920609E0,7.161098285E0
1.185954067E1,4.488498151E0,-2.461270823E0,-4.253600296E0,6.655643109E0
1.186953167E1,3.661966152E0,-1.951443905E0,-4.266698059E0,5.951709144E0
1.187952267E1,3.008531617E0,-1.385130544E0,-3.651716568E0,4.929998276E0
1.188951367E1,2.462675032E0,-9.313392466E-1,-2.664553369E0,3.745931895E0
1.189950367E1,1.931121030E0,-3.793299294E-1,-1.878709804E0,2.720784842E0
1.190949467E1,1.771140625E0,1.502149701E-1,-2.268726251E-1,1.791919317E0
1.191948567E1,1.023569426E0,3.815612268E-1,1.932025886E0,2.219461053E0
1.192947667E1,3.947617547E-1,1.115730608E-1,4.217544610E0,4.237448280E0
1.193946767E1,7.589457145E-1,-6.175472492E-1,6.035775493E0,6.114568587E0
1.194945867E1,1.337501756E0,-1.284601119E0,6.595593767E0,6.851347906E0
1.195944967E1,1.634463859E0,-1.501215901E0,6.296486467E0,6.676141334E0
1.196944067E1,1.487620978E0,-1.766389470E0,5.961621104E0,6.393283517E0
1.197943067E1,1.147566869E0,-2.373688304E0,5.855011160E0,6.421250779E0
1.198942167E1,1.209133299E0,-3.021387305E0,5.016432728E0,5.979580411E0
1.199941267E1,1.891247697E0,-3.613665812E0,2.295621689E0,4.680307403E0
1.200940367E1,2.751894398E0,-3.915686195E0,-4.852147456E-1,4.810504600E0
1.201939467E1,3.380920024E0,-3.699051533E0,-7.333038466E-1,5.064714897E0
1.202938567E1,4.062317991E0,-2.891669165E0,6.965894718E-1,5.034820246E0
1.203937667E1,4.632126233E0,-1.536143074E0,5.354467281E0,7.244766997E0
1.204936767E1,4.428620909E0,-9.275636995E-1,1.782404408E0,4.863128936E0
1.205935767E1,3.603670582E0,-7.586592740E-1,2.434719787E0,4.414732834E0
1.206934867E1,2.660065046E0,-6.734922391E-1,4.568412048E0,5.329158140E0
1.207933967E1,1.729762511E0,-7.059676749E-1,5.496427152E0,5.805271754E0
1.208933067E1,1.419232675E0,-4.245207202E-1,5.438837925E0,5.636967022E0
1.209932167E1,1.598223255E0,-6.108352304E-2,4.812160249E0,5.070989551E0
1.210931267E1,1.846751701E0,1.652189255E-1,4.280514152E0,4.664824814E0
1.211930367E1,2.144253356E0,2.042584455E-1,4.135104132E0,4.662470391E0
1.212929467E1,2.160939994E0,2.402579981E-1,4.310264786E0,4.827604798E0
1.213928467E1,1.765530952E0,4.014487767E-1,4.630949188E0,4.972318478E0
1.214927567E1,1.136398176E0,7.115903574E-1,4.875890222E0,5.056883141E0
1.215926667E1,2.612208509E-1,1.120475038E0,4.993284770E0,5.124118797E0
1.216925767E1,-7.150801219E-1,1.658838124E0,4.993356106E0,5.310055433E0
1.217924867E1,-1.764717897E0,2.235848966E0,5.037087432E0,5.786665676E0
1.218923967E1,-2.692689293E0,2.878021179E0,5.042318351E0,6.399887178E0
1.219923067E1,-3.441653591E0,3.445142625E0,4.922597780E0,6.924301846E0
1.220922067E1,-3.961511409E0,3.834767747E0,4.740052678E0,7.270977630E0
1.221921167E1,-4.300925320E0,3.970358246E0,4.505065944E0,7.386292871E0
1.222920267E1,-4.338646293E0,3.813120770E0,4.140769791E0,7.107018793E0
1.223919367E1,-4.301770828E0,3.393060890E0,3.650685119E0,6.583737259E0
1.224918467E1,-4.364288673E0,2.957003614E0,3.203423408E0,6.168695771E0
1.225917567E1,-4.360664861E0,2.660933942E0,2.736934005E0,5.795409841E0
1.226916667E1,-4.206141370E0,2.598638876E0,2.275004261E0,5.442443717E0
1.227915767E1,-3.946268887E0,2.595151597E0,1.880757207E0,5.083807393E0
1.228914767E1,-3.634863723E0,2.491820186E0,1.614092598E0,4.693260811E0
1.229913867E1,-3.494712980E0,1.961722725E0,1.175898164E0,4.176614820E0
1.230912967E1,-3.176024525E0,1.149259712E0,1.117250884E-1,3.379410031E0
1.231912067E1,-2.090291303E0,6.274641269E-1,-1.489334651E0,2.642185963E0
1.232911167E1,-6.951981269E-1,3.380661285E-1,-3.169557796E0,3.262466209E0
1.233910267E1,8.708047771E-1,-1.256630963E-1,-4.638418129E0,4.721124328E0
1.234909367E1,2.571647544E0,-9.912363696E-1,-5.241562809E0,5.921984576E0
1.235908467E1,4.603212629E0,-2.240962356E0,-5.592675830E0,7.582183177E0
1.236907467E1,7.008384973E0,-3.753378598E0,-6.548996136E0,1.030022627E1
1.237906592E1,8.717412087E0,-5.192164362E0,-7.269727446E0,1.248201832E1
1.238905692E1,8.159811078E0,-6.101643793E0,-7.208338698E0,1.248089422E1
1.239904792E1,6.684136984E0,-5.834007962E0,-7.179722425E0,1.141322699E1
1.240903892E1,4.912439412E0,-3.979410321E0,-8.374399799E0,1.049277558E1
1.241902992E1,2.387683761E0,-2.099556801E0,-7.593621093E0,8.232390528E0
1.242902092E1,-1.160895086E0,-4.226523594E0,-4.167539806E0,6.048104425E0
1.243901192E1,-2.752368023E0,-7.042523357E0,3.011646429E-1,7.567256115E0
1.244900192E1,-2.607662299E0,-5.964518985E0,5.546906165E0,8.552400680E0
1.245899292E1,-3.190668876E0,-3.815371363E0,8.238266094E0,9.623224758E0
1.246898392E1,-4.457396811E0,-2.938447475E0,8.692985344E0,1.020151234E1
1.247897492E1,-5.685119140E0,-3.609409624E0,8.284125806E0,1.067591485E1
1.248896592E1,-6.121533682E0,-3.293425505E0,3.590287474E0,7.823681379E0
1.249895692E1,-6.222322138E0,-3.757514334E-1,-5.540871838E0,8.340248357E0
1.250894792E1,-3.950561036E0,4.869009218E0,-2.052818252E0,6.597593958E0
1.251893892E1,-3.468763037E0,6.468350753E0,5.840286702E0,9.379809552E0
1.252892892E1,-3.713843527E0,5.876027223E0,9.019121983E0,1.138704927E1
1.253891992E1,-2.460915020E0,5.966090131E0,1.003225384E1,1.192880762E1
1.254891092E1,-3.526020142E-1,6.439598824E0,9.784609051E0,1.171884531E1
1.255890192E1,1.198720066E0,5.664511798E0,8.642784659E0,1.040294912E1
1.256889292E1,1.529268210E0,3.033498643E0,7.259767299E0,8.015297656E0
1.257888392E1,1.902921809E0,3.833668470E-1,5.787585747E0,6.104443491E0
1.258887492E1,2.291714433E0,-1.417642232E0,4.551535814E0,5.289436908E0
1.259886592E1,3.432714660E0,-3.204771191E0,2.947049899E0,5.544293592E0
1.260885592E1,5.690832455E0,-5.215642102E0,-6.599266988E-1,7.747515719E0
1.261884692E1,7.281907196E0,-5.348524756E0,-5.109068411E0,1.037956981E1
1.262883792E1,7.291524112E0,-2.720400710E0,-6.823539868E0,1.035024638E1
1.263882892E1,5.611702670E0,-1.485485137E-2,-6.267657355E0,8.412785284E0
1.264881992E1,3.012094910E0,1.012592740E0,-4.761129844E0,5.724195768E0
1.265881092E1,2.803678875E-1,9.268912697E-1,-2.239357295E0,2.439765291E0
1.266880192E1,-1.439211587E0,6.349544102E-1,3.620396396E-1,1.614177746E0
1.267879192E1,-1.962731224E0,4.930758154E-1,1.924086537E0,2.792408748E0
1.268878292E1,-1.724126964E0,5.862295622E-1,2.250169381E0,2.894743708E0
1.269877392E1,-1.460141696E0,7.660185796E-1,2.050027376E0,2.630857366E0
1.270876492E1,-1.386277621E0,1.039811529E0,1.393820237E0,2.223894897E0
1.271875592E1,-8.393062650E-1,1.526333200E0,5.353359818E-1,1.822282266E0
1.272874692E1,2.076743523E-1,1.798145698E0,-2.572153620E-1,1.828282344E0
1.273873792E1,1.285551438E0,1.666819573E0,-5.967580587E-1,2.187932853E0
1.274872892E1,2.141243794E0,1.160753583E0,-5.683604711E-1,2.501061273E0
1.275871892E1,2.590738118E0,6.131694388E-1,-5.400529307E-1,2.716534175E0
1.276870992E1,2.539861203E0,3.738247758E-1,-6.471834232E-1,2.647543441E0
1.277870092E1,2.231161838E0,3.917698807E-1,-7.742247082E-1,2.393948764E0
1.278869192E1,1.675927342E0,4.198891407E-1,-8.503477085E-1,1.925650688E0
1.279868292E1,9.246335135E-1,3.198567295E-1,-8.222092988E-1,1.277999841E0
1.280867392E1,1.651645098E-1,2.666318643E-1,-8.658073081E-1,9.208659844E-1
1.281866492E1,-3.636426172E-1,5.217552388E-1,-1.139268136E0,1.304759122E0
1.282865592E1,-6.823431695E-1,7.637790960E-1,-1.445676708E0,1.771703093E0
1.283864592E1,-7.297673044E-1,9.171802139E-1,-1.612717918E0,1.993649655E0
1.284863692E1,-5.475172304E-1,9.696882105E-1,-1.423961903E0,1.807688536E0
1.285862792E1,-1.118168074E-1,9.825099850E-1,-8.755647030E-1,1.320773417E0
1.286861892E1,4.314284746E-1,1.080950784E0,-1.636048016E-1,1.175309175E0
1.287860992E1,9.736510147E-1,1.112822202E0,4.645880346E-1,1.549906963E0
1.288860092E1,1.394343124E0,9.548047078E-1,9.052103788E-1,1.917094314E0
1.289859192E1,1.554195768E0,5.353663874E-1,9.414204311E-1,1.894310978E0
1.290858292E1,1.425658034E0,3.411441028E-2,5.862476885E-1,1.541866069E0
1.291857292E1,9.633260013E-1,-4.144219941E-1,-1.112692979E-1,1.054572629E0
1.292856392E1,4.176221752E-1,-7.444394302E-1,-9.821261153E-1,1.301218680E0
1.293855492E1,1.103033744E-1,-1.142828359E0,-1.965617848E0,2.276373655E0
1.294854592E1,2.616708307E-1,-1.811373269E0,-2.779633297E0,3.328048378E0
1.295853692E1,9.416220870E-1,-2.662049591E0,-2.946132178E0,4.080790976E0
1.296852792E1,1.904321486E0,-3.202949198E0,-2.322528383E0,4.390838414E0
1.297851892E1,2.851046219E0,-3.353931908E0,-1.525308476E0,4.658743364E0
1.298850892E1,3.718412833E0,-3.094854062E0,-1.259211924E0,4.999032940E0
1.299849992E1,4.588580264E0,-2.342686951E0,-1.456281218E0,5.353877658E0
1.300849092E1,5.257139207E0,-1.967471123E0,-1.855358364E0,5.911921001E0
1.301848192E1,5.419684201E0,-2.199982145E0,-2.441100853E0,6.338128403E0
1.302847292E1,5.169698190E0,-2.404609550E0,-3.124803793E0,6.501717097E0
1.303846392E1,5.053919812E0,-3.467802925E0,-3.809369196E0,7.216582035E0
1.304845492E1,5.225947820E0,-4.989193473E0,-4.084480108E0,8.299732519E0
1.305844592E1,5.325415390E0,-4.736870331E0,-3.855140323E0,8.103091788E0
1.306843592E1,5.425669996E0,-3.795264543E0,-3.541946496E0,7.509148609E0
1.307842692E1,5.123627978E0,-3.102527947E0,-3.218212478E0,6.799568727E0
1.308841792E1,4.476254666E0,-2.968176473E0,-3.260862361E0,6.283323225E0
1.309840892E1,3.891700916E0,-2.604907091E0,-3.654016570E0,5.939925426E0
1.310839992E1,3.036493002E0,-1.989185928E0,-3.845724552E0,5.288359645E0
1.311839092E1,2.445542544E0,-1.604347921E0,-3.521291499E0,4.577565336E0
1.312838192E1,2.133326664E0,-1.150722100E0,-2.536618629E0,3.508515081E0
1.313837292E1,1.489977552E0,-2.949230325E-1,-8.591705722E-1,1.745046353E0
1.314836292E1,5.698057567E-1,4.616809452E-1,1.155768759E0,1.368805800E0
1.315835392E1,-3.284134718E-1,6.943545198E-1,3.343503399E0,3.430597410E0
1.316834492E1,-2.637909946E-1,4.402918303E-1,5.668683202E0,5.691872436E0
1.317833592E1,4.868645375E-1,-1.000926375E-1,6.916700047E0,6.934536405E0
1.318832692E1,1.069416713E0,-5.573489946E-1,6.646160488E0,6.754682764E0
1.319831792E1,8.839466867E-1,-1.062603391E0,6.260072347E0,6.410849671E0
1.320830892E1,5.020435439E-1,-1.545065340E0,5.925155529E0,6.143837780E0
1.321829992E1,4.058885676E-1,-2.271752624E0,5.125222514E0,5.620810558E0
1.322828992E1,7.929979250E-1,-3.143349114E0,2.355391781E0,4.007163561E0
1.323828092E1,1.497538002E0,-4.061111711E0,-1.247184201E0,4.504521820E0
1.324827192E1,2.101769972E0,-4.404302924E0,-1.295754683E0,5.049188198E0
1.325826292E1,2.881461681E0,-3.976010165E0,6.335705204E-1,4.951049369E0
1.326825392E1,3.805370286E0,-2.950479875E0,2.570144809E0,5.458188238E0
1.327824492E1,4.316231577E0,-1.850642000E0,3.945412855E0,6.133597104E0
1.328823592E1,4.221746419E0,-1.005858502E0,4.690878471E0,6.390558269E0
1.329822692E1,3.652257143E0,-4.687373650E-1,4.903185024E0,6.131877391E0
1.330821692E1,2.837688547E0,-1.774857992E-1,4.622735897E0,5.427123057E0
1.331820792E1,2.141260605E0,1.448355317E-2,4.283967810E0,4.789320093E0
1.332819892E1,1.897100175E0,1.773121369E-1,4.160713474E0,4.576239207E0
1.333818992E1,2.014533607E0,4.430242342E-1,4.250050744E0,4.724145155E0
1.334818092E1,1.827794151E0,7.351236463E-1,4.397516353E0,4.818650050E0
1.335817192E1,1.864003034E0,8.980007619E-1,4.695235816E0,5.130901680E0
1.336816292E1,1.840215537E0,1.052732706E0,4.742985056E0,5.195242691E0
1.337815271E1,1.457662330E0,1.350198108E0,4.717328644E0,5.118691623E0
1.338814371E1,5.972199887E-1,1.634886174E0,4.652650252E0,4.967562671E0
1.339813471E1,-5.939874286E-1,1.966715662E0,4.661768693E0,5.094396815E0
1.340812571E1,-1.788078547E0,2.412955281E0,4.694830312E0,5.573240505E0
1.341811671E1,-2.810722066E0,2.994568466E0,4.671565703E0,6.220219043E0
1.342810771E1,-3.660095043E0,3.578549189E0,4.571275137E0,6.862861386E0
1.343809871E1,-4.293944330E0,3.927829108E0,4.469139482E0,7.337506873E0
1.344808971E1,-4.724706368E0,3.933568150E0,4.419958551E0,7.571779332E0
1.345807971E1,-5.020325804E0,3.469129658E0,4.219168382E0,7.418888973E0
1.346807071E1,-5.171669286E0,2.712936155E0,3.879650390E0,7.011267570E0
1.347806171E1,-5.190272788E0,1.979447390E0,3.497063561E0,6.564038173E0
1.348805271E1,-5.011134565E0,1.520557321E0,3.097968873E0,6.084486448E0
1.349804371E1,-4.613533257E0,1.396981680E0,2.806921960E0,5.578087290E0
1.350803471E1,-4.132731916E0,1.501373191E0,2.600195990E0,5.108288729E0
1.351802571E1,-3.661729925E0,1.700324703E0,2.480135111E0,4.738189560E0
1.352801671E1,-3.316921957E0,1.770912876E0,2.168721761E0,4.340674804E0
1.353800671E1,-3.252257014E0,1.313664120E0,1.608564641E0,3.858804129E0
1.354799771E1,-2.579081986E0,8.241434115E-1,4.246537444E-1,2.740658143E0
1.355798871E1,-1.177916623E0,5.743743324E-1,-1.570404542E0,2.045376217E0
1.356797971E1,3.979902948E-1,6.157001138E-2,-3.669343584E0,3.691377721E0
1.357797071E1,2.268555220E0,-9.776679057E-1,-5.000286226E0,5.577189226E0
1.358796171E1,5.009972139E0,-2.241013811E0,-6.217393520E0,8.293247007E0
1.359795271E1,8.609483596E0,-3.596880795E0,-7.740956894E0,1.212366169E1
1.360794371E1,1.140841592E1,-4.780303448E0,-7.865004405E0,1.465815640E1
1.361793371E1,1.080060136E1,-5.432728754E0,-6.376467022E0,1.366846236E1
1.362792471E1,8.045435447E0,-5.195196728E0,-5.829368781E0,1.121162972E1
1.363791571E1,5.186314223E0,-3.652328771E0,-7.661936452E0,9.946991046E0
1.364790671E1,2.186215022E0,-1.855489342E0,-8.152039543E0,8.641650626E0
1.365789771E1,-1.256842925E0,-3.730333552E0,-4.288249726E0,5.821007495E0
1.366788871E1,-2.934457627E0,-7.097758495E0,6.068684793E-1,7.704382296E0
1.367787971E1,-2.183689317E0,-6.075661690E0,4.914092420E0,8.113597742E0
1.368786971E1,-2.523189621E0,-4.372992838E0,7.230330076E0,8.818572744E0
1.369786071E1,-3.562919582E0,-3.870362672E0,7.840465980E0,9.441769428E0
1.370785171E1,-4.253805533E0,-3.950187691E0,6.734637047E0,8.891241784E0
1.371784271E1,-4.692908332E0,-2.640274560E0,3.793334377E-1,5.397993351E0
1.372783371E1,-4.399126384E0,1.762067792E0,-6.734503731E0,8.234727460E0
1.373782471E1,-3.506521432E0,6.496171805E0,1.391637325E-4,7.382136594E0
1.374781571E1,-4.867456198E0,7.071190501E0,7.029906235E0,1.109564990E1
1.375780671E1,-6.012319973E0,6.394697471E0,9.112395598E0,1.265211052E1
1.376779671E1,-4.923969537E0,6.050209930E0,9.115681733E0,1.199775686E1
1.377778771E1,-2.961512402E0,5.611205072E0,7.950084901E0,1.017153027E1
1.378777871E1,-2.010783788E0,3.593047945E0,6.634642643E0,7.808439535E0
1.379776971E1,-1.519980054E0,9.102758217E-1,5.900529395E0,6.160778245E0
1.380776071E1,-8.605831864E-1,-9.520705497E-1,5.138633687E0,5.296470327E0
1.381775171E1,3.602001786E-2,-2.104747959E0,4.023067971E0,4.540521701E0
1.382774271E1,1.677130699E0,-2.877219526E0,2.159803587E0,3.969371627E0
1.383773371E1,4.564270465E0,-3.660840563E0,-1.510648629E0,6.042878270E0
1.384772371E1,6.764394697E0,-3.224332466E0,-4.452146012E0,8.716361602E0
1.385771471E1,6.883467396E0,-1.501038145E0,-4.645882977E0,8.439162728E0
1.386770571E1,5.095601689E0,-1.047043365E-1,-3.572204375E0,6.223886540E0
1.387769671E1,2.615834076E0,4.698997915E-1,-1.793713654E0,3.206369037E0
1.388768771E1,3.817457430E-1,7.392131889E-1,9.087406352E-2,8.369134043E-1
1.389767871E1,-1.167900489E0,8.033419418E-1,1.371749629E0,1.972573667E0
1.390766971E1,-1.879635419E0,8.722367603E-1,1.819716807E0,2.757751898E0
1.391766071E1,-2.144004557E0,8.837347251E-1,1.588732493E0,2.811016460E0
1.392765071E1,-2.185947950E0,9.028176981E-1,9.976022333E-1,2.566838221E0
1.393764171E1,-1.786979416E0,9.438429326E-1,-1.024467997E-1,2.023519276E0
1.394763271E1,-9.212881753E-1,9.953335136E-1,-9.579547490E-1,1.660463190E0
1.395762371E1,7.893266045E-2,1.133436561E0,-1.119599272E0,1.595121103E0
1.396761471E1,1.009565052E0,1.196875927E0,-9.301266803E-1,1.821227394E0
1.397760571E1,1.773974478E0,1.022902551E0,-7.063822424E-1,2.166169649E0
1.398759671E1,2.206106372E0,7.717073357E-1,-7.015734923E-1,2.440213700E0
1.399758771E1,2.210457724E0,5.206255567E-1,-8.790465738E-1,2.435138025E0
1.400757771E1,1.824056464E0,2.963117462E-1,-9.751331377E-1,2.089465786E0
1.401756871E1,1.176606408E0,2.098811281E-1,-1.007393981E0,1.563104398E0
1.402755971E1,5.324841486E-1,3.790381533E-1,-9.754455252E-1,1.174181955E0
1.403755071E1,4.243890848E-2,6.389884043E-1,-9.638924503E-1,1.157236319E0
1.404754171E1,-2.733693185E-1,7.971304446E-1,-1.031296375E0,1.331810776E0
1.405753271E1,-4.074005479E-1,8.411716729E-1,-9.705074054E-1,1.347378794E0
1.406752371E1,-4.643039696E-1,8.976955372E-1,-6.359583771E-1,1.194101550E0
1.407751471E1,-3.812108690E-1,9.845951021E-1,-2.361621697E-1,1.081906563E0
1.408750471E1,-1.937720124E-1,1.056555616E0,5.812468573E-2,1.075748967E0
1.409749571E1,6.482066128E-2,9.901341695E-1,1.724870145E-1,1.007134133E0
1.410748671E1,3.657865354E-1,8.706691217E-1,1.871518314E-2,9.445712081E-1
1.411747771E1,5.411516956E-1,7.247612107E-1,-2.293617117E-1,9.331295542E-1
1.412746871E1,5.093123639E-1,3.901139492E-1,-5.001307735E-1,8.134609812E-1
1.413745971E1,3.949109318E-1,-1.434713763E-1,-7.943781602E-1,8.986519578E-1
1.414745071E1,2.928690518E-1,-7.269813985E-1,-1.172270844E0,1.410139414E0
1.415744071E1,3.546698090E-1,-1.320090795E0,-1.665261582E0,2.154420228E0
1.416743171E1,6.536092208E-1,-1.862051672E0,-2.150119429E0,2.918467920E0
1.417742271E1,1.112803784E0,-2.319344282E0,-2.516461815E0,3.598648388E0
1.418741371E1,1.719534707E0,-2.593241896E0,-2.668218988E0,4.098913967E0
1.419740471E1,2.502209519E0,-2.609556212E0,-2.654846991E0,4.485426250E0
1.420739571E1,3.374573749E0,-2.385521314E0,-2.402968236E0,4.780451471E0
1.421738671E1,4.079295674E0,-2.260432999E0,-2.151791732E0,5.136187127E0
1.422737771E1,4.466032856E0,-2.240882834E0,-2.130487694E0,5.431941013E0
1.423736771E1,4.621327010E0,-2.239912781E0,-2.185036954E0,5.581062541E0
1.424735871E1,4.660117439E0,-2.203483458E0,-2.259678124E0,5.628337154E0
1.425734971E1,4.867272010E0,-3.237596875E0,-2.191601038E0,6.243034956E0
1.426734071E1,5.190265186E0,-5.109801652E0,-2.263040857E0,7.626944313E0
1.427733171E1,5.352699083E0,-5.339097875E0,-2.960169296E0,8.119110533E0
1.428732271E1,5.297333552E0,-4.360500262E0,-3.910136603E0,7.897143379E0
1.429731371E1,4.809395978E0,-3.407108241E0,-4.380824891E0,7.343725414E0
1.430730471E1,3.998289518E0,-3.081069835E0,-4.451028316E0,6.729856126E0
1.431729471E1,3.201328058E0,-3.111487051E0,-4.423321285E0,6.284554415E0
1.432728571E1,1.919855053E0,-2.704827236E0,-3.943221318E0,5.152759277E0
1.433727671E1,3.964359953E-1,-2.189693384E0,-3.475884361E0,4.127189202E0
1.434726771E1,-9.014153896E-1,-1.961584146E0,-3.088910952E0,3.768518666E0
1.435725871E1,-2.160275750E0,-1.466217391E0,-2.579398028E0,3.670133369E0
1.436724971E1,-3.199569800E0,-6.377540570E-1,-8.774131541E-1,3.378436175E0
1.437724021E1,-3.675163903E0,-3.940964878E-2,1.540158942E0,3.985031041E0
1.438723021E1,-3.513447167E0,2.537767607E-1,3.927182406E0,5.275554500E0
1.439722121E1,-2.562724108E0,4.117667735E-1,5.479866668E0,6.063501087E0
1.440721221E1,-1.370110947E0,3.225879639E-1,5.786839643E0,5.955567148E0
1.441720321E1,-5.221352347E-1,-1.098633349E-1,5.519808998E0,5.545537533E0
1.442719421E1,-2.974602490E-1,-7.429513139E-1,5.052311243E0,5.115301374E0
1.443718521E1,4.154856392E-1,-1.233177781E0,6.464917853E0,6.594582519E0
1.444717621E1,3.969650952E-1,-1.825230001E0,6.490934454E0,6.754352369E0
1.445716721E1,9.812753454E-1,-3.197821775E0,-1.628609773E0,3.720394495E0
1.446715721E1,1.177539551E0,-5.035143233E0,-6.713132157E0,8.473807298E0
1.447714821E1,1.311645076E0,-4.897037262E0,-2.092706641E0,5.484597327E0
1.448713921E1,1.799220270E0,-4.123659377E0,9.966522069E-1,4.608153193E0
1.449713021E1,2.022468133E0,-2.953694090E0,2.929904108E0,4.625907933E0
1.450712121E1,1.765529783E0,-1.921909618E0,4.485732711E0,5.189665687E0
1.451711221E1,1.446794111E0,-1.018673844E0,5.446611214E0,5.726821397E0
1.452710321E1,1.214374963E0,-3.392408341E-1,5.522021000E0,5.664142196E0
1.453709421E1,9.804782237E-1,2.102845860E-1,4.761063770E0,4.865520052E0
1.454708421E1,6.346646807E-1,6.575848889E-1,3.884179058E0,3.990246120E0
1.455707521E1,3.530016714E-1,9.948464406E-1,3.560128413E0,3.713333265E0
1.456706621E1,1.993527777E-1,1.156523708E0,3.763547491E0,3.942280854E0
1.457705721E1,5.564502776E-2,1.257026235E0,4.113034401E0,4.301193242E0
1.458704821E1,-1.474751110E-1,1.430674506E0,4.440083498E0,4.667217578E0
1.459703921E1,-5.156558619E-1,1.724008850E0,4.773984655E0,5.101866028E0
1.460703021E1,-1.006171620E0,2.118775429E0,5.011553811E0,5.533286749E0
1.461702121E1,-1.825573232E0,2.580410181E0,5.097930050E0,5.998343532E0
1.462701121E1,-2.707153258E0,3.076702550E0,5.054870569E0,6.507418368E0
1.463700221E1,-3.445558362E0,3.585761145E0,4.776495157E0,6.895249190E0
1.464699321E1,-4.173892221E0,4.014431634E0,4.266018905E0,7.192771018E0
1.465698421E1,-4.780866535E0,4.309289762E0,3.642314830E0,7.395479728E0
1.466697521E1,-5.036748294E0,4.330594093E0,3.136925363E0,7.345963470E0
1.467696621E1,-4.987538127E0,4.008173359E0,2.795413763E0,6.982501582E0
1.468695721E1,-4.689644709E0,3.517029464E0,2.507036396E0,6.375538819E0
1.469694721E1,-4.198571565E0,3.103195699E0,2.261469418E0,5.689645917E0
1.470693821E1,-3.726767335E0,2.804468468E0,1.965932428E0,5.061494687E0
1.471692921E1,-3.433624195E0,2.494998148E0,1.782357923E0,4.603432484E0
1.472692021E1,-3.294820066E0,2.075489076E0,1.781756537E0,4.282306683E0
1.473691121E1,-3.207785431E0,1.556715333E0,1.848504550E0,4.016244398E0
1.474690221E1,-3.047720826E0,9.236975205E-1,1.793167671E0,3.654759860E0
1.475689321E1,-2.470891832E0,4.195733911E-1,1.510310368E0,2.926155444E0
1.476688421E1,-1.431964402E0,2.693186599E-1,8.259238887E-1,1.674874580E0
1.477687421E1,-2.926448111E-1,1.404647380E-1,-4.822058415E-1,5.812863337E-1
1.478686521E1,7.095081639E-1,-3.366201121E-1,-1.959270988E0,2.110795522E0
1.479685621E1,2.074219353E0,-1.276733106E0,-3.052835678E0,3.905411505E0
1.480684721E1,3.791082614E0,-2.923851655E0,-4.000493918E0,6.239003725E0
1.481683821E1,5.627167386E0,-4.818657090E0,-5.431176319E0,9.185975460E0
1.482682921E1,6.780551139E0,-6.104508344E0,-7.401117890E0,1.174808248E1
1.483682021E1,6.412976452E0,-6.221053877E0,-8.901001210E0,1.261172474E1
1.484681121E1,5.305235479E0,-5.008871108E0,-8.752925152E0,1.139508719E1
1.485680121E1,3.975044497E0,-3.037447268E0,-8.221288118E0,9.623754100E0
1.486679221E1,1.995373890E0,-1.293857262E0,-6.880181261E0,7.279593241E0
1.487678321E1,-9.576194112E-1,-9.951095653E-1,-4.071627928E0,4.299468801E0
1.488677421E1,-3.749717072E0,-3.280841128E0,-1.911578612E0,5.336518473E0
1.489676521E1,-4.339044489E0,-4.767695682E0,6.896732390E-1,6.483353944E0
1.490675621E1,-4.482168833E0,-4.451274192E0,3.009727957E0,6.997295317E0
1.491674721E1,-4.556182596E0,-3.832020725E0,4.928176024E0,7.728525190E0
1.492673821E1,-4.700149232E0,-3.864868628E0,6.999206014E0,9.274561830E0
1.493672821E1,-4.507160710E0,-3.842681953E0,7.013792478E0,9.180086447E0
1.494671921E1,-3.493034245E0,-2.523921985E0,2.529058764E0,4.996759815E0
1.495671021E1,-2.647792617E0,-2.240401608E-1,-4.028239249E0,4.825734264E0
1.496670121E1,-2.356604640E0,2.200404899E0,-2.075200224E0,3.834295648E0
1.497669221E1,-3.576017929E0,2.867879768E0,2.645308428E0,5.292475345E0
1.498668321E1,-3.906318371E0,3.240883010E0,4.858955516E0,7.026527919E0
1.499667421E1,-2.727593955E0,4.311293603E0,6.169614751E0,8.005695941E0
1.500666421E1,-1.326632659E0,5.103531098E0,6.884912828E0,8.672255101E0
1.501665521E1,-4.791057940E-1,4.162532836E0,7.083441002E0,8.229906342E0
1.502664621E1,5.230188221E-2,1.381449721E0,7.161245223E0,7.293460905E0
1.503663721E1,7.352935079E-1,-4.060125285E-1,6.582322927E0,6.635697237E0
1.504662821E1,1.455170978E0,-9.352329075E-1,5.596876470E0,5.858089226E0
1.505661921E1,2.184280763E0,-1.068026099E0,4.219728545E0,4.870099711E0
1.506661021E1,2.694371245E0,-1.092274502E0,2.173418244E0,3.629937583E0
1.507660121E1,2.856482375E0,-8.974201334E-1,-8.447293382E-2,2.995328051E0
1.508659121E1,2.091552986E0,-4.401971054E-1,-1.379412552E0,2.543844801E0
1.509658221E1,5.514142169E-1,-5.716354966E-2,-1.818042603E0,1.900685197E0
1.510657321E1,-1.128120419E0,1.371066821E-1,-2.102198573E0,2.389705580E0
1.511656421E1,-2.513715962E0,1.421703708E-1,-2.171332104E0,3.324705018E0
1.512655521E1,-3.297884592E0,2.454462326E-1,-1.509831188E0,3.635364748E0
1.513654621E1,-3.452892525E0,4.574159861E-1,-1.723122559E-1,3.487318122E0
1.514653721E1,-3.231538575E0,6.536906433E-1,1.177459078E0,3.500937431E0
1.515652821E1,-2.852913235E0,8.523959881E-1,2.106741275E0,3.647471952E0
1.516651821E1,-2.212892212E0,9.100928038E-1,2.443114634E0,3.419644714E0
1.517650921E1,-1.106486744E0,7.911288625E-1,2.097692708E0,2.500102496E0
1.518650021E1,1.709261003E-1,6.873729444E-1,1.235046551E0,1.423740594E0
1.519649121E1,1.174111401E0,5.391115290E-1,3.182914299E-1,1.330596955E0
1.520648221E1,1.759468705E0,2.963135004E-1,-4.574292885E-1,1.841948253E0
1.521647321E1,2.017975863E0,4.866696060E-2,-1.136983044E0,2.316748907E0
1.522646421E1,2.050297225E0,-2.219129437E-1,-1.738735063E0,2.697436502E0
1.523645521E1,1.950955808E0,-3.448570848E-1,-2.270250620E0,3.013169901E0
1.524644521E1,1.805383235E0,-2.691461670E-1,-2.473066996E0,3.073745053E0
1.525643621E1,1.554295463E0,-1.905630970E-1,-2.302462054E0,2.784507172E0
1.526642721E1,1.070463949E0,-2.228262788E-1,-1.862719424E0,2.159923209E0
1.527641821E1,5.202583516E-1,-1.973341727E-1,-1.373063206E0,1.481523573E0
1.528640921E1,-1.123761758E-2,1.203707814E-2,-9.479646349E-1,9.481076544E-1
1.529640021E1,-3.568301359E-1,4.122497535E-1,-7.043251920E-1,8.907028580E-1
1.530639121E1,-4.545311160E-1,8.753083026E-1,-6.377366616E-1,1.174508923E0
1.531638121E1,-4.466202718E-1,1.141991038E0,-6.491960348E-1,1.387468446E0
1.532637221E1,-3.789511760E-1,1.046739310E0,-6.389061047E-1,1.283537373E0
1.533636321E1,-2.498548870E-1,7.279561293E-1,-6.621042019E-1,1.015248524E0
1.534635421E1,-2.205503963E-1,4.783425862E-1,-6.687364063E-1,8.512711014E-1
1.535634521E1,-2.661662798E-1,4.234144270E-1,-6.615533942E-1,8.293233138E-1
1.536633621E1,-4.573347098E-1,4.966706836E-1,-6.093495990E-1,9.094744299E-1
1.537632808E1,-6.659610254E-1,4.884489137E-1,-5.788258177E-1,1.008526527E0
1.538631908E1,-7.552893774E-1,2.164153916E-1,-6.091518170E-1,9.941647758E-1
1.539630908E1,-5.861110830E-1,-2.860457897E-2,-6.421327445E-1,8.698729132E-1
1.540630008E1,-2.519834927E-1,-1.186049223E-1,-6.539066979E-1,7.107438201E-1
1.541629108E1,1.637702778E-2,-2.129386371E-1,-5.666086453E-1,6.055216158E-1
1.542628208E1,2.007353519E-1,-4.022837591E-1,-4.410256559E-1,6.297861014E-1
1.543627308E1,4.224067325E-1,-5.544780117E-1,-3.216746289E-1,7.676899635E-1
1.544626408E1,6.940449098E-1,-6.521101409E-1,-3.165682554E-1,1.003574329E0
1.545625508E1,8.513474362E-1,-8.034764278E-1,-4.197482228E-1,1.243605805E0
1.546624608E1,7.295152163E-1,-1.020019873E0,-6.086644515E-1,1.393953158E0
1.547623608E1,3.464427765E-1,-1.154243293E0,-7.792242238E-1,1.435092530E0
1.548622708E1,-9.297884189E-2,-1.159269560E0,-9.004095224E-1,1.470812118E0
1.549621808E1,-4.184008051E-1,-1.140995842E0,-9.276300654E-1,1.528865031E0
1.550620908E1,-4.863489227E-1,-1.347439976E0,-1.017186313E0,1.756928501E0
1.551620008E1,-3.213379023E-1,-1.498422101E0,-1.212627157E0,1.954224005E0
1.552619108E1,1.880953893E-1,-1.437415177E0,-1.699209055E0,2.233574193E0
1.553618208E1,1.074286055E0,-1.452042571E0,-1.997672576E0,2.693179140E0
1.554617208E1,2.015034714E0,-2.785649205E0,-1.778101442E0,3.870639628E0
1.555616308E1,2.581008351E0,-3.808192737E0,-1.801497322E0,4.940579787E0
1.556615408E1,2.825837703E0,-2.640828876E0,-2.459938243E0,4.583735598E0
1.557614508E1,2.930797855E0,-1.087040074E0,-3.321763159E0,4.561287392E0
1.558613608E1,2.959124691E0,-1.254917729E0,-4.051346861E0,5.171522873E0
1.559612708E1,2.813393951E0,-2.674089008E0,-4.326192016E0,5.812217727E0
1.560611808E1,2.400066409E0,-3.762220173E0,-4.076901532E0,6.044480581E0
1.561610908E1,1.642801258E0,-3.857258477E0,-3.492604474E0,5.456695424E0
1.562609908E1,5.369661856E-1,-3.143195332E0,-2.858014346E0,4.282085424E0
1.563609008E1,-6.790429278E-1,-2.135926482E0,-2.469071009E0,3.334605356E0
1.564608108E1,-2.109758730E0,-1.283230532E0,-2.364267270E0,3.418701833E0
1.565607208E1,-3.745657350E0,-6.067544585E-1,-2.535815222E0,4.563820636E0
1.566606308E1,-5.017365358E0,-1.578046560E-2,-1.956540338E0,5.385374106E0
1.567605408E1,-5.323810329E0,3.145328397E-1,-1.988118372E-1,5.336798055E0
1.568604508E1,-4.932426365E0,5.737019026E-1,1.986012059E0,5.348103179E0
1.569603608E1,-4.329464411E0,6.099686730E-1,3.725768046E0,5.744359964E0
1.570602608E1,-3.311853298E0,2.902095920E-1,4.243171202E0,5.390463405E0
1.571601708E1,-2.193756030E0,-2.764756519E-1,4.095254188E0,4.654042454E0
1.572600808E1,-1.386548494E0,-8.823419183E-1,4.037378447E0,4.359067413E0
1.573599908E1,-1.142355977E0,-1.509256407E0,4.004326476E0,4.429160485E0
1.574599008E1,-9.139806906E-1,-2.044147416E0,3.732814525E0,4.352907493E0
1.575598108E1,-8.943553153E-1,-2.785426426E0,2.991792208E0,4.184410642E0
1.576597208E1,-1.198514902E0,-3.776311963E0,2.333786466E0,4.598209355E0
1.577596308E1,-1.271506426E0,-4.503997951E0,1.538277454E0,4.926360082E0
1.578595308E1,-1.303287651E0,-4.689659327E0,7.962371363E-1,4.932084435E0
1.579594408E1,-1.143751050E0,-3.755095341E0,9.383728623E-2,3.926539560E0
1.580593508E1,-9.328180075E-1,-2.142304040E0,-6.860757396E-2,2.337589150E0
1.581592608E1,-7.124852007E-1,-9.374794078E-1,2.363532275E-1,1.200985283E0
1.582591708E1,-6.897040100E-1,-1.476334244E-1,6.761612007E-1,9.770778980E-1
1.583590808E1,-9.261171714E-1,4.735841221E-1,1.495274545E0,1.821488650E0
1.584589908E1,-1.067019866E0,9.866679400E-1,2.663377494E0,3.034077239E0
1.585589008E1,-1.290729001E0,1.191818086E0,3.298070533E0,3.736800897E0
1.586588008E1,-1.604298220E0,1.167641603E0,3.234950717E0,3.795005380E0
1.587587108E1,-1.894028340E0,1.267738334E0,3.144246662E0,3.883399401E0
1.588586208E1,-2.144582700E0,1.465739089E0,3.207560020E0,4.127477113E0
1.589585308E1,-2.366727486E0,1.786205099E0,3.376302186E0,4.493477951E0
1.590584408E1,-2.498670200E0,2.059126813E0,3.484668049E0,4.756707623E0
1.591583508E1,-2.552614272E0,2.231569389E0,3.472349427E0,4.853138377E0
1.592582608E1,-2.520402838E0,2.323645493E0,3.385710063E0,4.818173044E0
1.593581608E1,-2.448415428E0,2.280308270E0,3.102415681E0,4.562841984E0
1.594580708E1,-2.347783823E0,2.161272408E0,2.870978208E0,4.292517113E0
1.595579808E1,-2.192882894E0,2.072749071E0,2.903381138E0,4.187439090E0
1.596578908E1,-1.916276118E0,2.094795998E0,3.012101050E0,4.139207312E0
1.597578008E1,-1.680614617E0,2.238291348E0,3.096783058E0,4.174263882E0
1.598577108E1,-1.544674746E0,2.343113798E0,2.865640284E0,4.010996956E0
1.599576208E1,-1.403700716E0,2.384279366E0,2.522488832E0,3.744077150E0
1.600575308E1,-1.240052937E0,2.338926022E0,2.277301632E0,3.492049390E0
1.601574308E1,-1.037387346E0,2.245081134E0,2.066891915E0,3.223135740E0
1.602573408E1,-9.072767117E-1,2.123791171E0,1.891021702E0,2.984895818E0
1.603572508E1,-7.707251497E-1,2.019680911E0,1.683395845E0,2.739881350E0
1.604571608E1,-6.008539601E-1,2.015969099E0,1.503619691E0,2.585735691E0
1.605570708E1,-4.680045627E-1,1.990257137E0,1.313263586E0,2.429982096E0
1.606569808E1,-3.110370087E-1,1.952009330E0,1.099182695E0,2.261700034E0
1.607568908E1,-9.685576513E-2,1.828226114E0,8.345043853E-1,2.012011265E0
1.608568008E1,1.474098415E-1,1.601186916E0,4.137978038E-1,1.660348706E0
1.609567008E1,4.822580279E-1,1.398316600E0,-9.527131587E-2,1.482207388E0
1.610566108E1,8.951796265E-1,1.320698905E0,-5.100175381E-1,1.675025388E0
1.611565208E1,1.372924627E0,1.267595077E0,-8.257247910E-1,2.042924556E0
1.612564308E1,1.813568460E0,1.070111216E0,-1.341246898E0,2.496620078E0
1.613563408E1,2.169924387E0,6.453203541E-1,-1.873149979E0,2.938316023E0
1.614562508E1,2.493636332E0,-9.344435334E-3,-2.074264962E0,3.243591313E0
1.615561608E1,2.722163061E0,-9.716528749E-1,-1.984642349E0,3.506149782E0
1.616560708E1,2.936113266E0,-1.923488367E0,-2.282312111E0,4.186826624E0
1.617559708E1,2.959345131E0,-2.674648002E0,-3.123450454E0,5.066301243E0
1.618558808E1,2.536889063E0,-3.087275485E0,-4.446699915E0,5.978312151E0
1.619557908E1,1.762945459E0,-3.046816261E0,-5.910445104E0,6.879275205E0
1.620557008E1,8.518673998E-1,-2.612975079E0,-6.593340250E0,7.143210237E0
1.621556108E1,-6.574068412E-2,-2.008025072E0,-6.643356748E0,6.940509737E0
1.622555208E1,-1.037724511E0,-1.421657515E0,-6.203198819E0,6.448073964E0
1.623554308E1,-1.974545669E0,-8.565106738E-1,-5.466792879E0,5.875224720E0
1.624553308E1,-2.807320156E0,-3.035663867E-1,-4.380399506E0,5.211631111E0
1.625552408E1,-3.587032329E0,2.352978051E-2,-2.647192401E0,4.458136627E0
1.626551508E1,-4.323738232E0,-1.321219307E-1,-1.001398100E0,4.440153900E0
1.627550608E1,-4.889463071E0,-8.393140125E-1,-3.643446851E-1,4.974338567E0
1.628549708E1,-5.143244217E0,-1.494098085E0,-1.960616724E-1,5.359452429E0
1.629548808E1,-5.089249858E0,-1.703958748E0,-2.053400342E-1,5.370856921E0
1.630547908E1,-4.516454859E0,-1.833274600E0,-2.418921487E-1,4.880345486E0
1.631547008E1,-3.424002894E0,-2.296893312E0,4.680906630E-1,4.149532934E0
1.632546008E1,-2.058264495E0,-2.949839020E0,1.669212985E0,3.965384592E0
1.633545108E1,-8.430237785E-1,-3.431245548E0,2.100007621E0,4.110251465E0
1.634544208E1,-2.859355697E-1,-3.801883006E0,-1.397367597E-2,3.812645906E0
1.635543308E1,1.830821693E-2,-3.670365093E0,-3.641993233E0,5.170689491E0
1.636542408E1,4.334723689E-1,-2.192819306E0,-4.286368092E0,4.834181029E0
1.637541454E1,4.126359621E-1,-1.057995200E-2,-2.486846545E0,2.520870110E0
1.638540554E1,-2.359790057E-1,2.055990951E0,-5.959610832E-1,2.153591070E0
1.639539654E1,-1.051978123E0,3.719108652E0,1.788083224E0,4.258599389E0
1.640538654E1,-1.881253782E0,4.600829011E0,4.289826136E0,6.565771216E0
1.641537754E1,-2.554835629E0,4.479695168E0,6.198264939E0,8.063085150E0
1.642536854E1,-2.956834044E0,3.570822093E0,7.383695526E0,8.718520380E0
1.643535954E1,-2.964919574E0,2.313782410E0,7.932738551E0,8.779104626E0
1.644535054E1,-2.739650036E0,1.205197685E0,7.454077291E0,8.032524637E0
1.645534154E1,-2.069482378E0,1.025964153E-1,6.416560210E0,6.742813082E0
1.646533254E1,-6.885723545E-1,-5.763998079E-1,5.343030127E0,5.417964522E0
1.647532354E1,8.331069008E-1,-7.187046647E-1,4.363080053E0,4.499674550E0
1.648531354E1,2.027675663E0,-8.456541485E-1,3.268225760E0,3.938007002E0
1.649530454E1,2.493455068E0,-1.028306547E0,1.936357504E0,3.320273018E0
1.650529554E1,2.250592281E0,-1.196652564E0,6.330464637E-1,2.626383597E0
1.651528654E1,1.403079449E0,-1.326972967E0,-5.510421878E-1,2.008267086E0
1.652527754E1,4.412572056E-2,-1.423658432E0,-1.683807927E0,2.205438629E0
