"Time (s)","Linear Acceleration x (m/s^2)","Linear Acceleration y (m/s^2)","Linear Acceleration z (m/s^2)","Absolute acceleration (m/s^2)"
4.308875003E-3,1.768499145E-1,-4.846758516E-1,-2.022072423E0,2.086854920E0
1.429987500E-2,-5.369816076E-1,-4.359328772E-1,-2.041265323E0,2.155261200E0
2.429187500E-2,-1.395673074E0,-4.110009344E-1,-1.661803247E0,2.208713455E0
3.428287500E-2,-2.266398767E0,-4.133203787E-1,-9.747752881E-1,2.501516334E0
4.427487500E-2,-2.519880097E0,-5.238779242E-1,3.934883773E-2,2.574061405E0
5.426587500E-2,-2.084788196E0,-7.533605272E-1,1.173578866E0,2.508222729E0
6.425787500E-2,-2.033615119E0,-8.466377963E-1,2.140671498E0,3.071621798E0
7.424887500E-2,-1.892256487E0,-8.084021223E-1,2.795473112E0,3.471140810E0
8.424087500E-2,-1.544260764E0,-7.413620406E-1,2.944699903E0,3.406701704E0
9.423187500E-2,-1.188063296E0,-6.160831064E-1,2.680952470E0,2.996424358E0
1.042238750E-1,-9.607388277E-1,-3.750430432E-1,2.323067204E0,2.541715486E0
1.142148750E-1,-6.954093575E-1,-1.437478034E-1,2.172713070E0,2.285812698E0
1.242068750E-1,-4.531640005E-1,-3.147410005E-2,1.641578897E0,1.703270239E0
1.341978750E-1,1.458207437E0,6.273309566E-1,3.583390099E-1,1.627365940E0
1.441898750E-1,3.254015272E0,1.764544527E0,-1.104001678E0,3.862777819E0
1.541808750E-1,3.121567359E0,2.149446999E0,-2.137387701E0,4.351175860E0
1.641728750E-1,2.370413425E0,1.574091211E0,-2.625476426E0,3.871659775E0
1.741638750E-1,1.346614788E0,1.161554798E0,-1.365673349E0,2.242240984E0
1.841558750E-1,7.407449401E-1,7.041265328E-1,5.353687263E-1,1.153740401E0
1.941468750E-1,3.271712308E-1,-6.277190655E-2,7.942483521E-1,8.612849536E-1
2.041388750E-1,2.884201247E-1,-5.908133407E-1,1.349157304E0,1.500823774E0
2.141298750E-1,-7.173867023E-1,-3.630936733E-1,1.988683652E0,2.145074209E0
2.241218750E-1,-1.260367042E0,-2.868405725E-1,2.284523528E0,2.624852442E0
2.341128750E-1,-1.643346657E0,-6.261254069E-1,2.004298056E0,2.666426815E0
2.441048750E-1,-1.634353200E0,-7.491749440E-1,1.354740810E0,2.251154402E0
2.540968750E-1,-1.376483681E0,-5.257519569E-1,3.375919193E-1,1.511651662E0
2.640886250E-1,-1.249495460E0,-1.075310268E-1,2.162195098E-1,1.272616479E0
2.740806250E-1,-1.194172760E0,4.860731900E-2,4.599536777E-1,1.280612602E0
2.840716250E-1,-1.492970742E0,-6.141432926E-2,8.623578894E-1,1.725223025E0
2.940636250E-1,-2.268022100E0,-2.739502394E-1,2.378251471E0,3.297734531E0
3.040546250E-1,-3.398599665E0,-7.614795323E-1,4.317258933E0,5.546986160E0
3.140466250E-1,-4.998101707E0,-1.532723622E0,4.682409949E0,7.018206701E0
3.240376250E-1,-7.509979012E0,-3.227682921E0,6.016114815E0,1.014945118E1
3.340296250E-1,-1.206835958E1,-3.285093808E0,5.721837900E0,1.375414749E1
3.440206250E-1,-5.540270745E0,-2.313965574E0,-1.579296110E0,6.208318033E0
3.540126250E-1,-3.210415508E0,-2.214554868E0,-2.120957610E0,4.439536258E0
3.640036250E-1,-2.431502941E0,7.647908105E-1,-4.798012326E0,5.433050139E0
3.739956250E-1,1.875610195E0,4.543309658E0,-7.063817747E0,8.605643347E0
3.839866250E-1,8.365079337E0,6.445859438E0,-4.473141024E0,1.146876832E1
3.939786250E-1,9.190083459E0,5.065262825E0,-2.814083045E0,1.086432625E1
4.039696250E-1,7.413191805E0,9.317554222E-1,-8.245735912E0,1.112725221E1
4.139616250E-1,7.436298248E0,-1.167980303E0,-7.857174398E0,1.088107987E1
4.239526250E-1,6.244888882E0,-2.769690984E0,-5.894189259E0,9.022820641E0
4.339446250E-1,3.955959770E0,-2.998383189E0,-3.871680050E0,6.295222463E0
4.439356250E-1,1.132267995E0,-1.812619749E0,-1.302631009E0,2.502892070E0
4.539276250E-1,-1.483183672E0,-1.177675718E0,3.158430253E0,3.682721217E0
4.639186250E-1,-1.749705024E0,-7.459809025E-1,2.622281508E0,3.239493091E0
4.739106250E-1,-9.192717630E-1,8.018105561E-1,2.138843073E0,2.462236876E0
4.839016250E-1,-6.903491771E-1,5.011878039E-1,1.086621414E0,1.381490969E0
4.938936250E-1,-9.870275438E-2,1.869477928E0,6.010130775E-1,1.966190905E0
5.038846250E-1,-3.564304787E-1,2.550418058E0,-4.406315535E-1,2.612629159E0
5.138766250E-1,-4.210375339E-1,9.998618898E-1,-1.115930582E0,1.556373178E0
5.238676250E-1,-1.158379029E0,1.584688997E-1,-5.817997116E-1,1.305926978E0
5.338596250E-1,-1.618825042E0,-1.013440002E0,6.449034476E-1,2.015826285E0
5.438506250E-1,-1.646758361E0,-1.646683078E0,9.384693414E-1,2.510797276E0
5.538426250E-1,-1.371516472E0,-9.233529733E-1,-2.141081972E0,2.705156217E0
5.638346250E-1,-5.027260602E-2,-5.545426235E-1,-2.853982691E0,2.907793331E0
5.738256250E-1,-4.838927633E-1,-6.498974083E-1,-2.714624830E0,2.832967846E0
5.838176250E-1,-3.893853861E-1,-9.668678060E-1,-1.796132501E0,2.076667112E0
5.938086250E-1,-5.093462777E-1,-3.966692626E-1,-5.062665492E-1,8.204181577E-1
6.038006250E-1,-6.517113608E-1,2.740430640E-1,-6.031549126E-1,9.293132665E-1
6.137916250E-1,-1.587940049E0,1.143111584E0,-1.870823080E0,2.707071608E0
6.237836250E-1,-1.929405749E0,1.448217030E0,-2.416617976E0,3.414671515E0
6.337746250E-1,-1.066407005E0,5.311192623E-1,6.073707551E-2,1.192895872E0
6.437666250E-1,-6.942802602E-1,2.540253405E-1,1.905281307E0,2.043685595E0
6.537576250E-1,-7.319988942E-1,5.121912405E-2,1.844562065E0,1.985158682E0
6.637496250E-1,9.322935122E-1,-3.310457421E-1,2.974813648E0,3.135008567E0
6.737406250E-1,8.591512764E-1,2.656099172E-1,1.135929229E0,1.448801145E0
6.837326250E-1,1.121294233E0,8.328635104E-1,3.146147007E-1,1.431762828E0
6.937236250E-1,1.294351351E-1,7.155350353E-1,-3.906247035E-1,8.254280707E-1
7.037156250E-1,-1.013041221E0,6.586259857E-1,-1.401834577E0,1.850724422E0
7.137066250E-1,-8.883037394E-1,1.960197552E-1,-2.734217096E0,2.881570823E0
7.236986250E-1,-9.045245004E-1,-2.927379280E-2,-3.941411605E0,4.043976628E0
7.336896250E-1,-1.472786738E0,-1.769806363E-1,-3.961550000E0,4.230165638E0
7.436816250E-1,-3.610952704E0,-6.086981096E-1,-2.449910853E0,4.405854742E0
7.536726250E-1,-2.467800409E0,-5.979078040E-1,4.142606109E-2,2.539537107E0
7.636646250E-1,-4.511735571E0,-2.918335977E0,3.919733053E0,6.651071338E0
7.736556250E-1,8.239410979E-1,-2.223560019E0,5.175074705E0,5.692494733E0
7.836476250E-1,2.838109254E0,-1.021039189E0,4.232316431E0,5.197103764E0
7.936386250E-1,2.585543452E0,6.826538759E-1,1.567919037E0,3.099906670E0
8.036306250E-1,1.072496880E0,8.339744814E-1,-7.567064501E-1,1.555110171E0
8.136216250E-1,2.840279156E-1,1.161415050E0,1.832803899E-1,1.209606744E0
8.236136250E-1,-3.787966633E-1,1.729280700E0,6.918782240E-1,1.900682543E0
8.336046250E-1,-1.066083069E0,1.143001875E0,2.084240019E-2,1.563144524E0
8.435966250E-1,-1.414059643E0,1.724366700E0,7.020705056E-1,2.337928182E0
8.535876250E-1,-3.086694272E0,1.392364280E0,-4.924377088E0,5.976273883E0
8.635796250E-1,-7.552087736E0,-1.152048102E0,-4.529083090E0,8.881094394E0
8.735706250E-1,-4.246779519E0,7.457436517E-1,-1.928791791E0,4.723505864E0
8.835626250E-1,7.158738522E0,2.108931934E0,2.550318071E0,7.886650328E0
8.935536250E-1,7.499406077E0,-2.173138162E-1,6.833404706E0,1.014809030E1
9.035456250E-1,5.788559309E0,-1.133673958E0,3.690003551E0,6.957640528E0
9.135366250E-1,1.777550050E0,-1.962252483E-1,2.949065872E-1,1.812500600E0
9.235286250E-1,-2.999586546E-1,-2.799804729E-1,-1.071774822E0,1.147634754E0
9.335196250E-1,-8.378954780E-1,-3.237544835E-1,-1.205370835E0,1.503264664E0
9.435116250E-1,-9.013944858E-1,1.365832686E0,-1.502097076E0,2.221329910E0
9.535036250E-1,-1.004960954E0,7.381820324E-1,-2.184835371E0,2.515624144E0
9.634946250E-1,-1.313123252E0,-5.749830276E-2,-1.866355076E0,2.282735202E0
9.734866250E-1,-1.164135028E0,-5.156440213E-1,-1.680930659E0,2.108702682E0
9.834776250E-1,-1.827439663E0,-2.752950990E-1,-1.109846116E0,2.155709052E0
9.934696250E-1,-1.569187444E0,-8.937322944E-2,1.581902068E0,2.229966583E0
1.003460625E0,-5.855156171E-1,-5.516198927E-1,1.821209894E0,1.990959196E0
1.013452625E0,-5.882825196E-2,-4.047632709E-1,1.032827322E-1,4.218547042E-1
1.023443625E0,7.630879551E-1,1.033034021E0,5.186831117E-1,1.385097356E0
1.033435625E0,1.960935690E0,1.532900208E0,1.427223334E0,2.869149399E0
1.043426625E0,2.048362089E0,5.803291368E-1,1.791367167E0,2.782366885E0
1.053418625E0,2.475362028E0,1.050651097E-1,4.491445148E-1,2.517972725E0
1.063409625E0,2.482235430E0,-1.395285988E-1,-4.536058673E-1,2.527195925E0
1.073401625E0,2.319785746E0,4.128713125E-1,2.844319582E-2,2.356412028E0
1.083392625E0,2.575002092E0,1.141403977E0,2.211564310E0,3.581124894E0
1.093384625E0,1.448241881E0,-1.377577695E0,1.149652791E0,2.305824449E0
1.103375625E0,-2.022937810E-1,-3.472430411E0,-1.538369694E0,3.803324473E0
1.113367625E0,-1.425200343E0,-4.390446192E0,-3.011218997E0,5.511320498E0
1.123358625E0,4.950849187E-1,-3.992400495E0,-4.108370662E-2,4.023190110E0
1.133350625E0,1.516856618E0,-3.339932504E0,1.502757812E0,3.964124641E0
1.143341625E0,2.065622485E0,-1.537769769E0,1.334177907E0,2.900269436E0
1.153333625E0,1.680768691E0,-3.160086769E-1,2.394465215E0,2.942500390E0
1.163324625E0,1.504561093E0,1.937391876E0,1.943992213E0,3.129903687E0
1.173316625E0,9.628855598E-1,1.408118872E0,-7.879848146E-1,1.879060251E0
1.183307625E0,-1.232862031E-1,-1.109170032E-1,1.095232681E0,1.107716884E0
1.193299625E0,-2.331711727E-1,-4.368022120E-1,3.048016695E0,3.087971946E0
1.203290625E0,8.939673525E-1,-9.838682932E-1,2.505517874E0,2.836334653E0
1.213282625E0,4.905866557E-1,-3.094628359E0,2.096496514E-1,3.140279116E0
1.223273625E0,1.482912946E0,-3.876654861E0,-3.230367377E-2,4.150726111E0
1.233265625E0,1.465764817E0,-4.150706842E0,-6.672993799E-1,4.452204201E0
1.243256625E0,-5.136018813E-2,-1.222189109E0,-2.989684871E0,3.230263103E0
1.253248625E0,-2.170932593E0,-2.784527124E0,-3.179955608E0,4.751700463E0
1.263238875E0,-1.267076429E0,-1.048027452E0,-6.112655854E-1,1.754277581E0
1.273230875E0,-1.400648469E0,9.024639416E-1,-1.069976072E0,1.980178299E0
1.283221875E0,-1.005740388E0,1.127998066E-1,-6.202726364E-1,1.187002809E0
1.293213875E0,-3.290310109E-1,4.355082232E-1,1.341707951E0,1.448485086E0
1.303204875E0,-6.457852077E-1,2.853131336E-1,-2.845013939E-2,7.065773342E-1
1.313196875E0,-5.418661523E-1,-2.749255550E-1,-9.999685284E-1,1.170102579E0
1.323187875E0,-4.250463849E-1,-5.300091684E-1,-6.655020189E-1,9.510347444E-1
1.333179875E0,7.209616899E-3,7.234917802E-1,-7.731470664E-1,1.058890325E0
1.343170875E0,-1.028086692E-1,1.248578762E0,-1.695707157E-2,1.252919028E0
1.353162875E0,-7.421894217E-1,2.856292341E0,2.383956599E-1,2.960757262E0
1.363153875E0,-1.521948958E0,2.865006446E0,-5.391119675E-1,3.288652046E0
1.373145875E0,-2.012613966E0,1.702405728E0,-6.212806233E-1,2.708281716E0
1.383136875E0,-1.345160732E0,1.639579734E0,-3.949197757E-1,2.157229874E0
1.393128875E0,-6.166415155E-2,2.990667204E0,-1.812028742E-1,2.996786157E0
1.403119875E0,-3.963634533E-1,1.713848729E0,-3.578857776E-1,1.795122191E0
1.413111875E0,-2.093583870E-1,-2.987927198E-4,2.809141271E-2,2.112348242E-1
1.423102875E0,6.603015053E-1,-2.240021539E-1,3.003060523E-1,7.591829608E-1
1.433094875E0,1.236297271E0,-8.977545941E-1,5.036558405E-1,1.608745927E0
1.443086875E0,9.995563728E-1,-1.004579131E0,8.011398804E-1,1.627918082E0
1.453077875E0,4.975822645E-1,-2.279238814E-1,1.009845718E0,1.148619075E0
1.463069875E0,1.837499213E-1,3.240456748E-1,3.177692735E-1,4.896396064E-1
1.473060875E0,-1.936831713E-2,7.394155025E-2,-5.721640118E-1,5.772470364E-1
1.483052875E0,5.611689806E-2,-3.365347427E-1,-7.141028329E-1,7.914212502E-1
1.493043875E0,3.007439357E-1,-2.500900912E-1,-9.015307260E-1,9.827256069E-1
1.503035875E0,4.462255847E-1,-1.411529553E-1,-6.617012557E-1,8.104874959E-1
1.513026875E0,3.802181214E-1,3.863916117E-1,-4.333150788E-1,6.939929790E-1
1.523018875E0,1.606347084E-1,7.900564831E-1,1.672093177E-1,8.233782315E-1
1.533009875E0,-5.357359314E-1,2.024622978E0,-4.903233849E-2,2.094878364E0
1.543001875E0,-8.488145685E-1,1.966009904E0,-4.772497416E-2,2.141952097E0
1.552992875E0,-7.012267524E-1,6.057873291E-1,-1.895832498E-1,9.458536118E-1
1.562984875E0,1.482011890E-1,-3.497289848E-1,-3.537929459E-1,5.190793810E-1
1.572975875E0,-3.805917585E-1,-6.912356150E-1,-5.915522826E-1,9.862002155E-1
1.582967875E0,-5.975450939E-1,5.663940525E-1,5.548819081E-1,9.928526043E-1
1.592958875E0,-5.387525100E-1,1.264798939E0,-4.420378089E-2,1.375472499E0
1.602950875E0,-4.051225823E-1,2.036971128E0,2.435296614E-1,2.091095976E0
1.612941875E0,9.563822865E-2,2.059309246E0,-9.434716344E-2,2.063686659E0
1.622933875E0,8.462909102E-1,1.839135849E0,5.660854657E-1,2.102161205E0
1.632924875E0,1.457971648E0,1.055040017E0,-1.350050466E-1,1.804720789E0
1.642916875E0,1.986159409E0,-4.954123628E-1,-6.237258558E-1,2.139929099E0
1.652907875E0,1.724015867E0,-2.737220226E0,-3.181329703E-1,3.250509785E0
1.662899875E0,1.188199244E0,-3.475152875E0,-4.432914519E-1,3.699325919E0
1.672890875E0,1.002812687E0,-1.967548306E0,-2.382610278E-1,2.221181654E0
1.682882875E0,-1.696463202E0,-5.243478942E-1,-5.635850501E-1,1.862942892E0
1.692873875E0,9.766487360E-2,2.611113326E0,-5.758946085E-1,2.675650543E0
1.702865875E0,-1.349654902E0,2.307945719E0,-9.936889842E-2,2.675454349E0
1.712856875E0,-1.262854739E0,1.217523615E0,1.002600141E-1,1.757048069E0
1.722848875E0,2.826747530E0,-1.484501050E0,4.736678834E-1,3.227786583E0
1.732839875E0,4.891453171E-1,-9.285091943E-1,7.696667305E-1,1.301452781E0
1.742831875E0,-8.454401404E-1,3.811729717E-1,-1.847829781E-2,9.275792758E-1
1.752822875E0,-6.424634045E-1,1.326824448E0,1.839815442E-1,1.485621604E0
1.762814875E0,-7.860482168E-1,2.078729019E0,4.199446893E-1,2.261711669E0
1.772805875E0,-9.132239878E-2,2.061646378E0,1.931651080E-1,2.072688671E0
1.782797875E0,1.878301084E-1,-1.764643491E0,-6.244978344E-1,1.881287948E0
1.792788875E0,4.612921053E-1,-2.620275913E0,-1.774907109E0,3.198270081E0
1.802780875E0,9.343108016E-1,-5.785394796E0,-2.548786100E0,6.390621269E0
1.812771875E0,1.416275153E0,-4.705449148E0,-2.894779884E0,5.703230450E0
1.822763875E0,-4.162439865E-1,-1.125569717E0,-2.610598186E0,2.873219298E0
1.832754875E0,-1.483404697E0,-4.100319046E-1,-1.387936184E0,2.072433958E0
1.842746875E0,-1.804847776E0,-8.463277477E-1,3.680096468E-1,2.027110567E0
1.852737875E0,-1.963993784E0,-1.314621309E0,1.815642321E0,2.980278142E0
1.862729875E0,-1.878529125E0,-1.118880503E0,2.935361899E0,3.660206925E0
1.872720875E0,-1.983188438E0,1.154229845E0,1.859627416E0,2.953556677E0
1.882712875E0,-3.019180566E-1,4.499157041E0,1.068641737E0,4.634173470E0
1.892703875E0,-1.295269364E0,1.291548781E0,2.099083761E0,2.784236630E0
1.902695875E0,-3.939052838E-1,1.627772452E0,7.483723406E-1,1.834357023E0
1.912686875E0,6.952748716E-1,3.948043517E0,3.565678883E-1,4.024623637E0
1.922678875E0,1.584506564E0,1.246869621E0,-8.636817721E-1,2.193465547E0
1.932669875E0,2.531937933E-1,-2.165629168E0,9.133643210E-1,2.363956678E0
1.942661875E0,1.289422148E-1,-2.581636342E0,1.788173271E0,3.143093372E0
1.952652875E0,1.181046345E0,-3.990011322E-1,7.590621471E-1,1.459536816E0
1.962644875E0,-4.749979788E-1,-8.203772199E-1,-9.474711299E-1,1.340277361E0
1.972635875E0,-1.475187020E0,-1.429247201E0,-1.647205088E0,2.632908830E0
1.982627875E0,-1.300192720E0,4.669755989E-1,-8.699101532E-1,1.632578020E0
1.992618875E0,-1.993978305E0,4.989196397E0,8.697476006E-1,5.442838511E0
2.002610875E0,-2.336326935E0,9.016203638E0,3.945352628E0,1.011514503E1
2.012601875E0,-2.364981800E0,4.504261660E0,5.082687528E0,7.191329816E0
2.022593875E0,-2.471144432E0,4.970689375E0,3.907821105E0,6.788620880E0
2.032584875E0,-3.575630259E0,3.566261850E0,2.589529499E0,5.675298966E0
2.042576875E0,-4.638907249E0,3.859060004E0,-4.436474304E0,7.489600045E0
2.052567875E0,-2.124386417E0,4.429638909E0,-8.004003831E0,9.391421396E0
2.062559875E0,-7.746777213E-1,1.171711265E0,-6.454556587E0,6.605628932E0
2.072550875E0,-1.091582192E0,-1.523144714E0,5.763038405E-1,1.960522281E0
2.082542875E0,-2.266731620E0,-1.760758601E0,3.733332589E0,4.709152291E0
2.092533875E0,9.537282354E-1,2.767425188E0,1.899656139E0,3.489546269E0
2.102525875E0,2.630289854E0,7.413646134E0,1.209729277E0,7.958895567E0
2.112516875E0,4.850005767E0,6.868683296E0,4.252957102E0,9.422792064E0
2.122508875E0,6.030341091E0,2.142829120E0,2.581220605E0,6.900683309E0
2.132499875E0,2.230514551E0,-4.114483341E0,2.352150085E0,5.238012824E0
2.142491875E0,-2.032137235E0,-6.554659749E0,1.729395890E0,7.077001930E0
2.152482875E0,-1.429401568E0,-3.974645424E0,-2.711677834E0,5.019381612E0
2.162474875E0,-2.053477233E0,-3.677351931E0,-2.274204215E0,4.786615796E0
2.172465875E0,-9.145653391E-1,-5.338536542E0,6.845686197E-1,5.459398901E0
2.182457875E0,5.475057918E-1,-6.563439344E0,-1.726647699E-1,6.588498443E0
2.192448875E0,-8.665059042E-1,-5.883267245E0,-4.399692102E-1,5.962989088E0
2.202440875E0,2.645970333E-1,-3.915455815E0,9.060565440E-1,4.027622659E0
2.212431875E0,6.358788550E-1,-1.834082100E0,1.874020922E0,2.698175955E0
2.222423875E0,1.687245944E0,-6.730420035E-1,-9.310053706E-2,1.818915095E0
2.232414875E0,2.115276748E0,8.527374655E-1,-4.545077272E-1,2.325539546E0
2.242406875E0,-2.195769811E-1,-9.363462174E-1,-3.207099552E0,3.348200386E0
2.252397875E0,-2.215303019E0,-2.716436883E0,1.338675585E0,3.752152599E0
2.262389875E0,-3.952106747E0,-1.260739217E0,4.320541559E0,5.989631915E0
2.272380500E0,-3.415674997E0,4.833355236E-1,1.096419593E0,3.619749278E0
2.282372500E0,-2.840656009E0,3.538810927E-1,-6.478902054E-1,2.935016202E0
2.292363500E0,-2.127170569E0,2.999118769E-1,5.782077670E-1,2.224663117E0
2.302355500E0,-1.693000773E0,9.196664500E-1,6.269174123E-1,2.026095615E0
2.312346500E0,-2.735204691E-1,9.633293635E-1,4.611260444E-3,1.001418081E0
2.322338500E0,-6.903271039E-1,1.044086428E0,1.392989202E0,1.872721788E0
2.332329500E0,9.878357752E-1,7.225954020E-1,1.785191191E0,2.164456334E0
2.342321500E0,1.309337765E-3,5.039399421E-1,2.153031342E0,2.211221640E0
2.352312500E0,-1.973845173E0,-3.104801345E-1,1.544784089E0,2.525632705E0
2.362304500E0,-7.304020196E-2,-2.066957989E0,-9.537625878E-1,2.277567402E0
2.372295500E0,1.465851941E0,-6.229126543E-1,-1.828982159E0,2.425266547E0
2.382287500E0,1.581493786E0,5.243782997E-2,-1.380800096E0,2.100114575E0
2.392278500E0,2.373432927E0,-9.339500284E-1,-2.287945318E-1,2.560818902E0
2.402270500E0,2.995861285E0,-1.877714024E0,-2.892496984E-2,3.535792902E0
2.412261500E0,2.879853696E0,-2.418694323E0,-1.037342834E-1,3.762233424E0
2.422253500E0,3.408551334E0,-2.083473449E0,1.382726169E-1,3.997274462E0
2.432245500E0,4.359773161E0,-1.742807649E0,-3.417935092E-2,4.695334785E0
2.442236500E0,5.550121549E0,-2.217843634E0,-1.916001592E0,6.276443395E0
2.452228500E0,5.403183358E0,-3.040597163E0,-1.447854795E0,6.366781370E0
2.462219500E0,3.788234435E0,-2.031002290E0,2.620862754E-1,4.306318573E0
2.472210500E0,2.654929436E0,-1.256773635E0,5.579354703E-1,2.989886665E0
2.482202500E0,1.230185761E0,-1.192853043E0,5.071746218E-1,1.787031473E0
2.492194500E0,-1.007983819E0,-1.048992242E0,1.468702458E0,2.067245272E0
2.502185500E0,-2.112253883E0,-1.431369156E0,1.248043742E0,2.840430832E0
2.512177500E0,-2.410093361E0,-1.364901516E0,1.640612133E-1,2.774603078E0
2.522168500E0,-2.213152121E0,-5.001983088E-1,-3.787615800E-1,2.300369751E0
2.532160500E0,-1.799031112E0,7.281420708E-1,2.456555263E-1,1.956284861E0
2.542151500E0,-7.750023879E-1,3.282024604E0,7.295161664E-1,3.450291008E0
2.552143500E0,-7.074180767E-2,5.239597560E0,7.751466680E-1,5.297097257E0
2.562134500E0,5.934982359E-2,5.728676804E0,-1.319327733E0,5.878935787E0
2.572126500E0,1.383027300E-2,6.251844145E0,-2.584185144E0,6.764891673E0
2.582117500E0,-4.533286361E-1,5.879946027E0,-3.762597903E0,6.995456748E0
2.592109500E0,-8.433259334E-1,5.903380498E0,-4.174636572E0,7.279333104E0
2.602100500E0,-2.220459679E-1,7.909382433E0,-3.002825904E0,8.463131707E0
2.612092500E0,-4.154661606E-1,9.044900603E0,-2.937816560E-1,9.059202322E0
2.622083500E0,-2.886119280E0,7.434839367E0,-7.880514729E-1,8.014209009E0
2.632075500E0,-2.577511132E0,5.351678159E0,-3.831207377E0,7.068392513E0
2.642066500E0,-2.667006276E0,1.938660137E0,-3.654241980E0,4.921870585E0
2.652058500E0,-2.521883938E0,-3.719121516E-1,-1.673407631E0,3.049345888E0
2.662049500E0,8.438138104E-1,-3.332244585E0,1.426860952E-1,3.440382979E0
2.672041500E0,1.373741045E0,-1.200067806E1,2.517518699E-1,1.208167278E1
2.682032500E0,1.327617038E0,-1.200732751E1,3.085914838E-1,1.208444081E1
2.692024500E0,1.267056256E0,-1.201624334E1,3.641026103E-1,1.208834589E1
2.702015500E0,1.215868561E0,-1.202590762E1,4.502601270E-1,1.209559939E1
2.712007500E0,1.152131425E0,-1.203836921E1,5.378689957E-1,1.210533118E1
2.721998500E0,1.076792683E0,-1.205033729E1,5.669367107E-1,1.211162782E1
2.731990500E0,7.176809927E0,-1.368935043E1,2.939445595E0,1.573357099E1
2.741981500E0,3.835865854E0,-8.717132590E0,1.201995749E0,9.599326082E0
2.751973500E0,2.915174095E0,-5.218030105E0,1.509716729E-1,5.979035928E0
2.761964500E0,3.376783996E0,-2.030282498E0,-4.566055620E-1,3.966510534E0
2.771956500E0,3.697621304E0,1.360113232E0,-1.305969769E0,4.150646738E0
2.781947500E0,2.689594654E0,4.160802644E0,-1.813310452E0,5.275821533E0
2.791939500E0,2.745634662E-1,5.455670890E0,-1.177873061E0,5.588122663E0
2.801930500E0,-1.040737728E0,6.470670928E0,-3.540278578E-1,6.563387312E0
2.811922500E0,-1.396515073E0,7.492732649E0,-4.040486315E-2,7.621871782E0
2.821913500E0,-2.244916828E0,8.178587657E0,-3.488343608E-1,8.488264430E0
2.831905500E0,-2.934062063E0,9.090677285E0,-1.049852952E0,9.609959672E0
2.841896500E0,-2.742052657E0,1.071792290E1,-2.140429423E0,1.126828125E1
2.851888500E0,-3.585728400E0,1.153532623E1,-2.272972353E0,1.229176971E1
2.861879500E0,-3.823344042E0,1.221392601E1,-1.524015949E0,1.288877701E1
2.871871500E0,-3.377012038E0,1.310268174E1,-8.324862188E-1,1.355645648E1
2.881862500E0,-3.581920986E0,1.330888965E1,-2.957556760E-1,1.378565098E1
2.891854500E0,-4.063388324E0,1.322861205E1,2.001940824E-1,1.384006428E1
2.901845500E0,-3.822130452E0,1.321035705E1,6.228758168E-1,1.376626997E1
2.911837500E0,-2.228387188E0,1.301400287E1,8.708597410E-1,1.323209646E1
2.921828500E0,-2.040546116E0,1.146170043E1,1.844615275E-1,1.164338573E1
2.931820500E0,-2.772011451E0,1.030290859E1,-5.527834886E-1,1.068361092E1
2.941811500E0,-2.784803113E0,9.684716973E0,-8.016526812E-1,1.010898206E1
2.951803500E0,-2.901776077E0,9.242079824E0,-6.609020144E-1,9.709435378E0
2.961794500E0,-2.901952078E0,9.078208097E0,-2.835806036E-1,9.534967545E0
2.971786500E0,-2.517897599E0,9.178713548E0,-1.518346488E-2,9.517815992E0
2.981777500E0,-2.476591113E0,9.140357568E0,1.479158449E-1,9.471088591E0
2.991769500E0,-2.342787231E0,9.181511441E0,2.181537688E-1,9.478206340E0
3.001760500E0,-1.878679691E0,9.528850669E0,1.957624412E-1,9.714255266E0
3.011752500E0,-1.574663654E0,9.712756126E0,5.453054845E-2,9.839724120E0
3.021743500E0,-1.061890469E0,9.812259364E0,-3.891848266E-2,9.869628151E0
3.031735500E0,-4.535267106E-1,9.835134841E0,-6.373231173E-2,9.845792280E0
3.041726500E0,6.312478602E-2,9.723783390E0,-1.489946562E-1,9.725129694E0
3.051718500E0,6.437269878E-1,9.450795017E0,-1.295947641E-1,9.473579350E0
3.061709500E0,1.253186515E0,8.805792167E0,-1.753591669E-1,8.896246566E0
3.071701500E0,1.395625565E0,6.396390240E0,-3.836872745E-1,6.558109083E0
3.081692500E0,4.404413728E-1,1.744978135E0,-7.115710616E-1,1.935270180E0
3.091684500E0,1.628063643E0,-4.328116627E0,-7.183129013E-1,4.679653640E0
3.101675500E0,1.200201970E0,-1.670927125E1,2.198120391E-1,1.675376220E1
3.111667500E0,1.277629776E0,-1.670006890E1,2.827912295E-1,1.675125697E1
3.121658500E0,1.423797011E0,-1.668187938E1,3.067449697E-1,1.674533936E1
3.131650500E0,1.547435509E0,-1.666588842E1,2.513039915E-1,1.673946078E1
3.141641500E0,1.556378533E0,-1.666233097E1,1.309448953E-1,1.673537374E1
3.151632500E0,1.486998396E0,-1.666898043E1,6.141915321E-3,1.673517584E1
3.161624500E0,1.409366376E0,-1.667865406E1,-1.095528569E-1,1.673845323E1
3.171616500E0,1.350046373E0,-1.668783185E1,-2.201581943E-1,1.674379965E1
3.181607500E0,1.307680810E0,-1.669567297E1,-3.089382968E-1,1.674965575E1
3.191599500E0,1.130357125E0,-1.412236364E1,-3.088485859E0,1.450026231E1
3.201590500E0,-2.154137635E-1,-9.384033263E0,-5.161254811E0,1.071191088E1
3.211581500E0,-1.135332375E0,-3.908546160E0,-5.601859467E0,6.924344169E0
3.221573500E0,-1.398146738E0,8.913016069E-1,-3.584497561E0,3.949412061E0
3.231565500E0,-1.340443198E0,5.191187877E0,-1.725001708E0,5.632126635E0
3.241556500E0,-1.159377441E0,8.767046177E0,-1.338187342E0,8.944048305E0
3.251548500E0,-1.314098422E0,1.082898492E1,-1.507365235E-1,1.090946793E1
3.261539500E0,-2.017617575E0,1.192275221E1,7.325444394E-1,1.211443034E1
3.271531792E0,-1.859407853E0,1.344333351E1,1.037966148E0,1.361095100E1
3.281522792E0,-2.159696729E0,1.464415163E1,1.126675426E0,1.484536508E1
3.291513792E0,-2.581136405E0,1.533266010E1,9.576189727E-1,1.557786137E1
3.301505792E0,-3.759398891E0,1.567874276E1,5.074581752E-1,1.613113661E1
3.311497792E0,-5.163079142E0,1.566784589E1,-4.355042763E-3,1.649662996E1
3.321488792E0,-5.980146838E0,1.561939820E1,-5.744106217E-1,1.673492468E1
3.331480792E0,-5.986329684E0,1.475717831E1,-1.345949521E0,1.598192838E1
3.341471792E0,-4.660848049E0,1.220046104E1,-2.149993713E0,1.323620894E1
3.351462792E0,-3.626121843E0,1.026537180E1,-1.876513005E0,1.104752999E1
3.361454792E0,-3.428305275E0,9.497652265E0,-1.042868453E0,1.015116989E1
3.371445792E0,-3.220089726E0,8.845104167E0,-2.604045796E-1,9.416615959E0
3.381437792E0,-3.087579248E0,7.640921559E0,2.498965849E-1,8.244954590E0
3.391428792E0,-2.738032404E0,7.082935803E0,3.990315378E-1,7.604211149E0
3.401420792E0,-2.271446376E0,7.196157194E0,6.136752230E-1,7.571046445E0
3.411411792E0,-1.847218163E0,7.976093316E0,7.300242895E-1,8.219684604E0
3.421403792E0,-1.621079436E0,8.960890732E0,7.224316800E-1,9.134953135E0
3.431394792E0,-1.472828400E0,9.662335585E0,6.969927835E-1,9.798762748E0
3.441386792E0,-1.422589269E0,1.002879813E1,6.060369686E-1,1.014730669E1
3.451377792E0,-1.177197708E0,1.054477515E1,4.241921067E-1,1.061875776E1
3.461369792E0,-9.035668726E-1,1.104943664E1,2.068557604E-1,1.108824930E1
3.471360792E0,-9.029491143E-1,1.068551763E1,-1.237808959E-1,1.072431471E1
3.481352792E0,-9.110318667E-1,9.721432225E0,-4.036332965E-1,9.772366315E0
3.491343792E0,-6.380516803E-1,8.645799483E0,-5.330561525E-1,8.685684055E0
3.501335792E0,-1.353293916E0,5.408961577E0,-5.831363851E-1,5.606096486E0
3.511326792E0,-1.625124832E0,2.215493054E0,-7.807570714E-1,2.856400146E0
3.521318792E0,-1.950692976E0,-2.939170775E0,-1.259866228E0,3.745823120E0
3.531309792E0,-4.580176646E0,-1.482468675E1,-1.381769564E0,1.557750437E1
3.541301792E0,-4.375484921E0,-1.478982214E1,-1.203986142E0,1.547040044E1
3.551292792E0,-4.101249923E0,-1.475370857E1,-9.997896767E-1,1.534574035E1
3.561284792E0,-3.896802612E0,-1.473397305E1,-8.602868787E-1,1.526483298E1
3.571275792E0,-3.810887133E0,-1.472520690E1,-8.413289630E-1,1.523359489E1
3.581267792E0,-3.774427405E0,-1.471785929E1,-9.041327369E-1,1.522100983E1
3.591258792E0,-3.737019258E0,-1.470943228E1,-1.002755384E0,1.520980701E1
3.601250792E0,-3.682320310E0,-1.470013872E1,-1.112259700E0,1.519508746E1
3.611241792E0,-3.617331724E0,-1.469177018E1,-1.205515773E0,1.517848702E1
3.621233792E0,6.568650967E0,-1.217630619E1,5.788147080E-1,1.384718869E1
3.631224792E0,5.101989772E0,-7.240020667E0,-1.419508663E0,8.970128412E0
3.641216792E0,3.482634679E0,-2.327425718E0,-1.791045424E0,4.555600783E0
3.651207792E0,2.087253236E0,2.061106680E0,-1.680994978E0,3.380906821E0
3.661199792E0,1.348495837E0,5.680605090E0,-1.254811310E0,5.971789232E0
3.671190792E0,7.602765407E-1,8.412141822E0,-1.400123974E0,8.561687777E0
3.681182792E0,-2.937535163E-1,1.018905862E1,-1.659679538E0,1.032752356E1
3.691173792E0,-1.356125430E0,1.189822899E1,-1.071177163E0,1.202307572E1
3.701165792E0,-1.718240572E0,1.331681028E1,-3.009860104E-1,1.343057629E1
3.711156792E0,-2.616319394E0,1.378496761E1,1.338334107E-1,1.403169165E1
3.721148792E0,-3.628525634E0,1.379263214E1,4.176081419E-2,1.426199998E1
3.731139792E0,-4.371208560E0,1.393874236E1,-3.607504016E-1,1.461253379E1
3.741131792E0,-4.837121428E0,1.430954471E1,-1.053755969E0,1.514170450E1
3.751122792E0,-5.182102473E0,1.440544840E1,-2.058588284E0,1.544697108E1
3.761114792E0,-5.346325618E0,1.371024019E1,-3.032840831E0,1.502504600E1
3.771105792E0,-5.245890334E0,1.246612929E1,-3.962755111E0,1.409351528E1
3.781097792E0,-3.057784176E0,1.133957782E1,-4.456200471E0,1.256159989E1
3.791088792E0,-1.496620428E0,1.003493537E1,-4.086517863E0,1.093798102E1
3.801080792E0,-1.300086885E0,9.445674026E0,-2.895236551E0,9.964606284E0
3.811071792E0,-1.234121814E0,9.259619132E0,-1.740147750E0,9.502195395E0
3.821063792E0,-1.175325868E0,8.979980137E0,-9.986290044E-1,9.111459490E0
3.831054792E0,-1.672228832E0,8.496579709E0,-4.848868265E-1,8.673138489E0
3.841046792E0,-1.990335344E0,8.593392059E0,-2.114815475E-1,8.823408995E0
3.851037792E0,-1.818912669E0,9.314391755E0,-3.056053473E-1,9.495247848E0
3.861029792E0,-1.726356069E0,9.632291422E0,-5.077301439E-1,9.798935310E0
3.871020792E0,-1.633401566E0,9.804933972E0,-6.095763614E-1,9.958730553E0
3.881012792E0,-1.506562741E0,9.891235367E0,-5.427935572E-1,1.002002461E1
3.891003792E0,-1.340042810E0,9.937703190E0,-4.381190050E-1,1.003721115E1
3.900995792E0,-1.099928215E0,9.896494353E0,-3.971884954E-1,9.965350032E0
3.910986792E0,-1.047878201E0,9.482517332E0,-3.851882547E-1,9.548013074E0
3.920978792E0,-8.598729689E-1,8.594376730E0,-4.623007500E-1,8.649648252E0
3.930969792E0,-1.128571239E0,6.514223914E0,-3.612088233E-1,6.621122115E0
3.940961792E0,-1.408429652E0,3.366226848E0,-4.074269700E-1,3.671669105E0
3.950952792E0,-2.492679727E0,-4.425693208E0,-5.742796075E-1,5.111752113E0
3.960944792E0,-4.772390119E0,-2.117218783E1,-7.648567379E-1,2.171686559E1
3.970935792E0,-4.631404687E0,-2.115520284E1,-6.149727201E-1,2.166496499E1
3.980927792E0,-4.447393102E0,-2.113841432E1,-4.407736043E-1,2.160569709E1
3.990918792E0,-4.320055071E0,-2.112964115E1,-3.357189830E-1,2.156936064E1
4.000910792E0,-4.281697336E0,-2.112479264E1,-3.449599957E-1,2.155710541E1
4.010901792E0,-4.295584766E0,-2.112119076E1,-4.288756899E-1,2.155784502E1
4.020893792E0,-4.309928278E0,-2.111658315E1,-5.519315493E-1,2.155899335E1
4.030884792E0,-4.329650060E0,-2.111445710E1,-6.657335687E-1,2.156407590E1
4.040876792E0,-4.355067614E0,-2.111569438E1,-7.227871907E-1,2.157224106E1
4.050867792E0,4.863360808E0,-9.922677015E0,-7.665217910E0,1.344869373E1
4.060859792E0,1.823045773E0,-7.169944711E0,-5.576702406E0,9.264513629E0
4.070850792E0,6.262283179E-1,-3.192019583E0,-2.117383207E0,3.881296506E0
4.080842792E0,3.468712313E-1,1.209770207E0,1.187920697E-1,1.264110423E0
4.090833792E0,5.293045789E-3,4.875914195E0,1.238944305E0,5.030859792E0
4.100825792E0,2.155374321E-1,8.118734388E0,5.915967214E-1,8.143113110E0
4.110816792E0,-2.352896190E-1,1.040785675E1,1.313974242E-1,1.041134519E1
4.120808792E0,-1.568273524E0,1.143191237E1,4.629836683E-1,1.154826637E1
4.130799792E0,-2.396690812E0,1.228038079E1,8.171051180E-1,1.253872162E1
4.140791792E0,-2.685018039E0,1.309476227E1,6.371453619E-1,1.338237927E1
4.150782792E0,-2.685846589E0,1.421116414E1,5.512930334E-1,1.447324712E1
4.160774792E0,-3.258367354E0,1.498755509E1,8.526211059E-1,1.536133875E1
4.170765792E0,-4.423554296E0,1.522839489E1,6.619182605E-1,1.587167223E1
4.180757792E0,-5.268743591E0,1.522459069E1,1.729723334E-2,1.611049720E1
4.190748792E0,-5.617397273E0,1.480104295E1,-2.620348016E-1,1.583334098E1
4.200740792E0,-6.147177815E0,1.403113655E1,-5.750309747E-1,1.532942428E1
4.210731792E0,-5.434237336E0,1.295002497E1,-1.037014221E0,1.408223990E1
4.220723792E0,-3.482128603E0,1.157335886E1,-1.717314373E0,1.220725291E1
4.230714792E0,-2.534693726E0,1.037944630E1,-2.094021242E0,1.088772257E1
4.240706792E0,-1.770749300E0,9.846387223E0,-2.078468233E0,1.021797067E1
4.250697792E0,-1.249456868E0,9.588327377E0,-1.297059782E0,9.755999612E0
4.260689792E0,-8.472184248E-1,9.364376094E0,-3.245198840E-1,9.408221502E0
4.270681125E0,-8.151979025E-1,9.140624785E0,2.380682341E-1,9.179991589E0
4.280673125E0,-1.430737803E0,8.734233357E0,5.311903059E-1,8.866566762E0
4.290664125E0,-1.919764275E0,8.765174484E0,4.023761451E-1,8.981964438E0
4.300656125E0,-1.629815030E0,9.034622952E0,2.439464217E-1,9.183693090E0
4.310647125E0,-1.342547757E0,9.215159243E0,4.457788575E-1,9.323106411E0
4.320638125E0,-1.278726275E0,9.207002378E0,8.572614563E-1,9.334823559E0
4.330630125E0,-1.136886418E0,8.986039022E0,1.152904866E0,9.130750115E0
4.340621125E0,-1.025368760E0,8.518640084E0,1.330846163E0,8.682727768E0
4.350613125E0,-8.136472209E-1,7.207456938E0,1.198669853E0,7.351616607E0
4.360604125E0,-8.534275831E-1,4.001482975E0,7.786397946E-1,4.164911112E0
4.370596125E0,-1.652795026E0,-2.501228356E0,9.514542532E-1,3.145336212E0
4.380587125E0,-2.329033556E0,-1.511859821E1,1.833749979E0,1.540646125E1
4.390579125E0,-2.188526865E0,-1.509713542E1,1.947429206E0,1.537873949E1
4.400570125E0,-2.028969944E0,-1.507610299E1,2.062104946E0,1.535115231E1
4.410562125E0,-1.920875684E0,-1.506533242E1,2.158197942E0,1.533987688E1
4.420553125E0,-1.890621752E0,-1.506140309E1,2.165705767E0,1.533331651E1
4.430545125E0,-1.900321260E0,-1.505564241E1,2.046451803E0,1.531246402E1
4.440536125E0,-1.921325335E0,-1.504945138E1,1.829470986E0,1.528150653E1
4.450528125E0,-1.935955361E0,-1.504702595E1,1.589211234E0,1.525406522E1
4.460519125E0,-1.946662783E0,-1.504881988E1,1.434114423E0,1.524182272E1
4.470511125E0,4.325383054E0,-1.153283765E1,-1.660155267E1,2.067188511E1
4.480502125E0,1.710685970E0,-8.814307467E0,-1.013278618E1,1.353853088E1
4.490494125E0,4.903058432E-1,-5.426763425E0,-2.620775850E0,6.046373057E0
4.500485125E0,-9.513013485E-1,-1.807878973E0,-1.090011045E0,2.315496645E0
4.510477125E0,-6.070579290E-1,1.910556080E0,-1.718959780E0,2.640751141E0
4.520468125E0,-2.627528214E-1,5.261676646E0,-1.469181345E0,5.469257171E0
4.530460125E0,-3.052926309E-1,8.027856377E0,-5.610491127E-1,8.053226541E0
4.540451125E0,-7.469138257E-1,9.860405338E0,3.589488745E-1,9.895166395E0
4.550443125E0,-1.422957497E0,1.069840256E1,1.086530197E0,1.084717351E1
4.560434125E0,-1.791947795E0,1.154026245E1,8.784605366E-1,1.171155101E1
4.570426125E0,-1.945629872E0,1.171184548E1,6.214439068E-3,1.187235608E1
4.580417125E0,-2.003469360E0,1.231517055E1,-5.379806775E-1,1.248866439E1
4.590409125E0,-2.287691695E0,1.300259729E1,-6.710030794E-1,1.321935379E1
4.600400125E0,-2.545434476E0,1.379420387E1,-3.752584765E-1,1.403211017E1
4.610392125E0,-2.956420646E0,1.437270400E1,-1.644611263E-1,1.467453886E1
4.620383125E0,-3.878073395E0,1.442009685E1,-1.668222320E-1,1.493340135E1
4.630375125E0,-4.489731037E0,1.379576391E1,-5.738761131E-1,1.451930165E1
4.640366125E0,-5.237620032E0,1.236396322E1,-1.372617502E0,1.349756752E1
4.650358125E0,-5.218901925E0,1.137711811E1,-1.708649384E0,1.263310083E1
4.660349125E0,-4.477302780E0,1.031834056E1,-1.904771429E0,1.140800360E1
4.670341125E0,-3.436438460E0,9.695180565E0,-1.777374049E0,1.043861552E1
4.680332125E0,-3.284299171E0,9.427873932E0,-1.297658536E0,1.006753920E1
4.690324125E0,-3.315753683E0,9.270114300E0,-6.052330130E-1,9.863850598E0
4.700315125E0,-3.154830707E0,9.142712241E0,-3.477225859E-2,9.671781275E0
4.710307125E0,-2.979404589E0,9.047526587E0,2.221877994E-1,9.528061527E0
4.720298125E0,-2.852827573E0,9.026214071E0,3.244391924E-1,9.471875548E0
4.730290125E0,-2.581120033E0,9.287003982E0,3.523982388E-1,9.645455308E0
4.740281125E0,-2.413703432E0,9.562223652E0,2.853797736E-1,9.866282331E0
4.750273125E0,-2.238464571E0,9.430024538E0,1.625870754E-1,9.693426689E0
4.760264125E0,-1.928881107E0,9.165399438E0,3.245557347E-2,9.366225630E0
4.770256125E0,-1.966595648E0,8.425505633E0,4.644554490E-1,8.664430881E0
4.780247125E0,-2.200406360E0,7.525943080E0,1.179843573E0,7.929289896E0
4.790239125E0,-1.414935118E0,4.505424086E0,9.938173306E-1,4.825822259E0
4.800230125E0,3.822587997E-2,-4.900777726E0,-8.114988077E-1,4.967656776E0
4.810222125E0,7.196139067E-2,-4.895659073E0,-7.112740231E-1,4.947581928E0
4.820213125E0,1.443199535E-1,-4.886041573E0,-5.817289603E-1,4.922665851E0
4.830205125E0,2.523007773E-1,-4.873408663E0,-4.481808571E-1,4.900472810E0
4.840196125E0,3.277145103E-1,-4.864393426E0,-3.980667106E-1,4.891643621E0
4.850188125E0,3.095312776E-1,-4.863956054E0,-4.739250147E-1,4.896782927E0
4.860179125E0,2.501851085E-1,-4.868387659E0,-6.268308735E-1,4.914947399E0
4.870170125E0,1.832919382E-1,-4.876697137E0,-8.056422365E-1,4.946193518E0
4.880162125E0,1.223569344E-1,-4.887410406E0,-9.585925341E-1,4.982032852E0
4.890153125E0,7.220463485E-2,-4.897467032E0,-1.049240164E0,5.009121855E0
4.900145125E0,1.437865997E0,-1.123663642E1,-1.017504752E1,1.522698423E1
4.910136125E0,8.150233631E-1,-7.422005314E0,-6.843983488E0,1.012869863E1
4.920128125E0,7.132512590E-1,-3.755402904E0,-3.599658222E0,5.250649260E0
4.930119125E0,2.809755228E-1,-8.122840887E-1,-1.363346157E0,1.611665421E0
4.940111125E0,-3.726056314E-1,2.229891238E0,1.496935154E0,2.711469112E0
4.950102125E0,-1.200957869E0,5.301386842E0,2.512678374E0,5.988368297E0
4.960094125E0,-2.024732906E0,8.109722659E0,3.016059322E0,8.886155456E0
4.970085125E0,-3.680715834E0,9.655790212E0,2.999737989E0,1.076012926E1
4.980077125E0,-4.847862763E0,9.865057383E0,1.060712986E0,1.104292726E1
4.990068125E0,-4.786063541E0,1.053202588E1,-1.159063153E0,1.162640963E1
5.000060125E0,-4.855546004E0,1.164040771E1,-2.182117732E0,1.279988502E1
5.010051125E0,-4.454961154E0,1.441499808E1,-2.374756005E0,1.527345130E1
5.020043125E0,-4.239350047E0,1.558554984E1,-1.692576558E0,1.624026687E1
5.030034125E0,-4.569943141E0,1.546006040E1,-1.213627542E0,1.616696446E1
5.040026125E0,-4.727228564E0,1.584891311E1,-8.292059308E-1,1.655965939E1
5.050017125E0,-4.987808268E0,1.564139192E1,-2.882729211E-1,1.641994134E1
5.060009125E0,-5.863352798E0,1.508057494E1,6.032104611E-2,1.618042908E1
5.070000125E0,-6.788854769E0,1.440262303E1,-1.089259531E-1,1.592281269E1
5.079992125E0,-7.372692236E0,1.312783646E1,-7.763038319E-1,1.507644947E1
5.089983125E0,-7.780155458E0,1.135811817E1,-1.232545112E0,1.382233102E1
5.099975125E0,-7.641992769E0,9.864234095E0,-1.483087778E0,1.256593479E1
5.109966125E0,-5.886112500E0,9.176905004E0,-1.807223500E0,1.105115209E1
5.119958125E0,-4.444451076E0,9.127286117E0,-2.061553992E0,1.035907825E1
5.129949125E0,-3.936514562E0,9.349826467E0,-1.777479883E0,1.029926389E1
5.139941125E0,-3.793778473E0,9.435936658E0,-1.184527704E0,1.023878712E1
5.149932125E0,-3.494116564E0,9.483456395E0,-6.469394481E-1,1.012735535E1
5.159924125E0,-3.186912040E0,9.400748699E0,-3.024296880E-1,9.930858380E0
5.169915125E0,-2.968907375E0,9.205440001E0,-1.548904403E-1,9.673599520E0
5.179907125E0,-2.869045995E0,8.964806612E0,6.860128820E-2,9.412963861E0
5.189898125E0,-2.911245643E0,8.793892499E0,3.417680007E-1,9.269557802E0
5.199890125E0,-3.193046646E0,8.085850816E0,4.540859967E-1,8.705327358E0
5.209881125E0,-3.148617163E0,5.496735300E0,8.739371306E-1,6.394658326E0
5.219873125E0,-1.454272407E0,-6.750730923E0,-1.672807122E0,7.105319127E0
5.229864125E0,-1.388322831E0,-6.728436075E0,-1.469314077E0,7.025537428E0
5.239856125E0,-1.216758507E0,-6.681162506E0,-1.185161616E0,6.893695797E0
5.249847125E0,-1.004003180E0,-6.637580869E0,-8.533040607E-1,6.767099083E0
5.259838125E0,-8.799135697E-1,-6.622140711E0,-6.353677353E-1,6.710490865E0
5.269829500E0,-8.452480593E-1,-6.613511975E0,-6.302736410E-1,6.697031416E0
5.279820500E0,-8.569480455E-1,-6.602335607E0,-7.937618637E-1,6.704867882E0
5.289812500E0,9.312939307E0,-1.193735271E1,4.220330808E0,1.571758316E1
5.299803500E0,8.311743375E0,-9.135036601E0,-1.158415282E-1,1.235100769E1
5.309795500E0,6.890077089E0,-6.879745059E0,-4.332216695E0,1.065702378E1
5.319786500E0,4.403505656E0,-4.692306361E0,-1.105333323E1,1.279002644E1
5.329778500E0,1.713903692E-1,-2.228466271E0,-1.822331419E1,1.835986429E1
5.339769500E0,-2.431973934E0,8.782535452E-1,-1.696023258E1,1.715620341E1
5.349761500E0,-2.789782602E0,3.604947613E0,-8.610118019E0,9.742313204E0
5.359752500E0,-2.042699353E0,5.832163165E0,-2.780898342E0,6.776440321E0
5.369744500E0,-1.315500146E0,8.039156706E0,2.544358150E-1,8.150050231E0
5.379735500E0,-1.178710383E0,9.839374073E0,4.986026037E-1,9.922260068E0
5.389727500E0,-1.156288649E0,1.079146450E1,-3.887345910E-2,1.085330460E1
5.399718500E0,-1.554628754E0,1.162652408E1,-2.173627501E-1,1.173201514E1
5.409710500E0,-1.762356060E0,1.154518697E1,-8.433292955E-1,1.170933155E1
5.419701500E0,-1.782782431E0,1.134529172E1,-1.071636827E0,1.153439911E1
5.429693500E0,-1.973570646E0,1.118983764E1,-1.121414174E0,1.141775010E1
5.439684500E0,-2.294864329E0,1.098702580E1,-1.142169378E0,1.128209595E1
5.449676500E0,-2.624511344E0,1.089242721E1,-1.111636899E0,1.125916368E1
5.459667500E0,-3.024632802E0,1.100669583E1,-7.203348684E-1,1.143742275E1
5.469659500E0,-3.398149722E0,1.146925503E1,-1.266097605E-1,1.196274477E1
5.479650500E0,-3.964240012E0,1.276081609E1,2.081982811E-1,1.336401783E1
5.489642500E0,-4.168557514E0,1.318501521E1,8.445601344E-1,1.385405283E1
5.499633500E0,-4.414527073E0,1.253120529E1,8.199673301E-1,1.331132982E1
5.509625500E0,-4.916480423E0,1.151215020E1,3.571993876E-1,1.252313753E1
5.519616500E0,-5.284900618E0,1.077780307E1,4.391260782E-2,1.200388028E1
5.529608500E0,-5.506058686E0,1.050422471E1,-1.470528142E-1,1.186073537E1
5.539599500E0,-5.665564882E0,1.001021919E1,-4.118912826E-1,1.150968149E1
5.549591500E0,-6.873869777E0,8.846863010E0,-7.475805545E-1,1.122835462E1
5.559582500E0,-7.443168726E0,8.105168847E0,-7.980443645E-1,1.103319526E1
5.569574500E0,-7.207700182E0,7.848227574E0,-9.240723270E-1,1.069577148E1
5.579565500E0,-6.161639149E0,7.863001149E0,-7.970117462E-1,1.002136776E1
5.589557500E0,-4.406704668E0,7.889353380E0,-4.366016525E-1,9.047185407E0
5.599548500E0,-4.020993964E0,8.049429095E0,8.744392237E-2,8.998296931E0
5.609540500E0,-4.207409046E0,7.748489277E0,4.850464189E-1,8.830438664E0
5.619531500E0,-4.782782376E0,6.791497126E0,4.904264420E-1,8.321055135E0
5.629523500E0,-5.219856191E0,4.589459685E0,4.476072818E-1,6.964940138E0
5.639514500E0,-3.569055942E0,-1.179530747E0,2.368765533E-2,3.758991115E0
5.649505500E0,2.630263542E0,-1.593012041E1,-2.694855979E0,1.636915610E1
5.659497500E0,2.370910584E0,-1.604482290E1,-2.528854111E0,1.641501331E1
5.669488500E0,2.115971397E0,-1.617383119E1,-2.247863824E0,1.646581435E1
5.679480500E0,1.974246584E0,-1.626044950E1,-1.988970165E0,1.650017788E1
5.689471500E0,1.945666563E0,-1.628463826E1,-1.871922941E0,1.650694270E1
5.699463500E0,1.481230936E1,-1.976063723E1,1.068822255E1,2.690957811E1
5.709454500E0,1.366949211E1,-9.896707191E0,5.948481241E0,1.789369322E1
5.719446500E0,1.278705138E1,-5.727079344E0,1.704917107E0,1.411434955E1
5.729437500E0,1.181107156E1,-4.038324527E0,-1.503368261E0,1.257257303E1
5.739429500E0,1.041555052E1,-2.698738530E0,-3.882652935E0,1.143861338E1
5.749420500E0,8.047223525E0,-9.490498781E-2,-5.065108459E0,9.509055533E0
5.759412500E0,5.753605238E0,2.833584094E0,-5.655490129E0,8.550891220E0
5.769403500E0,2.904651738E0,5.571735197E0,-5.496130698E0,8.347975052E0
5.779395500E0,9.865100652E-2,7.520233859E0,-4.812974181E0,8.929074408E0
5.789386500E0,-1.546798163E0,9.080162821E0,-3.087039843E0,9.714512670E0
5.799378500E0,-2.579134026E0,1.024037144E1,-1.949100341E0,1.073853490E1
5.809369500E0,-3.262796328E0,1.141680200E1,-1.302301810E0,1.194509095E1
5.819361500E0,-3.752796800E0,1.168101311E1,-1.042567906E0,1.231326517E1
5.829352500E0,-4.271032015E0,1.123505884E1,-1.270402910E0,1.208644634E1
5.839344500E0,-5.354894128E0,1.051073032E1,-1.881410049E0,1.194529392E1
5.849335500E0,-7.055503006E0,9.613957477E0,-2.631571564E0,1.221202153E1
5.859327500E0,-8.696684293E0,8.644456962E0,-3.343237351E0,1.270968882E1
5.869318500E0,-9.696329543E0,8.017416174E0,-3.538458924E0,1.306975364E1
5.879310500E0,-1.068987498E1,7.654514582E0,-2.735477171E0,1.342936543E1
5.889301500E0,-1.138901720E1,7.571592293E0,-1.790755402E0,1.379295210E1
5.899293500E0,-1.161665515E1,7.397261651E0,-7.822270614E-1,1.379413049E1
5.909284500E0,-1.148858593E1,7.438074632E0,-1.322991014E-2,1.368622431E1
5.919276500E0,-1.091318014E1,7.433777513E0,4.649542165E-1,1.321267314E1
5.929267500E0,-8.947844424E0,7.199146290E0,9.083006322E-1,1.152027071E1
5.939259500E0,-7.466171088E0,6.990067400E0,1.040494557E0,1.028043685E1
5.949250500E0,-7.299885630E0,6.618672727E0,1.052344451E0,9.909721879E0
5.959242500E0,-6.727047946E0,6.897773779E0,9.987430251E-1,9.686585818E0
5.969233500E0,-6.285545742E0,7.564575634E0,1.007083420E0,9.886612504E0
5.979224500E0,-5.898086429E0,8.185906032E0,1.119477357E0,1.015134034E1
5.989216500E0,-5.499052552E0,8.593274530E0,1.283960849E0,1.028263106E1
5.999207500E0,-5.185281605E0,8.866309680E0,1.395714004E0,1.036564567E1
6.009199500E0,-5.010991893E0,9.032531987E0,1.473508869E0,1.043397826E1
6.019190500E0,-4.846954105E0,9.107405584E0,1.538727543E0,1.043098668E1
6.029182500E0,-4.587076945E0,8.951821116E0,1.691469680E0,1.019987480E1
6.039173500E0,-5.089390776E0,7.944709556E0,1.341562940E0,9.529958002E0
6.049165500E0,-5.651460228E0,6.323013530E0,1.203157153E0,8.565459121E0
6.059156500E0,-5.783166422E0,3.516405566E0,1.464912293E0,6.925033573E0
6.069148500E0,-3.390071209E0,-2.926684046E0,1.923970177E0,4.874394686E0
6.079139500E0,1.231677619E1,-2.685289583E1,-1.124233629E0,2.956425023E1
6.089131500E0,1.197060816E1,-2.707741722E1,-1.077899122E0,2.962505443E1
6.099122500E0,1.183709986E1,-2.718099714E1,-8.856087577E-1,2.965986921E1
6.109114500E0,1.185668920E1,-2.718130821E1,-7.225778604E-1,2.966355868E1
6.119105500E0,1.992784421E1,-1.793249590E1,1.280618698E1,2.971012974E1
6.129097500E0,1.137164746E1,-7.423536699E0,6.176489908E0,1.491885688E1
6.139088500E0,9.387418801E0,-2.483446389E0,-2.963251948E-2,9.710407602E0
6.149080500E0,7.944547588E0,-3.407038075E-1,-5.779700192E0,9.830404354E0
6.159071500E0,6.368291445E0,5.233766717E-1,-8.940745904E0,1.098935832E1
6.169063500E0,3.814815293E0,1.012501523E0,-1.002657385E1,1.077544237E1
6.179054500E0,1.061700581E0,2.263541379E0,-8.703193413E0,9.055186540E0
6.189046500E0,-2.257662588E0,3.597812841E0,-5.912526712E0,7.280059734E0
6.199037500E0,-3.841399659E0,5.601912092E0,-3.043188649E0,7.443034837E0
6.209029500E0,-4.850879926E0,7.668126900E0,-1.872448606E0,9.264840527E0
6.219020500E0,-5.618471991E0,8.998633924E0,-1.428728553E0,1.070438720E1
6.229012500E0,-6.029758124E0,9.830679263E0,-7.301769018E-1,1.155566511E1
6.239003500E0,-6.512332340E0,9.687235368E0,-6.900726038E-1,1.169312626E1
6.248995500E0,-7.566804593E0,9.491115078E0,-9.333074194E-1,1.217410612E1
6.258986500E0,-8.714204890E0,8.963717861E0,-1.127950777E0,1.255220609E1
6.268978500E0,-1.033035542E1,8.615041959E0,-1.028049270E0,1.349044389E1
6.278970500E0,-1.193823681E1,8.161302702E0,-8.341865891E-1,1.448531074E1
6.288961500E0,-1.336643093E1,7.542464388E0,-6.900661719E-1,1.536315189E1
6.298953500E0,-1.404731931E1,7.342759169E0,-3.662988245E-2,1.585069821E1
6.308944500E0,-1.391115988E1,7.659395252E0,1.833102107E-1,1.588144538E1
6.318936500E0,-1.308832566E1,7.980129649E0,2.694724417E-1,1.533164548E1
6.328927500E0,-1.069556198E1,8.069529483E0,3.996665454E-1,1.340418164E1
6.338919500E0,-7.948245367E0,7.608614523E0,6.611575377E-1,1.102282852E1
6.348910500E0,-7.738703962E0,7.465558299E0,1.003164690E0,1.079946476E1
6.358902500E0,-7.675002056E0,7.300384982E0,1.171401948E0,1.065708497E1
6.368893500E0,-7.358950694E0,7.284088792E0,1.224914496E0,1.042652964E1
6.378885500E0,-7.105551079E0,7.503288043E0,1.195307704E0,1.040273753E1
6.388876500E0,-6.809838672E0,7.870221291E0,1.062788748E0,1.046153936E1
6.398868500E0,-6.636847628E0,8.247629825E0,9.270795500E-1,1.062688198E1
6.408859500E0,-6.434769609E0,8.653049446E0,8.804281247E-1,1.081927347E1
6.418851500E0,-6.177045978E0,8.913209612E0,9.072095418E-1,1.088228982E1
6.428842500E0,-5.726668285E0,8.916557727E0,8.837212765E-1,1.063394069E1
6.438834500E0,-5.885611394E0,7.917211270E0,9.382056320E-1,9.909736908E0
6.448825500E0,-6.113182688E0,7.058144193E0,1.174133767E0,9.411003779E0
6.458817500E0,-6.031915162E0,6.303488508E0,1.426192031E0,8.840361508E0
6.468808500E0,-5.886769727E0,5.775209531E0,1.811204284E0,8.443196309E0
6.478800500E0,-4.768994933E0,2.592580576E0,3.437575743E0,6.425084724E0
6.488791500E0,1.677949748E0,-5.886536424E0,5.426354120E0,8.179984441E0
6.498783500E0,1.987234712E1,-3.411780634E1,-2.148679844E0,3.954177177E1
6.508774500E0,1.975485083E1,-3.421826151E1,-2.061751628E0,3.956506504E1
6.518766500E0,1.984064585E1,-3.416246738E1,-1.829517764E0,3.954835699E1
6.528757500E0,1.989471622E1,-3.412925519E1,-1.707701551E0,3.954139651E1
6.538748500E0,1.992639410E1,-3.409879588E1,-1.761811684E0,3.953344208E1
6.548740500E0,1.993902175E1,-3.407679397E1,-1.913764447E0,3.952790116E1
6.558731500E0,1.391702814E1,-6.571490960E0,-3.430797651E0,1.576827632E1
6.568723500E0,1.195210173E1,-6.441407368E0,-4.639102546E0,1.434802206E1
6.578714500E0,9.957066829E0,-4.987467960E0,-6.493425368E0,1.289118263E1
6.588706500E0,6.589922553E0,-2.709316728E0,-8.248484688E0,1.089976954E1
6.598697500E0,2.627377356E0,-9.875321585E-1,-7.760995302E0,8.252961869E0
6.608689500E0,8.159497082E-2,1.090739608E0,-6.395144198E0,6.488007394E0
6.618680500E0,-1.731348860E0,3.663874683E0,-5.263154238E0,6.642464836E0
6.628672500E0,-3.505154353E0,5.734122316E0,-3.753756328E0,7.697853749E0
6.638663500E0,-4.563973426E0,7.534190578E0,-2.163594337E0,9.070557952E0
6.648655500E0,-5.468200303E0,8.531945423E0,-1.166650500E0,1.020080294E1
6.658646500E0,-5.981803354E0,9.223461120E0,-6.190581697E-1,1.101078741E1
6.668638500E0,-6.353434255E0,9.188355607E0,-6.882511961E-1,1.119221583E1
6.678629500E0,-7.297340922E0,8.958053663E0,-8.317002799E-1,1.158402500E1
6.688621500E0,-8.165198117E0,8.650735703E0,-1.052149666E0,1.194205625E1
6.698612500E0,-9.243811769E0,8.376669104E0,-1.259616551E0,1.253807302E1
6.708604500E0,-1.074950488E1,7.894734573E0,-1.320514718E0,1.340232996E1
6.718595500E0,-1.226949561E1,7.370316512E0,-1.203342363E0,1.436349960E1
6.728587500E0,-1.300517591E1,7.117758311E0,-1.283607677E0,1.488101920E1
6.738578500E0,-1.324739214E1,6.967580178E0,-1.186533372E0,1.501494034E1
6.748570500E0,-1.231322109E1,7.447185178E0,-8.442256737E-1,1.441487765E1
6.758561500E0,-1.052625819E1,8.317568956E0,-4.311046851E-1,1.342273877E1
6.768553500E0,-8.128199276E0,8.197929661E0,-8.569679260E-3,1.154442496E1
6.778544500E0,-7.043643683E0,7.939686797E0,3.109946895E-1,1.061829838E1
6.788535500E0,-7.506182415E0,7.644009474E0,5.658122545E-1,1.072817779E1
6.798527500E0,-7.579697118E0,7.357052688E0,6.778665411E-1,1.058477849E1
6.808518500E0,-7.301708207E0,7.311219288E0,6.529141331E-1,1.035350989E1
6.818510500E0,-6.958700597E0,7.469533821E0,5.490336692E-1,1.022344792E1
6.828501500E0,-6.608432499E0,7.953747597E0,4.090103960E-1,1.034895021E1
6.838493500E0,-6.291952536E0,8.541406803E0,3.092814553E-1,1.061319706E1
6.848484500E0,-5.864150943E0,8.943357856E0,3.577899563E-1,1.070046399E1
6.858476500E0,-5.182266195E0,9.110436780E0,5.294548523E-1,1.049458259E1
6.868467500E0,-5.078618451E0,8.634264681E0,7.254196072E-1,1.004336226E1
6.878459500E0,-5.950201492E0,7.282378482E0,8.429766353E-1,9.441850653E0
6.888450500E0,-5.938231072E0,6.065172955E0,7.720160687E-1,8.523198933E0
6.898442500E0,-5.719127131E0,4.498658273E0,7.542838025E-1,7.315414237E0
6.908433500E0,-4.437273034E0,3.268997008E-1,8.840019429E-1,4.536266618E0
6.918425500E0,6.884453822E0,-1.418456398E1,-2.998406140E-1,1.576982765E1
6.928416500E0,6.651990747E0,-1.436506519E1,-2.121568644E-1,1.583190101E1
6.938408500E0,6.644744877E0,-1.438359151E1,-6.007429361E-2,1.584436645E1
6.948399500E0,6.714748912E0,-1.434413801E1,7.988575660E-2,1.583819844E1
6.958391500E0,6.748057576E0,-1.431919963E1,8.349823952E-2,1.582980515E1
6.968382500E0,6.769665962E0,-1.429112832E1,-2.845715605E-2,1.581346059E1
6.978374500E0,6.776877918E0,-1.427249909E1,-1.786066373E-1,1.580070267E1
6.988365500E0,1.372589202E1,-5.989876020E0,-5.094864939E0,1.581886137E1
6.998357500E0,1.215911772E1,-2.544346309E0,-8.304087031E0,1.494241290E1
7.008348500E0,9.325304414E0,-2.129865258E0,-7.926339358E0,1.242274060E1
7.018339500E0,5.659356308E0,-9.617020833E-1,-6.244153887E0,8.481900877E0
7.028331500E0,2.402893977E0,1.266766527E0,-4.601193877E0,5.343180887E0
7.038322500E0,-2.894254804E-2,4.162846831E0,-3.234466276E0,5.271802680E0
7.048314500E0,-2.375722550E0,6.315385838E0,-1.983869054E0,7.033057112E0
7.058305500E0,-4.361015401E0,7.815301318E0,-7.962141860E-1,8.985062440E0
7.068297500E0,-5.673903011E0,8.399046398E0,-4.162281990E-2,1.013601935E1
7.078288500E0,-6.594845908E0,8.617742788E0,-4.316075456E-1,1.086019191E1
7.088280500E0,-7.418346711E0,8.316721694E0,-6.741477120E-1,1.116486466E1
7.098271500E0,-8.455644522E0,8.115142443E0,-1.067224445E0,1.176828064E1
7.108263500E0,-9.254726767E0,7.825966639E0,-1.244637154E0,1.218379428E1
7.118254500E0,-9.980703614E0,7.677407600E0,-1.094410490E0,1.263941321E1
7.128246500E0,-1.102192900E1,7.409092323E0,-6.703821051E-1,1.329763062E1
7.138237500E0,-1.191151503E1,7.063283896E0,-1.896930313E-1,1.384955426E1
7.148229500E0,-1.223725640E1,7.245322337E0,2.365456009E-1,1.422325890E1
7.158220500E0,-1.208923414E1,7.611067430E0,4.333242150E-1,1.429215517E1
7.168212500E0,-1.156200123E1,7.961510945E0,6.638705727E-1,1.405369179E1
7.178203500E0,-1.002628149E1,8.144859163E0,1.059835904E0,1.296103018E1
7.188195500E0,-7.661447040E0,7.935314834E0,1.603597723E0,1.114623335E1
7.198186500E0,-7.788805245E0,7.585760681E0,2.053859056E0,1.106470014E1
7.208178500E0,-8.667389742E0,7.133678525E0,2.140395509E0,1.142778663E1
7.218169500E0,-8.965953251E0,6.629291271E0,2.013225731E0,1.133088250E1
7.228161500E0,-9.109637466E0,6.456615976E0,2.068624445E0,1.135572947E1
7.238152500E0,-9.175903376E0,6.627219602E0,1.983331110E0,1.149133781E1
7.248144500E0,-9.068146793E0,7.047214578E0,1.883803314E0,1.163800818E1
7.258135500E0,-8.935832489E0,7.490966206E0,1.795019192E0,1.179770193E1
7.268126500E0,-8.660670707E0,7.941440377E0,1.700314178E0,1.187285815E1
7.278117417E0,-8.478456264E0,8.219706447E0,1.698081712E0,1.193026723E1
7.288108417E0,-8.354266666E0,8.085864850E0,1.950507181E0,1.178895501E1
7.298100417E0,-7.732999418E0,7.363091692E0,2.270025941E0,1.091638297E1
7.308091417E0,-6.604749337E0,6.529074088E0,2.303830888E0,9.568655026E0
7.318083417E0,-6.276051033E0,4.732021235E0,2.277222694E0,8.183311355E0
7.328074417E0,-5.986295770E0,3.433245295E0,2.800578901E0,7.447560170E0
7.338066417E0,-3.468852500E0,-5.806331921E-1,5.017141410E0,6.127134771E0
7.348057417E0,7.021920108E0,-1.619973786E1,6.598512697E0,1.884885245E1
7.358049417E0,7.114762782E0,-1.610824999E1,6.557989154E0,1.879102948E1
7.368040417E0,7.228510423E0,-1.601467466E1,6.632794923E0,1.878071180E1
7.378032417E0,7.275320892E0,-1.598848615E1,6.744632277E0,1.881627083E1
7.388023417E0,7.313171089E0,-1.595963832E1,6.774512719E0,1.881718761E1
7.398015417E0,7.342872021E0,-1.592017430E1,6.677509750E0,1.876056650E1
7.408006417E0,7.352874268E0,-1.588796666E1,6.481494709E0,1.866820876E1
7.417998417E0,7.346919463E0,-1.586928247E1,6.213022141E0,1.855836727E1
7.427989417E0,1.480507636E1,-7.854813877E0,-6.728867015E0,1.806006751E1
7.437981417E0,9.504693482E0,-7.512321407E0,-1.356378147E1,1.818654280E1
7.447972417E0,2.739523444E0,-5.679255552E0,-1.763767929E1,1.873090129E1
7.457963417E0,-8.466271251E-1,-2.607245393E0,-9.451718293E0,9.841213579E0
7.467955417E0,-2.451424112E0,1.010642694E0,-6.012517024E0,6.571243398E0
7.477946417E0,-3.378103128E0,4.434542969E0,-4.153769029E0,6.952017637E0
7.487938417E0,-4.720887551E0,6.836679731E0,-2.450831205E0,8.662190405E0
7.497929417E0,-5.976706921E0,7.990824206E0,-1.537675045E0,1.009647174E1
7.507921417E0,-6.874528173E0,8.676445325E0,-1.166071626E0,1.113101811E1
7.517912417E0,-7.402949238E0,9.123898240E0,-8.070672029E-1,1.177711909E1
7.527904417E0,-7.272900145E0,9.211667871E0,-3.146041757E-1,1.174090615E1
7.537895417E0,-7.340744219E0,8.981613264E0,-2.693607599E-1,1.160295039E1
7.547887417E0,-7.402018946E0,8.937327037E0,-3.062713087E-1,1.160859600E1
7.557878417E0,-7.585753080E0,8.864880620E0,-3.158870548E-1,1.167174121E1
7.567870417E0,-7.765914565E0,9.240236782E0,-6.589566457E-1,1.208824341E1
7.577861417E0,-8.247870145E0,9.552286894E0,-8.748644990E-1,1.265064958E1
7.587853417E0,-9.814289517E0,8.765086775E0,-9.703045070E-1,1.319426071E1
7.597844417E0,-1.134241021E1,7.894755623E0,-9.829736692E-1,1.385437379E1
7.607836417E0,-1.200607620E1,7.429985594E0,-7.521595091E-1,1.413917592E1
7.617827417E0,-1.181149724E1,7.212858011E0,-3.599651206E-1,1.384436212E1
7.627819417E0,-9.100055049E0,6.938068696E0,-1.476608972E-1,1.144419516E1
7.637810417E0,-7.730421966E0,7.032521694E0,-1.782593858E-1,1.045215583E1
7.647802417E0,-8.448995653E0,7.090909066E0,-2.106284022E-1,1.103226555E1
7.657793417E0,-8.395667292E0,7.005766590E0,-5.455567321E-2,1.093485122E1
7.667785417E0,-8.413099596E0,6.842906431E0,3.120027129E-1,1.084909945E1
7.677776417E0,-8.638879888E0,6.415855621E0,6.178460419E-1,1.077845920E1
7.687767417E0,-8.532198023E0,6.149635985E0,9.725252795E-1,1.056230237E1
7.697759417E0,-8.402566422E0,5.786405779E0,1.350801541E0,1.029127199E1
7.707750417E0,-7.789249633E0,5.875358886E0,1.534340962E0,9.876560842E0
7.717742417E0,-7.327733579E0,6.181170019E0,1.669845507E0,9.730926278E0
7.727733417E0,-6.938262824E0,6.264669428E0,1.753988110E0,9.511153891E0
7.737725417E0,-6.541886507E0,5.871103867E0,1.948533161E0,9.003494942E0
7.747716417E0,-6.855936951E0,4.711423248E0,2.018637768E0,8.560156479E0
7.757708417E0,-6.635003416E0,3.802990469E0,2.096629100E0,7.929808347E0
7.767699417E0,-5.562390177E0,1.281772821E0,2.328527334E0,6.164832973E0
7.777691417E0,-6.698804140E-2,-6.368231803E0,3.255151970E0,7.152263841E0
7.787682417E0,1.828359781E1,-3.220334842E1,-2.250154763E0,3.709998376E1
7.797674417E0,1.843422092E1,-3.206013139E1,-2.203160691E0,3.704762399E1
7.807665417E0,1.850189776E1,-3.200509272E1,-2.076801192E0,3.702646735E1
7.817657417E0,1.851758584E1,-3.199651369E1,-2.002969569E0,3.702282756E1
7.827648417E0,1.851471720E1,-3.199754748E1,-2.022119200E0,3.702332729E1
7.837640417E0,1.851609714E1,-3.198996247E1,-2.102821301E0,3.702195848E1
7.847631417E0,1.323531647E1,-5.822679566E0,-1.678665447E0,1.455661764E1
7.857623417E0,1.231595174E1,-3.691384079E0,-2.240414472E0,1.305099386E1
7.867614417E0,1.090563724E1,-1.766239781E0,-4.313271132E0,1.185988340E1
7.877605417E0,6.990080849E0,-1.066525118E0,-9.859435869E0,1.213289668E1
7.887597417E0,1.938921508E0,-9.088806760E-1,-1.118176966E1,1.138496611E1
7.897588417E0,-4.816328144E-1,9.101460135E-1,-7.511660087E0,7.581910919E0
7.907580417E0,-1.648067552E0,3.355619999E0,-4.227017684E0,5.643048001E0
7.917571417E0,-3.008217621E0,5.141452045E0,-2.172378024E0,6.340593716E0
7.927563417E0,-4.987874926E0,6.498512446E0,-1.323709636E0,8.298299072E0
7.937554417E0,-6.553364591E0,7.388938140E0,-8.464850378E-1,9.912594575E0
7.947546417E0,-8.298845002E0,7.863299357E0,-3.651176870E-1,1.143833974E1
7.957537417E0,-9.082352019E0,7.789920893E0,-3.223417962E-1,1.196979072E1
7.967529417E0,-9.607484609E0,7.839983584E0,-2.798208074E-1,1.240352381E1
7.977520417E0,-1.020036713E1,7.395911529E0,-3.281860882E-1,1.260375750E1
7.987512417E0,-1.086255495E1,7.044206770E0,3.408109942E-2,1.294670269E1
7.997503417E0,-1.186747614E1,6.616744316E0,2.931653595E-1,1.359059385E1
8.007495417E0,-1.256346321E1,6.274125545E0,4.699155790E-1,1.405083911E1
8.017486417E0,-1.207039558E1,6.469628370E0,6.308093190E-1,1.370942964E1
8.027478417E0,-1.072840345E1,6.935664321E0,6.983154237E-1,1.279412852E1
8.037469417E0,-9.442879642E0,7.439146426E0,8.224214065E-1,1.204928431E1
8.047461417E0,-8.632452629E0,7.769522297E0,7.993167186E-1,1.164146135E1
8.057452417E0,-8.030458973E0,8.007104024E0,7.605099177E-1,1.136575389E1
8.067444417E0,-7.393628776E0,8.195533472E0,7.061051575E-1,1.106033905E1
8.077435417E0,-6.591815296E0,8.177702973E0,7.317720222E-1,1.052911891E1
8.087426417E0,-6.331928195E0,8.164417514E0,8.344573152E-1,1.036568121E1
8.097418417E0,-6.383741543E0,8.174602779E0,9.354001379E-1,1.041399348E1
8.107409417E0,-6.374495341E0,8.233048038E0,1.025515087E0,1.046274113E1
8.117401417E0,-6.214658192E0,8.355091124E0,1.068617252E0,1.046763903E1
8.127392417E0,-6.000629634E0,8.546527210E0,1.095957663E0,1.050008603E1
8.137384417E0,-5.681526026E0,8.760044721E0,1.127635612E0,1.050188952E1
8.147375417E0,-5.325252253E0,8.891044571E0,1.155387594E0,1.042803460E1
8.157367417E0,-5.183727415E0,8.611048896E0,1.166341767E0,1.011837665E1
8.167358417E0,-5.725559653E0,7.565926341E0,1.058300352E0,9.547003424E0
8.177350417E0,-5.746483330E0,6.555388897E0,1.219961904E0,8.802471318E0
8.187341417E0,-5.454899057E0,4.179670440E0,1.964098449E0,7.147254818E0
8.197333417E0,2.014874500E-1,-5.282739487E0,4.160833050E0,6.727589862E0
8.207324417E0,1.757690801E1,-2.634643808E1,-5.791784048E-1,3.167677291E1
8.217316417E0,1.728423264E1,-2.656971050E1,-5.058484733E-1,3.170094789E1
8.227307417E0,1.727445142E1,-2.659101074E1,-2.672669450E-1,3.171056536E1
8.237299417E0,1.733170151E1,-2.656429832E1,-5.760216393E-2,3.171834076E1
8.247290417E0,1.736691344E1,-2.654079953E1,-2.086871266E-2,3.171788388E1
8.257281417E0,1.738931413E1,-2.651299485E1,-1.306442662E-1,3.170716338E1
8.267273417E0,1.385050788E1,-7.663826272E0,-1.041717794E0,1.586366848E1
8.277265625E0,1.290741514E1,-5.518567050E0,-5.197350258E0,1.496891438E1
8.287257625E0,1.156514937E1,-5.040270656E0,-5.447227510E0,1.374151723E1
8.297248625E0,1.020175643E1,-3.636456504E0,-3.740698911E0,1.145829300E1
8.307240625E0,7.467694287E0,-9.523102856E-1,-2.830538864E0,8.042717396E0
8.317231625E0,4.008804274E0,1.057523915E0,-3.107208059E0,5.181081977E0
8.327223625E0,1.166453449E0,3.495118192E0,-3.533657191E0,5.105212823E0
8.337214625E0,-1.454591373E0,5.474445714E0,-3.842697741E0,6.844831471E0
8.347206625E0,-4.238297548E0,6.537190023E0,-3.678078740E0,8.615467643E0
8.357197625E0,-5.765759261E0,7.788129306E0,-2.920019975E0,1.012054616E1
8.367189625E0,-6.501507390E0,8.522225012E0,-1.838050606E0,1.087549298E1
8.377180625E0,-7.017438217E0,8.841285351E0,-1.438198704E0,1.137897980E1
8.387172625E0,-7.874067589E0,8.890968558E0,-1.871884934E0,1.202307014E1
8.397163625E0,-8.866320205E0,8.732019601E0,-2.057202494E0,1.261316306E1
8.407155625E0,-9.489560888E0,8.710001326E0,-2.029748062E0,1.303977631E1
8.417146625E0,-1.030088779E1,8.700876161E0,-1.879758795E0,1.361422155E1
8.427138625E0,-1.089683367E1,8.630999596E0,-1.675994439E0,1.400157475E1
8.437129625E0,-1.160788316E1,8.515394880E0,-1.403131782E0,1.446456637E1
8.447120625E0,-1.238502723E1,8.084486661E0,-1.171453988E0,1.483644596E1
8.457112625E0,-1.305073975E1,7.396379891E0,-9.173971456E-1,1.502896740E1
8.467103625E0,-1.270110666E1,6.698164455E0,-6.240183628E-1,1.437264473E1
8.477095625E0,-9.018596903E0,6.218480517E0,-5.965335256E-1,1.097089068E1
8.487086625E0,-7.264646800E0,6.137151010E0,-6.541297692E-1,9.532449916E0
8.497078625E0,-7.527015460E0,6.249236872E0,-4.964923435E-1,9.795684144E0
8.507069625E0,-8.036841794E0,6.679231755E0,-2.370812058E-1,1.045271115E1
8.517061625E0,-8.021019228E0,7.016033716E0,9.048449278E-2,1.065690696E1
8.527052625E0,-7.985113231E0,7.360849285E0,4.833881485E-1,1.087096130E1
8.537044625E0,-8.165019777E0,7.547407624E0,8.467575181E-1,1.115113932E1
8.547035625E0,-8.513218546E0,7.359735975E0,8.689149570E-1,1.128696668E1
8.557027625E0,-8.596774673E0,7.353660133E0,8.618433344E-1,1.134564348E1
8.567018625E0,-8.356799095E0,7.268000763E0,8.506786609E-1,1.110781618E1
8.577010625E0,-7.458259220E0,6.861158515E0,7.827071178E-1,1.016433752E1
8.587001625E0,-6.427804406E0,6.050015218E0,7.833666837E-1,8.861885633E0
8.596993625E0,-6.642089072E0,4.633229018E0,8.281212723E-1,8.140635308E0
8.606984625E0,-6.407802835E0,3.844329114E0,1.059228963E0,7.547235885E0
8.616976625E0,-5.122270839E0,1.627026347E0,1.229709359E0,5.513352736E0
8.626967625E0,4.574090863E0,-1.046834854E1,2.120249512E0,1.161912588E1
8.636958625E0,4.671923552E0,-1.038438252E1,2.124413899E0,1.158341074E1
8.646950625E0,4.788989487E0,-1.028600545E1,2.118592411E0,1.154230316E1
8.656941625E0,4.793743858E0,-1.027963784E1,2.083809664E0,1.153226764E1
8.666933625E0,4.768560485E0,-1.029457747E1,1.989944311E0,1.151856644E1
8.676924625E0,1.434042035E1,-9.723933663E0,1.057519237E0,1.735859697E1
8.686916625E0,1.214476631E1,-7.813362966E0,-2.811755269E0,1.471223835E1
8.696907625E0,1.215033988E1,-7.809002112E0,-2.963341411E0,1.474424177E1
8.706899625E0,1.438294247E1,-1.043315181E1,-9.301461807E0,2.005584410E1
8.716890625E0,1.009945939E1,-1.006983857E1,-6.621678196E0,1.572410096E1
8.726882625E0,5.997825894E0,-6.741868299E0,-5.991205677E0,1.083149339E1
8.736873625E0,2.701261604E0,-2.982448942E0,-4.743694616E0,6.220486681E0
8.746865625E0,-6.481463134E-2,6.032139695E-1,-3.193594238E0,3.250709490E0
8.756856625E0,-2.241235421E0,3.460897363E0,-1.683654292E0,4.453721875E0
8.766848625E0,-4.601658731E0,5.397893967E0,-2.347546170E-1,7.097015717E0
8.776839625E0,-6.521792550E0,6.635550715E0,3.705830429E-1,9.311371712E0
8.786831625E0,-8.604600586E0,6.960330216E0,2.300493443E-1,1.106970057E1
8.796822625E0,-9.734473270E0,7.345165299E0,-6.157702804E-3,1.219473087E1
8.806813625E0,-9.703250892E0,8.216931943E0,-3.388122332E-1,1.271950636E1
8.816805625E0,-9.764603972E0,8.080339231E0,-4.108282954E-1,1.268101544E1
8.826796625E0,-9.395429487E0,8.217579814E0,-2.826900727E-1,1.248529643E1
8.836788625E0,-9.084233068E0,8.293905274E0,-8.160550495E-2,1.230117127E1
8.846779625E0,-9.463630825E0,8.126820502E0,1.403425312E-1,1.247498360E1
8.856771625E0,-1.002357306E1,7.921661001E0,4.466454148E-2,1.277602148E1
8.866762625E0,-1.054552126E1,8.034692942E0,-6.598582407E-2,1.325777747E1
8.876754625E0,-1.061910730E1,8.569986824E0,-3.893310070E-2,1.364593821E1
8.886745625E0,-1.066980266E1,8.658891984E0,2.104974246E-1,1.374283116E1
8.896737625E0,-1.048922426E1,8.650296577E0,4.938265979E-1,1.360497414E1
8.906728625E0,-8.874027420E0,8.441901811E0,7.299207938E-1,1.226975359E1
8.916720625E0,-6.332286630E0,8.406624389E0,8.090441465E-1,1.055574441E1
8.926711625E0,-6.124347362E0,8.326552618E0,7.665769887E-1,1.036468762E1
8.936703625E0,-6.808623621E0,8.275113493E0,8.120613098E-1,1.074682756E1
8.946694625E0,-7.231539280E0,8.270107691E0,7.829784286E-1,1.101375943E1
8.956686625E0,-7.483789918E0,7.929103337E0,8.293386626E-1,1.093460534E1
8.966677625E0,-7.511041451E0,8.288314167E0,1.013816051E0,1.123119399E1
8.976668625E0,-7.661160527E0,8.723564528E0,1.204998879E0,1.167244537E1
8.986660625E0,-7.648346938E0,9.098104418E0,1.258489354E0,1.195225963E1
8.996651625E0,-7.386084114E0,9.412756541E0,1.298653733E0,1.203497926E1
9.006643625E0,-6.884767233E0,9.234510604E0,1.381087779E0,1.160101760E1
9.016634625E0,-5.909846933E0,8.089351544E0,1.388669279E0,1.011396567E1
9.026626625E0,-6.140573970E0,6.584200467E0,1.524109504E0,9.131333652E0
9.036617625E0,-6.174772580E0,5.594030045E0,1.843222468E0,8.533373168E0
9.046609625E0,-5.322254970E0,3.828517658E0,3.086780226E0,7.246527278E0
9.056600625E0,2.799176738E0,-5.894849410E0,5.009582130E0,8.226819136E0
9.066592625E0,2.624674773E0,-6.034330646E0,4.979080714E0,8.251866987E0
9.076583625E0,2.657061331E0,-6.016814142E0,5.103760893E0,8.325286938E0
9.086575625E0,2.726965964E0,-5.973134857E0,5.249909710E0,8.406915924E0
9.096566625E0,2.721033964E0,-5.979541651E0,5.265515928E0,8.419299388E0
9.106558625E0,1.584975862E1,-1.728107866E1,6.207102420E0,2.425651764E1
9.116549625E0,1.155457058E1,-9.467330359E0,2.000334814E0,1.507115738E1
9.126541625E0,1.038098295E1,-5.775454529E0,-2.690916710E0,1.218038237E1
9.136532625E0,1.055214031E1,-5.178106486E0,-4.419993342E0,1.255773837E1
9.146523625E0,9.051902643E0,-4.211400940E0,-3.752537768E0,1.066556979E1
9.156515625E0,4.211169975E0,-3.602240937E0,-6.708625708E0,8.701479830E0
9.166506625E0,-2.125860500E-1,-1.596055400E0,-1.049563983E1,1.061842931E1
9.176498625E0,-2.842715106E0,1.607110146E0,-9.811898006E0,1.034104321E1
9.186489625E0,-4.173198157E0,4.533572583E0,-5.698252571E0,8.392791287E0
9.196481625E0,-5.109352001E0,6.209420841E0,-2.274118407E0,8.356673955E0
9.206472625E0,-5.972869978E0,7.489730689E0,-1.148763868E0,9.648362555E0
9.216464625E0,-6.608140723E0,8.119047214E0,-1.164287056E0,1.053290159E1
9.226455625E0,-7.075166023E0,8.582823216E0,-1.135874850E0,1.118092305E1
9.236447625E0,-7.360568619E0,8.530932101E0,-8.117636865E-1,1.129662486E1
9.246438625E0,-7.524660786E0,8.681226009E0,-5.228942764E-1,1.150033145E1
9.256430625E0,-7.585450194E0,8.594065073E0,-3.150859863E-1,1.146718310E1
9.266421625E0,-7.554381598E0,8.803918135E0,-3.801561409E-1,1.160698818E1
9.276412750E0,-7.420324239E0,9.623907684E0,-3.730956280E-1,1.215812532E1
9.286403750E0,-7.940791921E0,9.715713648E0,-3.301946068E-1,1.255230244E1
9.296395750E0,-8.746710146E0,9.393769462E0,-3.425673151E-1,1.283998425E1
9.306386750E0,-9.588997468E0,8.869240889E0,-2.791004487E-1,1.306484609E1
9.316377750E0,-1.024763836E1,8.261768977E0,-1.552671472E-2,1.316325035E1
9.326369750E0,-1.038435796E1,7.847537602E0,5.345126939E-1,1.302706569E1
9.336360750E0,-9.425946105E0,7.366409402E0,1.094776525E0,1.201295064E1
9.346352750E0,-7.937600511E0,6.925524665E0,1.580185472E0,1.065201295E1
9.356343750E0,-8.478039358E0,6.376771662E0,1.312619222E0,1.068940304E1
9.366335750E0,-8.787068213E0,6.116538405E0,7.584306479E-1,1.073311823E1
9.376326750E0,-8.755725383E0,5.818280706E0,6.621199894E-1,1.053344769E1
9.386318750E0,-8.627602948E0,5.970370293E0,5.827826285E-1,1.050811542E1
9.396309750E0,-8.321496531E0,6.317823542E0,4.539099956E-1,1.045792681E1
9.406301750E0,-7.774478981E0,6.627861042E0,4.390253234E-1,1.022564466E1
9.416292750E0,-7.002311470E0,6.721296625E0,5.621279240E-1,9.722354758E0
9.426284750E0,-6.325875158E0,6.478286927E0,8.449250007E-1,9.093887852E0
9.436275750E0,-6.803464038E0,5.255594373E0,1.045758147E0,8.660369809E0
9.446267750E0,-6.808295007E0,4.225720187E0,9.891114914E-1,8.073904480E0
9.456258750E0,-6.303744031E0,2.442797715E0,8.740160680E-1,6.816770025E0
9.466249750E0,-3.101125200E0,-2.464311376E0,1.785374794E0,4.344809687E0
9.476241750E0,1.158935216E1,-2.128592319E1,-4.651775801E-1,2.424087457E1
9.486232750E0,1.169257657E1,-2.118689475E1,-4.233056688E-1,2.420289329E1
9.496224750E0,1.180964250E1,-2.108103208E1,-2.848704811E-1,2.416523786E1
9.506215750E0,1.186787492E1,-2.103321121E1,-1.633665276E-1,2.415096515E1
9.516207750E0,1.190797630E1,-2.099934414E1,-1.217658905E-1,2.414098550E1
9.526198750E0,1.193920511E1,-2.096959818E1,-1.549265468E-1,2.413074116E1
9.536190750E0,1.197456556E1,-2.093336416E1,-2.628241392E-1,2.411773273E1
9.546181750E0,1.201707131E1,-2.089174835E1,-4.246727479E-1,2.410509280E1
9.556173750E0,1.280129286E1,-5.380088026E0,-4.146915507E-1,1.389209901E1
9.566164750E0,1.136445889E1,-2.833494632E0,-1.403057522E0,1.179610903E1
9.576156750E0,9.048146977E0,-6.206217152E-1,-1.731230162E0,9.233162671E0
9.586147750E0,5.691962721E0,1.209944454E0,-2.172595541E0,6.211487470E0
9.596139750E0,2.297313142E0,3.421335686E0,-2.790218219E0,4.976796486E0
9.606130750E0,-1.065262120E0,5.358154535E0,-3.368514864E0,6.418060127E0
9.616121750E0,-4.132552407E0,6.526806538E0,-3.672451964E0,8.553601370E0
9.626113750E0,-6.235033400E0,7.328903607E0,-3.846942819E0,1.036279106E1
9.636104750E0,-7.678661243E0,7.930209045E0,-3.249878367E0,1.150703104E1
9.646096750E0,-8.430036056E0,8.494201646E0,-2.225766027E0,1.217255125E1
9.656087750E0,-8.532141890E0,8.778549989E0,-2.329360562E0,1.246139261E1
9.666079750E0,-8.440759850E0,8.698468863E0,-2.199119681E0,1.231851918E1
9.676070750E0,-8.146882299E0,8.764221388E0,-1.789778332E0,1.209903195E1
9.686062750E0,-8.117426366E0,8.627439226E0,-1.409843947E0,1.192950034E1
9.696053750E0,-8.311348103E0,8.416245983E0,-1.037415340E0,1.187383402E1
9.706045750E0,-8.817339249E0,8.398624814E0,-7.407463288E-1,1.219963423E1
9.716036750E0,-9.850249894E0,7.970378247E0,-6.261707228E-1,1.268646689E1
9.726028750E0,-1.109848776E1,7.276055303E0,-7.527769750E-1,1.329225656E1
9.736019750E0,-1.198722712E1,6.898384813E0,-8.298566528E-1,1.385532349E1
9.746011750E0,-1.225827597E1,6.706168708E0,-9.514472365E-1,1.400511622E1
9.756002750E0,-1.136588094E1,6.475610656E0,-1.039522092E0,1.312240028E1
9.765994750E0,-8.690837077E0,6.234603045E0,-1.090224468E0,1.075125637E1
9.775985750E0,-8.326476020E0,6.074065400E0,-1.020722124E0,1.035694680E1
9.785976750E0,-8.219533954E0,6.019093972E0,-1.007603896E0,1.023745556E1
9.795968750E0,-7.529928542E0,6.401045793E0,-9.218082851E-1,9.925872335E0
9.805959750E0,-7.056923295E0,6.828391303E0,-7.767195690E-1,9.850400371E0
9.815951750E0,-6.545493654E0,6.999141694E0,-6.627146512E-1,9.605761934E0
9.825942750E0,-6.391473316E0,6.616708648E0,-5.031149000E-1,9.213299576E0
9.835934750E0,-6.546825065E0,6.266125385E0,-2.150424653E-1,9.064849090E0
9.845925750E0,-6.784975142E0,5.484360253E0,9.414835811E-2,8.724847218E0
9.855917750E0,-6.453608753E0,4.683494607E0,2.321005476E-1,7.977346573E0
9.865908750E0,-6.129572434E0,3.035641063E0,7.781825423E-2,6.840528530E0
9.875900750E0,-3.270937698E0,-1.031028426E0,-2.864527559E-1,3.441527019E0
9.885891750E0,1.565623566E1,-2.296858346E1,-3.292029190E0,2.799126645E1
9.895883750E0,1.575099096E1,-2.289138150E1,-3.175666090E0,2.796772995E1
9.905874750E0,1.581959283E1,-2.283853671E1,-3.080102706E0,2.795255460E1
9.915865750E0,1.582096693E1,-2.283846186E1,-3.062825353E0,2.795137266E1
9.925857750E0,1.893137341E1,-1.635898912E1,3.714903334E0,2.529454350E1
9.935848750E0,1.140441409E1,-8.893212134E0,1.802665011E0,1.457393165E1
9.945840750E0,1.041031960E1,-5.778229617E0,1.221464639E0,1.196890419E1
9.955831750E0,1.130280351E1,-4.455380107E0,-2.829444265E-1,1.215252388E1
9.965823750E0,9.911332247E0,-3.568797203E0,-1.343342832E0,1.061957581E1
9.975814750E0,6.887620674E0,-2.519434832E0,-1.481323673E0,7.482057888E0
9.985806750E0,3.747804447E0,-6.130782223E-1,-1.732663314E0,4.174209535E0
9.995797750E0,7.552246195E-1,1.805986229E0,-2.183504106E0,2.932514394E0
1.000578975E1,-2.419701798E0,3.668361837E0,-2.573708103E0,5.092721154E0
1.001578075E1,-5.037699636E0,5.060115522E0,-3.065156638E0,7.770352111E0
1.002577275E1,-6.317612457E0,6.314436250E0,-2.350098297E0,9.236194796E0
1.003576375E1,-6.995907015E0,7.402638166E0,-1.114389256E0,1.024615197E1
1.004575575E1,-8.131201821E0,8.018135381E0,-4.876408285E-1,1.142999263E1
1.005574675E1,-8.184952936E0,8.579385638E0,-4.981319028E-1,1.186791675E1
1.006573775E1,-8.352547585E0,8.637544969E0,-6.530989051E-1,1.203323616E1
1.007572975E1,-8.351352414E0,8.627067343E0,-8.874699265E-1,1.203989124E1
1.008572075E1,-8.247837986E0,8.680554163E0,-9.096180099E-1,1.200859096E1
1.009571275E1,-8.346958816E0,8.730149662E0,-6.704686439E-1,1.209697329E1
1.010570375E1,-7.794722627E0,9.844889166E0,-3.101585376E-1,1.256088141E1
1.011569575E1,-7.846019665E0,1.063557656E1,-8.050212622E-2,1.321673159E1
1.012568675E1,-8.910346815E0,1.034797892E1,-4.090363065E-2,1.365564430E1
1.013567875E1,-9.989359832E0,9.693701220E0,7.651549459E-2,1.391980631E1
1.014566975E1,-1.070659100E1,9.176957045E0,1.341281104E-1,1.410197226E1
1.015566175E1,-1.071878595E1,9.078132083E0,-7.780772924E-2,1.404674014E1
1.016565275E1,-8.378698672E0,8.912593900E0,-1.560703353E-1,1.223361269E1
1.017564475E1,-6.103473387E0,8.290785200E0,4.005459666E-2,1.029519844E1
1.018563575E1,-6.810770718E0,6.930863172E0,1.702778634E-1,9.718665374E0
1.019562775E1,-6.672902144E0,6.651454557E0,3.425849298E-1,9.427981501E0
1.020561875E1,-6.583185976E0,6.404160604E0,6.180648009E-1,9.205086351E0
1.021560975E1,-6.553031884E0,6.032503976E0,9.543381000E-1,8.957906692E0
1.022560175E1,-6.415957362E0,6.337484804E0,1.088749216E0,9.083699542E0
1.023559275E1,-6.195134924E0,6.512189668E0,1.211322132E0,9.069487985E0
1.024558475E1,-6.328956056E0,6.390393920E0,1.331541982E0,9.092074750E0
1.025557575E1,-6.616991068E0,5.939333273E0,1.417915882E0,9.003928918E0
1.026556775E1,-6.864297885E0,5.112663279E0,1.470719748E0,8.684522315E0
1.027555900E1,-6.758030003E0,4.506860163E0,1.442114876E0,8.249997173E0
1.028555100E1,-6.063846222E0,2.463302146E0,1.614058392E0,6.741162582E0
1.029554200E1,-6.508921659E-1,-4.037397158E0,3.967877272E0,5.698094986E0
1.030553400E1,1.973179876E1,-3.345826381E1,-9.466151706E-1,3.885479867E1
1.031552500E1,1.986888790E1,-3.333862978E1,-8.867267454E-1,3.882039704E1
1.032551700E1,1.992005572E1,-3.330099242E1,-8.138283384E-1,3.881271741E1
1.033550800E1,1.991945462E1,-3.330181571E1,-8.113725809E-1,3.881306387E1
1.034549900E1,1.785124767E1,-1.605075432E1,3.004398805E0,2.419339103E1
1.035549100E1,1.216316165E1,-1.040692821E1,8.094288933E-1,1.602815745E1
1.036548200E1,1.157374360E1,-8.339560334E0,-2.031760089E0,1.440929758E1
1.037547400E1,1.285994160E1,-7.635202398E0,-4.751110640E0,1.569227408E1
1.038546500E1,1.168600430E1,-6.392688367E0,-6.927318006E0,1.501389009E1
1.039545700E1,8.029666091E0,-4.736411909E0,-7.187371752E0,1.177146754E1
1.040544800E1,4.276925424E0,-2.288659848E0,-5.933865541E0,7.664255687E0
1.041544000E1,1.547785465E0,8.643061817E-1,-4.168593475E0,4.529882623E0
1.042543100E1,-7.232847887E-1,3.923612096E0,-2.442436942E0,4.677966543E0
1.043542300E1,-2.270441678E0,6.476825123E0,-9.810704005E-1,6.933012925E0
1.044541400E1,-4.318188640E0,7.559932945E0,3.224435377E-1,8.712250518E0
1.045540600E1,-7.320897015E0,7.060411744E0,7.415918362E-1,1.019778925E1
1.046539700E1,-1.038801832E1,6.208891084E0,2.951797253E-1,1.210571700E1
1.047538800E1,-1.153907546E1,6.160046952E0,-7.511017478E-1,1.310193096E1
1.048538000E1,-1.203409255E1,6.748992546E0,-1.180411922E0,1.384780330E1
1.049537100E1,-1.144207717E1,7.026048242E0,-8.301175117E-1,1.345271642E1
1.050536300E1,-1.016260348E1,7.538045062E0,-6.191102099E-1,1.266822522E1
1.051535400E1,-9.187438179E0,8.173323408E0,-1.145326290E0,1.235006106E1
1.052534600E1,-8.688750206E0,8.570155808E0,-1.266082402E0,1.226967462E1
1.053533700E1,-8.438738467E0,8.550447768E0,-7.573851657E-1,1.203727944E1
1.054532900E1,-8.335475469E0,8.591184150E0,-2.467548211E-1,1.197286450E1
1.055532000E1,-8.297867932E0,9.053507704E0,1.671707626E-1,1.228204218E1
1.056531200E1,-8.417249950E0,9.227540722E0,4.110323632E-1,1.249666164E1
1.057530300E1,-8.370904918E0,9.206441045E0,4.869597010E-1,1.245261963E1
1.058529500E1,-8.076346167E0,9.257442214E0,6.208165006E-1,1.230093561E1
1.059528600E1,-7.483234432E0,9.411066695E0,8.567762104E-1,1.205408808E1
1.060527800E1,-6.429846838E0,9.475259768E0,1.178462022E0,1.151139656E1
1.061526900E1,-6.043027795E0,9.461465601E0,1.387522055E0,1.131206143E1
1.062526000E1,-6.360721639E0,8.894697912E0,1.391484128E0,1.102318732E1
1.063525200E1,-6.506098039E0,8.274828148E0,1.441710541E0,1.062452925E1
1.064524300E1,-6.293745877E0,8.293282546E0,1.625198507E0,1.053712687E1
1.065523500E1,-6.227234969E0,8.007129752E0,1.712798130E0,1.028718910E1
1.066522600E1,-6.132560946E0,7.700667239E0,1.699069891E0,9.989765672E0
1.067521800E1,-6.070831305E0,7.521831903E0,1.562723347E0,9.791580678E0
1.068520900E1,-6.108906035E0,7.221370972E0,1.534170223E0,9.582307130E0
1.069520100E1,-6.187240013E0,6.559665551E0,1.570638138E0,9.153035304E0
1.070519200E1,-6.189842024E0,6.052613720E0,1.683250834E0,8.819388329E0
1.071518400E1,-5.493454428E0,4.054980320E0,2.601807482E0,7.306867258E0
1.072517500E1,2.420815693E0,-6.140432467E0,4.560663317E0,8.022774420E0
1.073516700E1,2.234788865E0,-6.287108703E0,4.506609317E0,8.051803813E0
1.074515800E1,2.234950249E0,-6.294998351E0,4.602873198E0,8.112240660E0
1.075514900E1,2.303150418E0,-6.258498276E0,4.796635891E0,8.214683098E0
1.076514100E1,2.316250520E0,-6.262146939E0,4.913731062E0,8.290009271E0
1.077513200E1,2.323353717E0,-6.254290035E0,4.897900311E0,8.276686764E0
1.078512400E1,2.316370972E0,-6.247297350E0,4.793287776E0,8.207917297E0
1.079511500E1,2.313768961E0,-6.236855977E0,4.675340080E0,8.130848920E0
1.080510700E1,1.342177833E1,-6.895424368E0,-7.322704389E0,1.677238833E1
1.081509800E1,1.291591115E1,-5.948365467E0,-7.854986955E0,1.624514181E1
1.082509000E1,9.309433317E0,-4.767923723E0,-8.582253113E0,1.352973443E1
1.083508100E1,5.771827501E0,-2.594226567E0,-6.032280028E0,8.742562926E0
1.084507300E1,3.259440903E0,2.597227943E-1,-3.459380010E0,4.760117749E0
1.085506400E1,4.019218165E-1,2.876580425E0,-1.950127112E0,3.498464212E0
1.086505600E1,-2.110378243E0,5.121315404E0,-1.124900211E0,5.652164920E0
1.087504700E1,-4.115511281E0,6.900982731E0,-5.646252698E-1,8.054799653E0
1.088503800E1,-5.659344614E0,8.160229738E0,-8.148093184E-2,9.930970244E0
1.089503000E1,-6.693847455E0,8.895000213E0,-2.025434754E-1,1.113416573E1
1.090502100E1,-7.302545528E0,8.800540783E0,-7.001274759E-1,1.145717538E1
1.091501300E1,-8.901587101E0,7.955110583E0,-8.939492261E-1,1.197168253E1
1.092500400E1,-1.078750711E1,7.033935551E0,-9.574458951E-1,1.291368505E1
1.093499600E1,-1.225325204E1,6.535858027E0,-9.999919903E-1,1.392334765E1
1.094498700E1,-1.315250703E1,6.181039041E0,-1.172124006E0,1.457969683E1
1.095497900E1,-1.345724286E1,6.117581549E0,-1.188723155E0,1.483021417E1
1.096497000E1,-1.340255736E1,6.334474073E0,-1.206078275E0,1.487308746E1
1.097496200E1,-1.292750150E1,7.040015486E0,-1.036782086E0,1.475659277E1
1.098495300E1,-1.312073326E1,6.947030139E0,-6.573071462E-1,1.486091928E1
1.099494500E1,-1.243736449E1,6.873034210E0,-2.253932065E-1,1.421187661E1
1.100493600E1,-9.005220228E0,6.808768632E0,2.330384409E-1,1.129192758E1
1.101492700E1,-7.412915232E0,7.319362705E0,4.970606929E-1,1.042935530E1
1.102491900E1,-7.243750606E0,7.691915127E0,4.761294150E-1,1.057658642E1
1.103491000E1,-7.001752476E0,7.974064332E0,3.874224758E-1,1.061886698E1
1.104490200E1,-6.661774893E0,8.363661972E0,5.003415656E-1,1.070422477E1
1.105489300E1,-6.364068586E0,8.703083485E0,6.190751266E-1,1.079945763E1
1.106488500E1,-6.129141494E0,8.963350071E0,7.244863915E-1,1.088268811E1
1.107487600E1,-6.066227793E0,9.150874954E0,7.549000990E-1,1.100488556E1
1.108486800E1,-6.029812503E0,9.331210102E0,7.736462724E-1,1.113681504E1
1.109485900E1,-5.841918075E0,9.448707561E0,7.775463653E-1,1.113600735E1
1.110485100E1,-5.317145673E0,9.377367437E0,7.697859406E-1,1.080738768E1
1.111484200E1,-5.466430351E0,8.392001088E0,7.616875470E-1,1.004428748E1
1.112483400E1,-5.902091771E0,7.165001475E0,7.983916891E-1,9.317154217E0
1.113482500E1,-5.887411752E0,6.504050344E0,9.157874072E-1,8.820598312E0
1.114481600E1,-5.818498807E0,4.629596727E0,1.139824644E0,7.522452688E0
1.115480800E1,-3.478239035E0,-1.441409994E0,1.765408891E0,4.158422551E0
1.116479900E1,1.588923317E1,-2.304159413E1,4.479072440E-1,2.799255994E1
1.117479100E1,1.557413140E1,-2.328816888E1,5.256167765E-1,2.802086100E1
1.118478200E1,1.557263802E1,-2.329898389E1,6.841277397E-1,2.803244078E1
1.119477400E1,1.561598693E1,-2.327112074E1,7.738030509E-1,2.803574289E1
1.120476500E1,1.563324207E1,-2.325189041E1,7.030037943E-1,2.802753788E1
1.121475700E1,1.100713905E1,-1.253805588E1,3.047858820E0,1.696022992E1
1.122474800E1,1.239489967E1,-8.039373053E0,-2.141179036E0,1.492815142E1
1.123474000E1,1.296211468E1,-6.104299598E0,-5.068989841E0,1.519781394E1
1.124473100E1,1.046366258E1,-4.539604570E0,-5.283362800E0,1.257020949E1
1.125472200E1,6.894530329E0,-2.663650559E0,-6.758766167E0,1.001551311E1
1.126471400E1,3.948080354E0,-1.521872360E-1,-7.744922476E0,8.694499617E0
1.127470488E1,6.679748064E-1,2.527142631E0,-6.673241867E0,7.166923834E0
1.128469688E1,-2.490689335E0,4.680197947E0,-5.609431611E0,7.718387732E0
1.129468788E1,-4.293105254E0,6.688407791E0,-4.261848378E0,9.018253883E0
1.130467988E1,-5.703769419E0,7.700230452E0,-3.092742047E0,1.006933900E1
1.131467087E1,-6.523389425E0,8.108692380E0,-2.472557119E0,1.069668362E1
1.132466287E1,-7.001684648E0,8.683543260E0,-2.102992625E0,1.135121533E1
1.133465387E1,-7.146608473E0,8.740629042E0,-1.955968480E0,1.145855233E1
1.134464588E1,-7.577954648E0,8.839748703E0,-1.686226482E0,1.176477427E1
1.135463688E1,-7.768365718E0,9.013268920E0,-1.571724551E0,1.200236813E1
1.136462888E1,-7.554512576E0,9.638973620E0,-1.440745166E0,1.233110779E1
1.137461988E1,-8.019291961E0,9.681360086E0,-1.504132492E0,1.266097118E1
1.138461088E1,-8.989911048E0,9.115774119E0,-1.764436499E0,1.292397286E1
1.139460287E1,-9.711442257E0,8.563777665E0,-1.904852706E0,1.308735506E1
1.140459387E1,-1.000568175E1,8.304512708E0,-1.771787034E0,1.312317903E1
1.141458587E1,-1.010428802E1,8.085193589E0,-1.378456532E0,1.301411289E1
1.142457687E1,-9.825513833E0,7.678500445E0,-4.500262749E-1,1.247808538E1
1.143456888E1,-7.825465533E0,7.278343903E0,8.042143464E-1,1.071722732E1
1.144455988E1,-7.104492733E0,6.839817932E0,1.394221795E0,9.959958873E0
1.145455188E1,-7.318509012E0,6.626645406E0,1.269515887E0,9.954128494E0
1.146454288E1,-7.751647359E0,6.368150527E0,9.192091978E-1,1.007404206E1
1.147453488E1,-7.916930019E0,6.241220339E0,8.674847281E-1,1.011845551E1
1.148452587E1,-7.956401063E0,6.315625573E0,9.187975538E-1,1.019978594E1
1.149451787E1,-7.940341101E0,6.501929559E0,9.690403390E-1,1.030840162E1
1.150450887E1,-7.895146217E0,6.761347713E0,1.035893894E0,1.044615876E1
1.151449988E1,-7.784177173E0,7.119500781E0,1.198002101E0,1.061677515E1
1.152449188E1,-7.437820863E0,7.270964132E0,1.414684711E0,1.049711539E1
1.153448288E1,-6.731456162E0,7.008480867E0,1.650961339E0,9.856824005E0
1.154447488E1,-6.179804694E0,6.422144886E0,1.693834294E0,9.072100397E0
1.155446588E1,-6.583578324E0,5.163719997E0,1.627319877E0,8.523829992E0
1.156445787E1,-6.360447990E0,4.100738291E0,2.133212789E0,7.862693557E0
1.157444887E1,-4.461650661E0,1.120350493E0,3.807200464E0,5.971288573E0
1.158444087E1,9.242200277E0,-1.537025770E1,3.851401906E0,1.834383777E1
1.159443187E1,9.393706897E0,-1.522663605E1,3.819754436E0,1.829433515E1
1.160442388E1,9.527561358E0,-1.511253114E1,3.921852669E0,1.829054267E1
1.161441488E1,9.577148670E0,-1.507873541E1,4.048740757E0,1.831617700E1
1.162440688E1,9.588685226E0,-1.507534285E1,4.122595768E0,1.833588401E1
1.163439788E1,9.593202785E0,-1.507158894E1,4.124443488E0,1.833557654E1
1.164438888E1,9.598960539E0,-1.506076691E1,4.060526404E0,1.831542023E1
1.165438087E1,9.592021063E0,-1.505708901E1,3.936553738E0,1.828166439E1
1.166437187E1,1.552026685E1,-9.040904616E0,1.654294252E-2,1.796153982E1
1.167436387E1,1.120125492E1,-5.283318361E0,-2.591807574E0,1.265302458E1
1.168435488E1,6.458383589E0,-1.878647824E0,-4.517197455E0,8.102166937E0
1.169434688E1,9.316830629E-1,7.619348842E-1,-6.167445434E0,6.283785585E0
1.170433788E1,-3.338158459E0,2.309357237E0,-6.482914998E0,7.648831258E0
1.171432988E1,-4.347835193E0,4.037978371E0,-5.272727884E0,7.937921613E0
1.172432088E1,-4.814746472E0,5.627038747E0,-3.509935622E0,8.195425353E0
1.173431287E1,-5.343293837E0,6.980163386E0,-2.213543007E0,9.064945812E0
1.174430387E1,-6.168259951E0,7.780405719E0,-1.557553239E0,1.005027940E1
1.175429487E1,-7.204140397E0,8.300277570E0,-1.390705864E0,1.107828098E1
1.176428687E1,-7.640877120E0,8.670249615E0,-1.141633773E0,1.161290486E1
1.177427788E1,-7.626345035E0,8.849120035E0,-7.172826219E-1,1.170395482E1
1.178426988E1,-7.768596098E0,8.758707463E0,-7.382834816E-1,1.173077594E1
1.179426088E1,-7.805714808E0,8.722803220E0,-8.099873024E-1,1.173339504E1
1.180425288E1,-7.784844925E0,8.722179322E0,-8.497068536E-1,1.172186949E1
1.181424388E1,-8.062144450E0,8.609410506E0,-8.121993041E-1,1.182285034E1
1.182423587E1,-8.329787883E0,8.461784098E0,-7.648970836E-1,1.189841266E1
1.183422687E1,-8.492699497E0,8.582251943E0,-6.635934877E-1,1.209220201E1
1.184421887E1,-9.243486664E0,8.076835579E0,-5.864921021E-1,1.228907204E1
1.185420988E1,-1.033137868E1,7.291557441E0,-4.040811932E-1,1.265177762E1
1.186420188E1,-1.102760548E1,6.783554853E0,-2.193033314E-1,1.294885296E1
1.187419288E1,-1.062678352E1,6.557041320E0,-1.482105263E-1,1.248780546E1
1.188418388E1,-8.914672585E0,6.603392783E0,-2.865106434E-1,1.109766966E1
1.189417588E1,-9.179673661E0,6.577284381E0,-4.368454814E-1,1.130123499E1
1.190416687E1,-9.541056731E0,6.524906777E0,-4.483761907E-1,1.156750678E1
1.191415887E1,-9.564574817E0,6.476367871E0,-1.190352774E-1,1.155156274E1
1.192414987E1,-9.728608512E0,6.349387397E0,4.437276542E-1,1.162572312E1
1.193414187E1,-9.605074387E0,6.333544950E0,8.966529787E-1,1.154015737E1
1.194413288E1,-9.015179790E0,6.473952386E0,1.096625415E0,1.115294192E1
1.195412488E1,-7.627023312E0,6.537098222E0,1.079256846E0,1.010296655E1
1.196411588E1,-7.115351597E0,5.830038872E0,8.608399522E-1,9.238973267E0
1.197410788E1,-7.258566281E0,3.831725441E0,6.387007213E-1,8.232669246E0
1.198409888E1,-6.489620000E0,2.377298959E0,1.115796096E0,7.000837023E0
1.199408987E1,-1.807784248E0,-4.057548417E0,2.592233251E0,5.143097926E0
1.200408187E1,1.856659603E1,-3.006443225E1,-1.276588680E0,3.535842550E1
1.201407287E1,1.872176476E1,-2.991629421E1,-1.180859234E0,3.531123849E1
1.202406488E1,1.880717154E1,-2.984527627E1,-1.041017225E0,3.529212283E1
1.203405588E1,1.883515631E1,-2.982439937E1,-9.804272068E-1,3.528766284E1
1.204404788E1,1.884659697E1,-2.980826807E1,-1.038031636E0,3.528178812E1
1.205403888E1,1.887870403E1,-2.976767670E1,-1.171372712E0,3.526885533E1
1.206403088E1,1.891571106E1,-2.972481661E1,-1.316619887E0,3.525765641E1
1.207402187E1,1.893702533E1,-2.970095530E1,-1.419651335E0,3.525298688E1
1.208401387E1,1.667803309E1,-7.626487123E0,-5.720264415E0,1.921045336E1
1.209400487E1,1.018366398E1,-2.415317556E0,-6.628794258E0,1.238877251E1
1.210399587E1,5.646512314E0,7.485915381E-1,-7.327593831E0,9.281008671E0
1.211398788E1,1.246776651E0,2.203275297E0,-6.958861395E0,7.405040578E0
1.212397888E1,-8.967699230E-1,3.344947076E0,-5.942391951E0,6.877854996E0
1.213397088E1,-1.830538688E0,4.905801069E0,-4.198410766E0,6.711513166E0
1.214396188E1,-3.248869722E0,6.207937987E0,-2.470523458E0,7.429477416E0
1.215395388E1,-5.042093233E0,7.387044227E0,-1.713430068E0,9.106424610E0
1.216394487E1,-6.771213135E0,7.742128676E0,-1.403762696E0,1.038077230E1
1.217393687E1,-8.633465951E0,7.966941254E0,-1.145129238E0,1.180339817E1
1.218392787E1,-9.508793550E0,7.675729449E0,-9.223047137E-1,1.225498361E1
1.219391988E1,-1.019764701E1,7.603695261E0,-4.908755447E-1,1.272985251E1
1.220391088E1,-1.065581846E1,7.267402008E0,-4.485118826E-1,1.290591964E1
1.221390188E1,-1.046642597E1,7.440574316E0,-5.336841434E-1,1.285274436E1
1.222389388E1,-1.007916371E1,7.710929688E0,-5.195712672E-1,1.270109964E1
1.223388488E1,-9.693428739E0,7.838820573E0,-5.355687010E-1,1.247784046E1
1.224387687E1,-9.444256661E0,7.842800773E0,-2.082251966E-1,1.227790151E1
1.225386787E1,-9.533444826E0,7.705050897E0,2.558542764E-1,1.226049921E1
1.226385987E1,-9.662293485E0,7.869633061E0,5.111530674E-1,1.247206147E1
1.227385163E1,-1.007925726E1,7.803292891E0,6.371044314E-1,1.276278610E1
1.228384363E1,-1.073868636E1,7.249031226E0,7.890150940E-1,1.298038456E1
1.229383463E1,-1.026176524E1,6.750222216E0,8.627286029E-1,1.231314852E1
1.230382663E1,-8.009715976E0,6.539374543E0,7.858774781E-1,1.036998423E1
1.231381762E1,-7.497754823E0,6.625367789E0,7.072371054E-1,1.003055383E1
1.232380962E1,-7.643044683E0,6.719460599E0,6.085863912E-1,1.019498211E1
1.233380062E1,-7.614100966E0,6.981295992E0,4.993604028E-1,1.034226223E1
1.234379163E1,-7.470362372E0,7.391761760E0,5.312826920E-1,1.052267633E1
1.235378363E1,-7.344713309E0,7.769619361E0,6.386890268E-1,1.071072931E1
1.236377463E1,-7.233230880E0,8.053225107E0,7.654379511E-1,1.085172608E1
1.237376663E1,-7.028335088E0,8.062171347E0,9.192711782E-1,1.073504357E1
1.238375763E1,-6.907417592E0,7.013251026E0,1.060144637E0,9.900606769E0
1.239374963E1,-7.037862541E0,6.441432511E0,9.818866718E-1,9.591019934E0
1.240374062E1,-7.130953138E0,5.452913927E0,9.972239184E-1,9.032121484E0
1.241373262E1,-6.869969684E0,4.478867202E0,1.345223297E0,8.310617341E0
1.242372362E1,-5.233059788E0,1.163300046E0,3.601511790E0,6.458255873E0
1.243371563E1,6.965597388E0,-1.124383083E1,5.213575112E0,1.421705470E1
1.244370663E1,6.796902292E0,-1.140490408E1,5.210688926E0,1.426257330E1
1.245369763E1,6.873046489E0,-1.134528003E1,5.400507088E0,1.432199789E1
1.246368963E1,6.975261666E0,-1.126812485E1,5.595269655E0,1.438512966E1
1.247368063E1,7.051191854E0,-1.120697817E1,5.672181591E0,1.440448924E1
1.248367262E1,7.111593592E0,-1.115001577E1,5.655308865E0,1.438332831E1
1.249366362E1,7.170986100E0,-1.108673252E1,5.565450025E0,1.432874431E1
1.250365562E1,7.209211103E0,-1.103534602E1,5.376563909E0,1.423583598E1
1.251364663E1,7.219082957E0,-1.101030240E1,5.116242360E0,1.412507888E1
1.252363863E1,1.387303837E1,-3.995014200E0,-6.608430744E0,1.587742702E1
1.253362963E1,9.393402257E0,-2.682599630E0,-1.119426048E1,1.485744979E1
1.254362163E1,4.756814598E0,-1.304881017E0,-1.012697522E1,1.126435203E1
1.255361263E1,2.341543236E0,1.356555201E0,-6.412750164E0,6.960347075E0
1.256360362E1,4.270473021E-1,3.634375480E0,-3.242392176E0,4.889188231E0
1.257359562E1,-1.672704211E0,5.302332922E0,-1.376994728E0,5.727895623E0
1.258358662E1,-4.382941875E0,6.017350917E0,-2.952721113E-1,7.450226652E0
1.259357862E1,-6.786720536E0,6.243820596E0,-7.146641473E-2,9.222254535E0
1.260356963E1,-8.740277624E0,6.722595876E0,-6.013346744E-1,1.104297748E1
1.261356163E1,-9.742714335E0,7.080794553E0,-9.041081786E-1,1.207789492E1
1.262355263E1,-1.000467252E1,7.575963086E0,-8.361728883E-1,1.257727610E1
1.263354463E1,-1.012220623E1,7.596698483E0,-4.063639462E-1,1.266230700E1
1.264353563E1,-1.009801630E1,7.736052834E0,-1.039781123E-1,1.272113431E1
1.265352762E1,-1.033336673E1,7.675858673E0,-1.258741808E-1,1.287296076E1
1.266351862E1,-1.076598468E1,7.460781124E0,-1.685565162E-1,1.309954550E1
1.267350962E1,-1.071307205E1,8.183273031E0,-2.176251439E-1,1.348270118E1
1.268350162E1,-1.070595131E1,8.732926505E0,-1.452822407E-1,1.381674729E1
1.269349263E1,-1.020798956E1,9.047511969E0,1.159795225E-1,1.364089348E1
1.270348463E1,-9.525165169E0,9.371744170E0,4.145500481E-1,1.336900191E1
1.271347563E1,-8.366918287E0,9.284945762E0,6.880196464E-1,1.251754411E1
1.272346763E1,-6.290311807E0,9.078995717E0,9.473155940E-1,1.108573826E1
1.273345862E1,-6.074182345E0,8.737447572E0,1.001211720E0,1.068836312E1
1.274345062E1,-6.676777679E0,8.342502068E0,9.536504674E-1,1.072782131E1
1.275344162E1,-6.892497836E0,8.171538253E0,8.304834744E-1,1.072241888E1
1.276343362E1,-7.185722837E0,7.760319949E0,7.253459322E-1,1.060109924E1
1.277342463E1,-7.401768685E0,7.253306710E0,7.448007882E-1,1.038996468E1
1.278341563E1,-7.375826343E0,7.272158718E0,9.816282248E-1,1.040435969E1
1.279340763E1,-7.454915782E0,7.292330443E0,1.232833965E0,1.050113004E1
1.280339863E1,-7.027354510E0,7.146058835E0,1.463174500E0,1.012870909E1
1.281339063E1,-6.485584837E0,6.950028591E0,1.521384702E0,9.627061831E0
1.282338162E1,-6.745367272E0,6.212637395E0,1.407686763E0,9.277845928E0
1.283337362E1,-6.697808359E0,5.472474618E0,1.378685743E0,8.758389672E0
1.284336462E1,-6.478658225E0,5.161137282E0,1.276313860E0,8.380890615E0
1.285335662E1,-5.697432792E0,3.086484942E0,1.688216289E0,6.696058837E0
1.286334763E1,3.473222124E0,-6.850304913E0,3.827484455E0,8.581351093E0
1.287333963E1,3.274269442E0,-7.017914765E0,3.816019235E0,8.633305904E0
1.288333063E1,3.271464533E0,-7.029703921E0,3.907611190E0,8.682663337E0
1.289332163E1,3.331347038E0,-6.989686162E0,4.010799344E0,8.720097310E0
1.290331363E1,3.347349113E0,-6.975623024E0,4.008065186E0,8.713704676E0
1.291330462E1,3.358969284E0,-6.952542894E0,3.891702086E0,8.646726113E0
1.292329662E1,3.373516572E0,-6.922423886E0,3.698353375E0,8.542738683E0
1.293328762E1,3.385427350E0,-6.902762039E0,3.560045675E0,8.472494752E0
1.294327963E1,1.638632953E1,-6.303302566E0,-2.339418591E1,2.924946757E1
1.295327063E1,1.123737668E1,-7.520091771E0,-1.328319581E1,1.895451677E1
1.296326263E1,7.562202834E0,-8.425913769E0,-6.045838552E0,1.283491715E1
1.297325363E1,4.540815529E0,-6.325359433E0,-3.708100684E0,8.624336978E0
1.298324563E1,1.420412058E0,-2.631489703E0,-2.688866676E0,4.021481378E0
1.299323662E1,-1.260572571E0,7.923491764E-1,-1.516491752E0,2.125231201E0
1.300322762E1,-3.197154023E0,3.490943865E0,-5.791819131E-1,4.769060139E0
1.301321962E1,-5.095558419E0,5.558064991E0,1.486116727E-1,7.541809297E0
1.302321063E1,-6.833063228E0,6.840949368E0,4.673738309E-1,9.680277870E0
1.303320263E1,-8.207906181E0,7.363303946E0,1.233987036E0,1.109552580E1
1.304319363E1,-9.006251092E0,7.683431987E0,1.692412251E0,1.195876018E1
1.305318563E1,-9.797527304E0,7.514025285E0,1.801431248E0,1.247787129E1
1.306317663E1,-1.054392029E1,7.196243148E0,2.103913561E0,1.293779822E1
1.307316863E1,-1.135633594E1,6.882828296E0,2.030366113E0,1.343361745E1
1.308315962E1,-1.236845155E1,6.417477053E0,2.128378311E0,1.409583625E1
1.309315162E1,-1.352589151E1,6.072830468E0,2.327822160E0,1.500825663E1
1.310314262E1,-1.348496217E1,6.422116234E0,2.367237071E0,1.512255247E1
1.311313363E1,-1.192162136E1,8.300464681E0,2.039504142E0,1.466909496E1
1.312312563E1,-1.099969905E1,9.487676915E0,1.477973803E0,1.460115746E1
1.313311663E1,-9.965449398E0,1.003397409E1,1.185386149E0,1.419140437E1
1.314310863E1,-8.780288367E0,1.012770729E1,1.140944971E0,1.345234828E1
1.315309963E1,-7.271557040E0,1.001039811E1,1.109442439E0,1.242233773E1
1.316309162E1,-6.507626501E0,9.844415542E0,1.162879046E0,1.185807774E1
1.317308262E1,-6.302157097E0,9.784569290E0,1.211344278E0,1.170138177E1
1.318307462E1,-6.060344324E0,9.740320485E0,1.210167818E0,1.153542902E1
1.319306562E1,-5.811571611E0,9.441237743E0,1.152432411E0,1.114627450E1
1.320305763E1,-5.625886846E0,9.025247526E0,1.038189511E0,1.068566952E1
1.321304863E1,-6.125966456E0,7.877681753E0,9.495246720E-1,1.002431703E1
1.322303963E1,-6.265446523E0,7.227934472E0,1.065973141E0,9.624715871E0
1.323303163E1,-6.057794353E0,7.134558531E0,1.437764840E0,9.469211456E0
1.324302262E1,-5.882907057E0,6.915979085E0,1.971610951E0,9.291211540E0
1.325301462E1,-5.630322543E0,6.842210612E0,2.395532917E0,9.179049840E0
1.326300562E1,-5.471306929E0,6.816185240E0,2.622860967E0,9.125512610E0
1.327299762E1,-5.270399523E0,6.467605818E0,3.083512802E0,8.894666230E0
1.328298804E1,-4.701283591E0,4.900564887E0,4.135756681E0,7.951231788E0
1.329298004E1,2.381783774E0,-4.399363781E0,4.718718234E0,6.877034055E0
1.330297104E1,1.945301054E1,-2.740582492E1,-2.093920670E0,3.367318462E1
1.331296304E1,1.926980558E1,-2.755967686E1,-1.998357285E0,3.368760347E1
1.332295404E1,1.930469474E1,-2.754519447E1,-1.863589489E0,3.368800890E1
1.333294504E1,1.935454109E1,-2.751442876E1,-1.783778504E0,3.368714765E1
1.334293704E1,1.938671481E1,-2.748087042E1,-1.852192097E0,3.368194718E1
1.335292804E1,1.940790278E1,-2.744603973E1,-2.033721246E0,3.367622023E1
1.336292004E1,1.942452290E1,-2.741828417E1,-2.230512797E0,3.367565269E1
1.337291104E1,1.396147984E1,-7.550766850E0,-6.473813807E0,1.714197377E1
1.338290304E1,1.302675214E1,-7.331457086E0,-6.236008716E0,1.619673853E1
1.339289404E1,6.420939775E0,-7.011861727E0,-1.626151370E1,1.883697163E1
1.340288604E1,1.693358915E0,-4.233899857E0,-2.097399529E1,2.146396634E1
1.341287704E1,7.121160221E-1,-9.861574781E-1,-1.088723137E1,1.095497251E1
1.342286804E1,1.619327903E-2,1.716977574E0,-5.438912185E0,5.703511196E0
1.343286004E1,-9.906639272E-1,3.946853608E0,-3.447783228E0,5.333505190E0
1.344285104E1,-2.591825700E0,6.007932807E0,-2.409373861E0,6.972653689E0
1.345284304E1,-4.509392007E0,7.339500516E0,-2.774504412E0,9.049903802E0
1.346283404E1,-5.967097022E0,8.283752169E0,-2.424843839E0,1.049317228E1
1.347282604E1,-6.620865433E0,8.870606214E0,-1.385334612E0,1.115538729E1
1.348281704E1,-7.008500163E0,8.902030905E0,-1.245844604E0,1.139812956E1
1.349280904E1,-7.098060796E0,9.383497658E0,-1.309503241E0,1.183838224E1
1.350280004E1,-7.236496550E0,9.862012153E0,-1.309057683E0,1.230202414E1
1.351279204E1,-7.800227780E0,9.928656378E0,-8.607785565E-1,1.265554071E1
1.352278304E1,-9.037581058E0,9.464276943E0,-9.787420392E-2,1.308663397E1
1.353277404E1,-1.064088467E1,8.729422268E0,6.442462206E-1,1.377847208E1
1.354276604E1,-1.193951150E1,8.033134074E0,1.029024585E0,1.442712964E1
1.355275704E1,-1.235126073E1,7.505743874E0,1.363571860E0,1.451720225E1
1.356274904E1,-1.247877213E1,7.310100131E0,1.631377845E0,1.455399298E1
1.357274004E1,-1.238568914E1,6.941491072E0,2.001094952E0,1.433854856E1
1.358273204E1,-1.008397480E1,6.464175841E0,1.708452333E0,1.209921181E1
1.359272304E1,-8.526645507E0,6.208910379E0,1.241614144E0,1.062053941E1
1.360271504E1,-9.220335783E0,5.813335131E0,1.167009519E0,1.096227023E1
1.361270604E1,-9.387802963E0,5.296720179E0,1.058183481E0,1.083078212E1
1.362269704E1,-9.116100394E0,5.389469883E0,9.682766926E-1,1.063424806E1
1.363268904E1,-8.840846225E0,5.694565317E0,7.948365819E-1,1.054610835E1
1.364268004E1,-8.329939910E0,6.143744915E0,6.610604739E-1,1.037162000E1
1.365267204E1,-7.751584793E0,6.513288944E0,7.637644780E-1,1.015348885E1
1.366266304E1,-7.213432208E0,6.393955459E0,1.272296823E0,9.722911592E0
1.367265504E1,-6.593850712E0,5.727638338E0,1.791847662E0,8.916020760E0
1.368264604E1,-6.749662052E0,4.516822649E0,1.985546036E0,8.360742654E0
1.369263804E1,-6.690442622E0,4.381525095E0,2.245613816E0,8.306778319E0
1.370262904E1,-6.204426150E0,3.685588903E0,2.731098776E0,7.716046263E0
1.371262104E1,-4.512417356E0,8.383404511E-1,3.664798543E0,5.873284726E0
1.372261204E1,5.070642849E0,-1.294305509E1,2.802472229E0,1.418054811E1
1.373260304E1,3.414436674E1,-3.862503664E1,-3.980364586E0,5.170661986E1
1.374259504E1,3.429229661E1,-3.849786203E1,-3.827007322E0,5.169809448E1
1.375258604E1,3.434523029E1,-3.846520183E1,-3.647208949E0,5.169592564E1
1.376257804E1,3.437117321E1,-3.845274960E1,-3.542903978E0,5.169665045E1
1.377256904E1,3.438832193E1,-3.843615988E1,-3.555825155E0,5.169660495E1
1.378256104E1,3.439958133E1,-3.841453453E1,-3.674066380E0,5.169629022E1
1.379255204E1,3.439961875E1,-3.839996093E1,-3.860548121E0,5.169907738E1
1.380254404E1,1.536973613E1,-8.149573773E0,-1.538262105E0,1.746455243E1
1.381253504E1,1.291957267E1,-8.353825201E0,-2.062302436E0,1.552272028E1
1.382252604E1,8.329801916E0,-7.271466992E0,-7.142546997E0,1.316342698E1
1.383251804E1,3.257586166E0,-4.878116257E0,-1.063598236E1,1.214627542E1
1.384250904E1,-9.638731545E-1,-1.645780706E0,-1.049340268E1,1.066532444E1
1.385250104E1,-3.165297807E0,1.855706858E0,-7.336813136E0,8.203144832E0
1.386249204E1,-4.834197820E0,4.610374591E0,-4.423991084E0,8.012285538E0
1.387248404E1,-6.399705611E0,6.331929365E0,-2.889448977E0,9.455076773E0
1.388247504E1,-8.082240745E0,6.996362513E0,-2.280183724E0,1.093027638E1
1.389246704E1,-1.046669845E1,7.011027330E0,-1.960773722E0,1.274954565E1
1.390245804E1,-1.140663954E1,7.238192827E0,-1.670780477E0,1.361228740E1
1.391245004E1,-1.146943045E1,7.171952060E0,-1.668998246E0,1.362975738E1
1.392244104E1,-1.143422904E1,7.108229688E0,-1.519752159E0,1.354910217E1
1.393243204E1,-1.095756519E1,7.282750365E0,-1.139322369E0,1.320623880E1
1.394242404E1,-9.850859174E0,7.694472699E0,-8.604306471E-1,1.252935264E1
1.395241504E1,-8.684237909E0,8.173697045E0,-7.053484547E-1,1.194666597E1
1.396240704E1,-8.013295641E0,8.368809276E0,-6.414302015E-1,1.160436592E1
1.397239804E1,-7.771143730E0,8.393959905E0,-4.394346285E-1,1.144737265E1
1.398239004E1,-7.939125465E0,8.211945437E0,-3.124751679E-1,1.142643434E1
1.399238104E1,-8.256969582E0,8.048332742E0,-1.070963594E-1,1.153103101E1
1.400237304E1,-8.583563474E0,7.896910906E0,2.450404723E-1,1.166613940E1
1.401236404E1,-8.727051222E0,7.639610029E0,8.125033593E-1,1.162691817E1
1.402235504E1,-7.703987288E0,7.425151700E0,1.272142457E0,1.077509370E1
1.403234704E1,-6.731128718E0,7.353354324E0,1.371720539E0,1.006287886E1
1.404233804E1,-7.224488708E0,7.139826872E0,1.297644503E0,1.023983623E1
1.405233004E1,-7.316996922E0,6.916750917E0,1.229139694E0,1.014350391E1
1.406232104E1,-7.145044928E0,7.066864731E0,1.285534920E0,1.013137918E1
1.407231304E1,-7.161916484E0,7.112496986E0,1.318643024E0,1.017936543E1
1.408230404E1,-7.071336097E0,7.245269127E0,1.389949819E0,1.021908408E1
1.409229604E1,-6.840129588E0,7.396154773E0,1.423277779E0,1.017429102E1
1.410228704E1,-6.601007704E0,7.282093138E0,1.520736830E0,9.945593179E0
1.411227904E1,-6.550852627E0,6.918755928E0,1.821705884E0,9.700591016E0
1.412227004E1,-6.742092247E0,5.754681126E0,1.868469576E0,9.058881900E0
1.413226104E1,-6.886379310E0,4.588500742E0,1.306672604E0,8.377586308E0
1.414225304E1,-6.091099509E0,2.930497016E0,1.240454056E0,6.872265438E0
1.415224404E1,-1.142107397E-1,-3.069392946E0,2.579840662E0,4.011208670E0
1.416223604E1,1.691686144E1,-2.434070044E1,-1.307215226E0,2.967083940E1
1.417222704E1,1.693810671E1,-2.432807513E1,-1.254797130E0,2.967034234E1
1.418221904E1,1.701572967E1,-2.427360481E1,-1.144267286E0,2.966567536E1
1.419221004E1,1.704479033E1,-2.425588307E1,-1.090223883E0,2.966582763E1
1.420220204E1,1.706428963E1,-2.423370341E1,-1.123367071E0,2.966014692E1
1.421219304E1,1.708406608E1,-2.420316691E1,-1.216916821E0,2.965028649E1
1.422218404E1,1.710631006E1,-2.416899111E1,-1.334423490E0,2.964028780E1
1.423217604E1,1.711378280E1,-2.414534730E1,-1.495065361E0,2.963299814E1
1.424216704E1,1.344556714E1,-6.714487542E0,-4.146382241E0,1.559038500E1
1.425215904E1,8.623036273E0,-5.455819409E0,-8.322766546E0,1.316780783E1
1.426215004E1,2.957871925E0,-3.054639836E0,-1.109005257E1,1.187725123E1
1.427214204E1,-1.462528968E-1,5.253062528E-1,-7.302849584E0,7.323178860E0
1.428213325E1,-1.985199296E0,4.109683362E0,-4.503202729E0,6.411657227E0
1.429212525E1,-3.602320459E0,6.959228600E0,-2.141621085E0,8.123676278E0
1.430211625E1,-4.976062381E0,8.569836550E0,-5.825078094E-1,9.926863083E0
1.431210725E1,-6.442609556E0,9.181740067E0,2.521437247E-2,1.121660396E1
1.432209925E1,-7.249124197E0,8.811709549E0,-1.348122346E-1,1.141114373E1
1.433209025E1,-8.647274151E0,8.297264500E0,-5.507176673E-1,1.199680117E1
1.434208225E1,-1.024297696E1,7.675002640E0,-1.200384257E0,1.285554997E1
1.435207325E1,-1.132526150E1,7.303923132E0,-1.417456875E0,1.355057287E1
1.436206525E1,-1.194590134E1,7.140083565E0,-1.221054749E0,1.397055213E1
1.437205625E1,-1.173335739E1,8.122388898E0,-9.918819022E-1,1.430484906E1
1.438204825E1,-1.147694997E1,9.112755201E0,-1.105563469E0,1.469642672E1
1.439203925E1,-1.105640184E1,9.268692257E0,-8.396133900E-1,1.445190744E1
1.440203125E1,-1.076134316E1,9.315250711E0,-3.269809771E-1,1.423682966E1
1.441202225E1,-1.047143119E1,9.158137781E0,1.354378867E-1,1.391189067E1
1.442201325E1,-8.751744014E0,8.539728652E0,4.743635925E-1,1.223703434E1
1.443200525E1,-7.275923740E0,8.098583713E0,5.820178127E-1,1.090251664E1
1.444199625E1,-7.403947358E0,7.850827830E0,5.792029631E-1,1.080691492E1
1.445198825E1,-7.331010944E0,7.645287675E0,5.537266080E-1,1.060663746E1
1.446197925E1,-7.265888749E0,7.551471439E0,6.011908329E-1,1.049663235E1
1.447197125E1,-7.476534108E0,7.181709893E0,6.033063555E-1,1.038457981E1
1.448196225E1,-7.524805212E0,6.952678549E0,6.109123771E-1,1.026331557E1
1.449195425E1,-7.240395473E0,7.087122994E0,7.630616426E-1,1.016035934E1
1.450194525E1,-7.002145409E0,7.227985927E0,1.002430279E0,1.011329261E1
1.451193625E1,-6.684503020E0,7.288592318E0,1.383586879E0,9.986013782E0
1.452192825E1,-6.362581639E0,7.168599851E0,1.800540133E0,9.752600356E0
1.453191925E1,-6.466732244E0,6.447769139E0,2.216104088E0,9.396992610E0
1.454191125E1,-6.216894168E0,5.213073421E0,2.798732350E0,8.582471110E0
1.455190225E1,-5.953668306E0,4.571869506E0,3.488103873E0,8.277380365E0
1.456189425E1,-4.458916503E0,1.672741048E0,4.698999084E0,6.690335671E0
1.457188525E1,5.296495646E0,-8.336998669E0,4.908518854E0,1.102959520E1
1.458187725E1,5.221677014E0,-8.398204983E0,4.816966660E0,1.099995116E1
1.459186825E1,5.334981435E0,-8.306215417E0,4.945859174E0,1.104159248E1
1.460185925E1,5.377209442E0,-8.277742985E0,5.123007588E0,1.112117876E1
1.461185125E1,5.365127925E0,-8.290960616E0,5.194874547E0,1.115846527E1
1.462184225E1,1.662595428E1,-1.165782890E1,4.376701727E0,2.077216523E1
1.463183425E1,1.259357871E1,-7.009601194E0,7.105992544E-1,1.443044299E1
1.464182525E1,1.203960999E1,-8.145367286E0,-2.965763912E0,1.483559815E1
1.465181725E1,1.207175681E1,-8.986009201E0,-4.773297899E0,1.578797158E1
1.466180825E1,8.707789325E0,-8.715435728E0,-6.435025717E0,1.389942340E1
1.467180025E1,3.806491197E0,-6.970393274E0,-8.540077146E0,1.166227573E1
1.468179125E1,-6.574726224E-2,-4.070554379E0,-9.771405453E0,1.058556093E1
1.469178225E1,-2.516283183E0,-9.177555799E-1,-7.631126304E0,8.087524035E0
1.470177425E1,-4.158166720E0,1.650166703E0,-4.963021336E0,6.681690011E0
1.471176525E1,-5.725049191E0,3.789677528E0,-3.242492164E0,7.592865035E0
1.472175725E1,-6.481234508E0,5.921279994E0,-2.349151633E0,9.087709883E0
1.473174825E1,-6.978862381E0,7.675411361E0,-1.711260751E0,1.051403220E1
1.474174025E1,-7.908624049E0,8.265959092E0,-1.391202877E0,1.152422924E1
1.475173125E1,-8.056193739E0,8.772709790E0,-1.400760736E0,1.199269883E1
1.476172325E1,-8.114028549E0,8.677241716E0,-1.628739581E0,1.199102897E1
1.477171425E1,-8.194487405E0,8.681119589E0,-1.604378911E0,1.204514395E1
1.478170625E1,-8.165791025E0,8.675347803E0,-1.325627085E0,1.198745552E1
1.479169725E1,-8.226888582E0,9.363461589E0,-1.030334362E0,1.250670610E1
1.480168825E1,-8.540522119E0,1.032433980E1,-7.986208999E-1,1.342275328E1
1.481168025E1,-1.011151051E1,9.859633505E0,-5.349822618E-1,1.413298353E1
1.482167125E1,-1.098178669E1,9.604931130E0,-2.644011333E-1,1.459192410E1
1.483166325E1,-1.150316654E1,9.452780732E0,2.113651514E-2,1.488886667E1
1.484165425E1,-1.157505455E1,9.149804914E0,5.062063229E-1,1.476336895E1
1.485164625E1,-9.530770310E0,8.801448855E0,1.259066913E0,1.303404519E1
1.486163725E1,-6.750816293E0,8.226469921E0,1.603235196E0,1.076190927E1
1.487162925E1,-7.233963536E0,7.595178791E0,1.571981828E0,1.060604055E1
1.488162025E1,-7.861335862E0,6.793627267E0,1.159218689E0,1.045455695E1
1.489161125E1,-7.706363012E0,6.625057302E0,9.569775331E-1,1.020760604E1
1.490160325E1,-7.479181142E0,6.671040391E0,1.002112191E0,1.007199877E1
1.491159425E1,-7.241945570E0,6.848477073E0,1.053747783E0,1.002286378E1
1.492158625E1,-7.025462936E0,7.145995685E0,1.096398543E0,1.008089647E1
1.493157725E1,-6.737364188E0,7.285564629E0,1.133403232E0,9.987799110E0
1.494156925E1,-6.415073263E0,7.151939380E0,1.293414627E0,9.694138603E0
1.495156025E1,-6.314554948E0,6.816138462E0,1.523536477E0,9.415652454E0
1.496155225E1,-6.704104641E0,5.859698288E0,1.750289161E0,9.074392278E0
1.497154325E1,-6.603138430E0,4.981322536E0,1.650121679E0,8.434329427E0
1.498153425E1,-6.482276482E0,4.307343224E0,1.723287889E0,7.971375991E0
1.499152625E1,-5.521497674E0,2.200507225E0,1.999996845E0,6.271296197E0
1.500151725E1,3.421662546E0,-8.052422284E0,1.997201875E0,8.974301898E0
1.501150925E1,3.419431248E0,-8.055121359E0,2.030847924E0,8.983419920E0
1.502150025E1,3.577452836E0,-7.916438268E0,2.241143035E0,8.971671290E0
1.503149225E1,3.661065096E0,-7.854180624E0,2.442477872E0,9.003179942E0
1.504148325E1,3.693280916E0,-7.832230176E0,2.522054969E0,9.019141574E0
1.505147525E1,3.714937833E0,-7.812803972E0,2.516511809E0,9.009633771E0
1.506146625E1,3.738550644E0,-7.788089545E0,2.465196644E0,8.983779504E0
1.507145725E1,3.761751226E0,-7.761180074E0,2.368695366E0,8.944126909E0
1.508144925E1,3.770121515E0,-7.745165720E0,2.203867035E0,8.891481214E0
1.509144025E1,1.313797904E1,-4.887779365E0,-2.728069918E0,1.428072988E1
1.510143225E1,9.791699969E0,-1.262234350E0,-6.636193324E0,1.189578437E1
1.511142325E1,4.785855964E0,7.891805702E-1,-9.945872920E0,1.106560488E1
1.512141525E1,2.651419938E-2,2.135062264E0,-9.615906939E0,9.850119803E0
1.513140625E1,-2.616603277E0,4.555896667E0,-5.907919691E0,7.906093993E0
1.514139825E1,-3.882894425E0,6.795632277E0,-2.916473054E0,8.352442890E0
1.515138925E1,-4.908829342E0,8.091927828E0,-1.717689764E0,9.619062303E0
1.516138025E1,-6.210330668E0,8.592904986E0,-7.715670025E-1,1.063021819E1
1.517137225E1,-6.962533447E0,8.842273530E0,-5.916914463E-1,1.126999432E1
1.518136325E1,-7.353092954E0,8.773921334E0,-6.854685062E-1,1.146819683E1
1.519135525E1,-8.046499640E0,8.527261219E0,-4.632801586E-1,1.173349772E1
1.520134625E1,-8.375547608E0,8.384449409E0,-2.423688612E-1,1.185358732E1
1.521133825E1,-8.468086227E0,8.348211874E0,-1.203169688E-1,1.189182921E1
1.522132925E1,-8.828741904E0,8.174606872E0,-5.308335344E-2,1.203219427E1
1.523132125E1,-9.311683325E0,7.948276942E0,1.030641925E-1,1.224308682E1
1.524131225E1,-1.014782639E1,7.684956356E0,2.540474868E-1,1.273190774E1
1.525130325E1,-1.180471915E1,6.780900802E0,3.585863471E-1,1.361839176E1
1.526129525E1,-1.322550367E1,5.790397089E0,5.836667275E-1,1.444933606E1
1.527128625E1,-1.344750257E1,5.266341555E0,9.931109869E-1,1.447604740E1
1.528127813E1,-1.086209887E1,5.041390398E0,1.488468386E0,1.206715986E1
1.529126913E1,-9.021843862E0,4.657425381E0,1.453188626E0,1.025656058E1
1.530126113E1,-9.313410593E0,4.741330002E0,1.266476505E0,1.052728786E1
1.531125213E1,-9.275872053E0,5.144900149E0,9.976659679E-1,1.065397284E1
1.532124412E1,-8.606663484E0,5.779848127E0,8.462850630E-1,1.040180269E1
1.533123512E1,-7.956676467E0,6.469883308E0,7.632885146E-1,1.028351593E1
1.534122612E1,-7.416033552E0,7.233682285E0,7.189865005E-1,1.038463551E1
1.535121812E1,-6.971879636E0,7.955012934E0,6.634215796E-1,1.059855955E1
1.536120913E1,-6.775847054E0,8.401098186E0,6.540695429E-1,1.081287940E1
1.537120113E1,-6.567737632E0,8.663171561E0,7.627412152E-1,1.089804997E1
1.538119213E1,-6.255533738E0,8.912279320E0,8.904596809E-1,1.092489558E1
1.539118413E1,-5.839059371E0,8.233440971E0,1.037297226E0,1.014692811E1
1.540117513E1,-6.544448757E0,6.773499981E0,1.311773715E0,9.509514278E0
1.541116712E1,-6.571853487E0,5.608959156E0,1.299134374E0,8.737129459E0
1.542115812E1,-6.254898146E0,3.856841571E0,1.532534173E0,7.506506425E0
1.543114912E1,-2.994569635E0,-2.627995407E0,2.502933404E0,4.705154916E0
1.544114113E1,1.675924273E1,-2.837814438E1,-1.434134889E0,3.298860467E1
1.545113213E1,1.682745868E1,-2.833483990E1,-1.298030419E0,3.298046999E1
1.546112413E1,1.695311885E1,-2.825434947E1,-1.113455821E0,3.296902010E1
1.547111513E1,1.698732156E1,-2.824036526E1,-1.018013036E0,3.297155857E1
1.548110713E1,1.699393827E1,-2.823058872E1,-1.048056103E0,3.296753705E1
1.549109812E1,1.334942488E1,-7.516316224E0,3.031890074E0,1.561712239E1
1.550108912E1,1.127931408E1,-4.025125607E0,2.177455600E-1,1.197797877E1
1.551108112E1,1.049081003E1,-3.004604042E0,-3.286736290E0,1.139681429E1
1.552107213E1,1.125757179E1,-1.276399230E0,-6.435810413E0,1.303003351E1
1.553106413E1,9.017394131E0,-2.141700608E-1,-8.694288104E0,1.252796517E1
1.554105513E1,4.021360584E0,1.182190645E0,-6.315099324E0,7.579537924E0
1.555104713E1,6.209392190E-1,2.921969436E0,-4.348584806E0,5.275761624E0
1.556103813E1,-1.580971922E0,4.799216267E0,-3.449134519E0,6.117881817E0
1.557103013E1,-3.476222330E0,6.582232879E0,-2.305930184E0,7.792767505E0
1.558102112E1,-4.971886885E0,7.949706001E0,-1.270243281E0,9.462082366E0
1.559101312E1,-6.049712332E0,8.683195935E0,-4.094740802E-1,1.059077806E1
1.560100412E1,-6.716812395E0,9.242172210E0,-1.329083904E-1,1.142589080E1
1.561099513E1,-7.429520155E0,8.891487790E0,-3.921645677E-1,1.159353777E1
1.562098713E1,-8.629816119E0,8.241443471E0,-4.321443200E-1,1.194076486E1
1.563097813E1,-9.758761434E0,7.795548838E0,-4.375529945E-1,1.249781817E1
1.564097013E1,-1.065485133E1,7.373953480E0,-4.425377458E-1,1.296521833E1
1.565096113E1,-1.166340364E1,6.952234161E0,-5.184924924E-1,1.358813375E1
1.566095312E1,-1.227008267E1,6.591028846E0,-6.076999533E-1,1.394151675E1
1.567094412E1,-1.229504326E1,6.588298781E0,-5.845379627E-1,1.396121249E1
1.568093612E1,-1.156592003E1,7.149791113E0,-4.963783228E-1,1.360648414E1
1.569092712E1,-1.047729127E1,8.242304766E0,-2.857393956E-1,1.333382418E1
1.570091813E1,-9.939729835E0,8.541715536E0,1.143364640E-1,1.310618962E1
1.571091013E1,-9.109137529E0,8.415123902E0,6.936282957E-1,1.242062064E1
1.572090113E1,-7.000823354E0,8.211709210E0,1.064180385E0,1.084325485E1
1.573089313E1,-6.190627306E0,8.023148784E0,1.074636376E0,1.019066368E1
1.574088412E1,-6.251716091E0,7.894884261E0,9.353369880E-1,1.011375335E1
1.575087612E1,-6.409464029E0,8.044125085E0,7.554169929E-1,1.031309034E1
1.576086712E1,-6.559761445E0,8.100082355E0,6.758901823E-1,1.044502905E1
1.577085812E1,-6.698926932E0,7.650135602E0,6.139354241E-1,1.018710525E1
1.578085013E1,-6.524802697E0,7.649519305E0,7.148501801E-1,1.007964318E1
1.579084113E1,-6.470085037E0,7.419523171E0,9.055419159E-1,9.885915771E0
1.580083313E1,-6.386993764E0,7.041365608E0,1.033868419E0,9.562604398E0
1.581082413E1,-6.624646828E0,6.121842999E0,1.141556590E0,9.092087700E0
1.582081613E1,-6.803153551E0,5.379077627E0,9.476056159E-1,8.724410052E0
1.583080712E1,-6.505879353E0,4.574254586E0,6.260800910E-1,7.977609131E0
1.584079912E1,-5.520585508E0,2.049946100E0,5.766395438E-1,5.917064858E0
1.585079012E1,4.121901703E0,-8.682667347E0,5.221586967E-1,9.625561574E0
1.586078113E1,4.059307845E0,-8.737827056E0,5.624261320E-1,9.651110039E0
1.587077313E1,4.175769762E0,-8.640481440E0,7.404481208E-1,9.625135638E0
1.588076413E1,4.239329581E0,-8.594886022E0,9.222123277E-1,9.627796041E0
1.589075613E1,4.261413930E0,-8.579859847E0,9.792671192E-1,9.629777140E0
1.590074713E1,4.268768558E0,-8.570444076E0,9.269240872E-1,9.619463859E0
1.591073912E1,4.283885949E0,-8.551740003E0,8.066888881E-1,9.598681308E0
1.592073012E1,4.306348028E0,-8.527220873E0,6.049388981E-1,9.572046815E0
1.593072212E1,1.647579895E1,-7.516474099E0,-8.399446347E0,1.996246560E1
1.594071312E1,1.366523300E1,-5.760934138E0,-1.490613145E1,2.102664286E1
1.595070413E1,7.042523357E0,-6.036868338E0,-7.615413081E0,1.200147620E1
1.596069613E1,3.523942627E0,-4.415857022E0,-2.586346275E0,6.213465372E0
1.597068713E1,1.452943043E0,-1.144497154E0,-1.863821624E0,2.625785267E0
1.598067913E1,-4.492415786E-3,2.277927284E0,-1.467290356E0,2.709596627E0
1.599067013E1,-1.536475196E0,4.967138361E0,-4.723433794E-1,5.220759312E0
1.600066212E1,-3.112636614E0,6.927751869E0,5.617471971E-1,7.615629492E0
1.601065312E1,-4.726210272E0,8.058499880E0,1.047730413E0,9.400756505E0
1.602064412E1,-6.796441532E0,8.192932631E0,1.171078012E0,1.070921035E1
1.603063613E1,-8.381633390E0,7.763860438E0,6.258064413E-1,1.144206891E1
1.604062713E1,-9.931657169E0,7.403784220E0,1.083810657E-1,1.238812259E1
1.605061913E1,-1.074080306E1,7.382948837E0,-1.382995141E-1,1.303425911E1
1.606061013E1,-1.102515900E1,7.386596330E0,-2.983448231E-1,1.327422111E1
1.607060213E1,-1.136341224E1,7.315573710E0,-5.715004259E-1,1.352669099E1
1.608059312E1,-1.143241172E1,7.352502385E0,-9.965316081E-1,1.362910138E1
1.609058512E1,-1.008521558E1,7.752467138E0,-1.181924012E0,1.277533813E1
1.610057612E1,-8.255295525E0,8.320735808E0,-9.358837026E-1,1.175841940E1
1.611056712E1,-7.023537447E0,9.277326255E0,-4.562594068E-1,1.164504330E1
1.612055913E1,-6.710389228E0,9.989841642E0,-1.495437098E-1,1.203530735E1
1.613055013E1,-7.331183437E0,9.371596820E0,2.556800294E-1,1.190119531E1
1.614054213E1,-8.046265751E0,8.250601965E0,7.820580769E-1,1.155103632E1
1.615053313E1,-7.480293868E0,7.607578982E0,1.250137045E0,1.074210859E1
1.616052513E1,-6.936761259E0,7.479534899E0,1.018541697E0,1.025180600E1
1.617051612E1,-7.196668825E0,7.235357512E0,8.164806354E-1,1.023763064E1
1.618050812E1,-7.286901303E0,7.007818962E0,7.679113233E-1,1.013894201E1
1.619049912E1,-7.230073968E0,6.934683158E0,7.951722121E-1,1.004968153E1
1.620049013E1,-7.083370251E0,6.842605299E0,8.272055984E-1,9.883301599E0
1.621048213E1,-6.896240639E0,6.753559806E0,8.031454754E-1,9.685749721E0
1.622047313E1,-6.881508579E0,6.746202840E0,9.100945580E-1,9.679601499E0
1.623046513E1,-6.968099996E0,6.851512363E0,1.194332389E0,9.845002238E0
1.624045613E1,-6.939795379E0,6.787838523E0,1.467977403E0,9.817864808E0
1.625044812E1,-6.891263489E0,6.570741931E0,1.608785373E0,9.656725759E0
1.626043912E1,-7.052223303E0,5.524069864E0,1.583048269E0,9.096990887E0
1.627043112E1,-7.110099628E0,4.479001104E0,1.506919860E0,8.537316620E0
1.628042175E1,-6.328126336E0,2.069394524E0,1.571222860E0,6.840783427E0
1.629041275E1,1.077231955E0,-8.974012468E0,3.135282880E0,9.566782490E0
1.630040475E1,1.130267370E0,-8.921063007E0,3.102812122E0,9.512639622E0
1.631039575E1,1.268609569E0,-8.797474503E0,3.173856962E0,9.438129893E0
1.632038775E1,1.306410649E0,-8.770619996E0,3.264729710E0,9.449282722E0
1.633037875E1,1.307590617E0,-8.772180033E0,3.293754119E0,9.460959356E0
1.634037075E1,1.308563594E0,-8.766125241E0,3.235251557E0,9.435260625E0
1.635036175E1,1.295692703E1,-6.011399036E0,1.122311064E0,1.432754195E1
1.636035275E1,1.109709379E1,-5.256768494E0,-6.000143731E-1,1.229386525E1
1.637034475E1,9.918674011E0,-6.473314455E0,-3.759902337E0,1.242661498E1
1.638033575E1,7.088456744E0,-6.529409718E0,-5.734219964E0,1.121430733E1
1.639032775E1,3.327473257E0,-4.768276311E0,-8.385169786E0,1.020390168E1
1.640031875E1,2.266211218E-1,-1.607715333E0,-6.507913014E0,6.707386788E0
1.641031075E1,-2.382044560E0,1.504887367E0,-4.273049304E0,5.118375976E0
1.642030175E1,-3.954178416E0,4.204771367E0,-2.672026695E0,6.360452488E0
1.643029375E1,-5.205715284E0,6.103791475E0,-1.413588358E0,8.145794869E0
1.644028475E1,-6.201865069E0,7.610304953E0,-9.821492118E-1,9.866331076E0
1.645027575E1,-7.620703642E0,8.345702834E0,-6.502916569E-1,1.132028087E1
1.646026775E1,-8.408026552E0,8.833714961E0,-5.528191566E-1,1.220799081E1
1.647025875E1,-8.206952500E0,8.925733178E0,-6.571440089E-1,1.214308941E1
1.648025075E1,-7.887868772E0,9.424268539E0,-1.142920745E0,1.234267309E1
1.649024175E1,-7.817347258E0,9.537309251E0,-1.418823954E0,1.241306760E1
1.650023375E1,-8.104425666E0,9.418915413E0,-1.349170167E0,1.249871766E1
1.651022475E1,-8.195252806E0,1.019707047E1,-9.790285528E-1,1.311872371E1
1.652021675E1,-9.424070318E0,9.621792161E0,-5.378631485E-1,1.347891993E1
1.653020775E1,-1.075206362E1,8.677834039E0,-2.543164587E-1,1.381941940E1
1.654019875E1,-1.114102275E1,8.298705254E0,1.385732003E-1,1.389280747E1
1.655019075E1,-1.132759571E1,8.032711905E0,3.305525295E-1,1.389057774E1
