"Time (s)","Linear Acceleration x (m/s^2)","Linear Acceleration y (m/s^2)","Linear Acceleration z (m/s^2)","Absolute acceleration (m/s^2)"
-1.413250000E-3,-9.775638252E-2,1.135619912E-1,7.561946726E-1,7.708975412E-1
8.577749999E-3,-1.397934777E-1,7.785158336E-2,-3.970428997E-1,4.280725986E-1
1.856875000E-2,-2.695958179E-1,-1.057410479E-2,-1.208276829E0,1.238033364E0
2.855975000E-2,-3.181174752E-1,2.279171571E-1,-1.595934947E0,1.643214324E0
3.855075000E-2,-4.766232124E-1,1.844907635E-1,-1.287950989E0,1.385649407E0
4.854175000E-2,-4.409145588E-1,2.465665591E-1,-3.136855781E-1,5.946422102E-1
5.853275000E-2,-1.020818603E-1,6.029543531E-1,1.027038871E0,1.195317322E0
6.852275000E-2,-7.533099487E-2,2.590971422E-1,1.742228774E0,1.762999487E0
7.851375000E-2,2.474224453E-1,-2.729094350E-1,1.316398863E0,1.366968687E0
8.850475000E-2,4.273988660E-1,6.799069270E-1,1.732807156E0,1.909859644E0
9.849575000E-2,3.673697421E-1,2.362783831E-1,1.504541212E0,1.566662778E0
1.084867500E-1,6.578971303E-1,-5.671419114E-1,4.872554970E-1,9.959400087E-1
1.184777500E-1,1.000682108E0,-1.660254904E0,-1.074612402E0,2.216439226E0
1.284677500E-1,1.281915054E0,-1.143565693E0,-1.921811385E0,2.577674863E0
1.384587500E-1,1.712607365E0,-4.862149850E-1,-2.209348800E0,2.837366933E0
1.484497500E-1,1.755565689E0,-2.249698681E-1,-2.594917123E0,3.141053518E0
1.584407500E-1,8.948172453E-1,3.031430483E-2,-1.818201063E0,2.026689903E0
1.684317500E-1,-2.724298172E-1,-1.051010701E-1,-7.729948926E-1,8.263082622E-1
1.784227500E-1,-2.621955818E-1,-7.444631115E-1,-1.796233658E0,1.961995719E0
1.884137500E-1,3.467749715E-2,-6.613440639E-1,-1.321459043E-1,6.753081072E-1
1.984037500E-1,-7.654625094E-1,-5.814556029E-1,2.101156014E0,2.310601668E0
2.083947500E-1,1.175428633E0,-6.379861915E-1,1.295918405E0,1.862273708E0
2.183857500E-1,2.322868398E0,-9.158292148E-1,7.046362638E-1,2.594411882E0
2.283767500E-1,1.278707857E0,-1.525992015E0,2.816562849E-1,2.010740082E0
2.383677500E-1,4.973559042E-1,-1.660721804E0,6.065316796E-3,1.733607970E0
2.483587500E-1,-2.583877288E-1,-1.623230627E0,-1.197363585E-1,1.648022658E0
2.583497500E-1,-1.095239917E0,-1.382391708E0,-2.799892437E-1,1.785763503E0
2.683397500E-1,-2.714774519E0,-9.773673588E-1,1.832584044E0,3.418129887E0
2.783307500E-1,-2.741307430E0,-2.785408884E-1,6.966173923E-1,2.842116683E0
2.883217500E-1,-1.759418273E0,-5.533927685E-1,-2.886770368E-1,1.866850462E0
2.983127500E-1,-6.820592871E-1,-7.213075528E-1,6.236470646E-1,1.172358784E0
3.083035833E-1,1.248806658E0,-5.306047073E-1,-3.049644560E-1,1.390705843E0
3.182945833E-1,3.176836995E0,6.697546989E-2,-5.401312834E-1,3.223122835E0
3.282845833E-1,3.790796100E0,5.047588447E-1,-7.312562978E-1,3.893539821E0
3.382755833E-1,2.755244561E0,5.265806535E-1,-1.329687830E0,3.104308216E0
3.482665833E-1,1.190812365E0,5.549393570E-1,-1.552348632E0,2.033661244E0
3.582575833E-1,3.439737166E-1,3.263980097E-1,-1.648449376E0,1.715295579E0
3.682485833E-1,8.540485574E-1,-1.408339897E-1,-2.705082759E0,2.840194691E0
3.782395833E-1,8.766527237E-1,-8.049674678E-1,-3.584908621E0,3.777308889E0
3.882305833E-1,1.222051992E0,-1.651508639E0,-4.350078769E0,4.810829154E0
3.982205833E-1,7.387587141E-1,-2.080160417E0,-4.681880191E0,5.176179471E0
4.082115833E-1,-7.422747910E-2,-2.313755805E0,-4.173293467E0,4.772353089E0
4.182025833E-1,-8.830032384E-1,-2.700963103E0,-4.460427423E0,5.288696361E0
4.281935833E-1,-1.114927200E0,-2.926712113E0,-4.841410360E0,5.766104468E0
4.381845833E-1,-1.015745266E0,-2.691082478E0,-4.284134456E0,5.160181333E0
4.481755833E-1,-8.432673150E-1,-2.389686578E0,-3.620973077E0,4.419632081E0
4.581665833E-1,-6.869560379E-1,-2.100490016E0,-3.463633275E0,4.108615627E0
4.681565833E-1,-6.682221437E-1,-2.413213727E0,-3.181154872E0,4.048440150E0
4.781475833E-1,-1.353533944E0,-3.659847121E0,-3.009472434E0,4.927825019E0
4.881385833E-1,-2.408207341E0,-5.144320689E0,-2.906911102E0,6.380723322E0
4.981295833E-1,-3.689712360E0,-6.315395193E0,-2.643509824E0,7.777296313E0
5.081205833E-1,-4.903861547E0,-6.646910686E0,-2.485095888E0,8.625832210E0
5.181115833E-1,-5.378703990E0,-6.382270383E0,-2.287430179E0,8.654257257E0
5.281015833E-1,-4.800593871E0,-6.105328708E0,-1.781220932E0,7.968280126E0
5.380925833E-1,-3.706510826E0,-6.129703996E0,-1.004466864E0,7.233287445E0
5.480835833E-1,-3.332642196E0,-5.883195909E0,-9.221702278E-2,6.762174361E0
5.580745833E-1,-1.729422203E0,-5.645342286E0,4.760531089E-1,5.923463281E0
5.680655833E-1,-1.428170729E-1,-5.513829051E0,8.687383711E-1,5.583673869E0
5.780565833E-1,8.090061396E-1,-5.056553982E0,1.567489997E0,5.355394850E0
5.880475833E-1,2.228317167E0,-3.953960899E0,2.388118063E0,5.128577977E0
5.980375833E-1,3.524544890E0,-2.408823053E0,3.468491142E0,5.500479614E0
6.080285833E-1,4.202030777E0,-1.185792238E0,4.496412942E0,6.267447266E0
6.180195833E-1,4.739464740E0,-1.025271842E0,4.870295606E0,6.872662342E0
6.280105833E-1,5.257581257E0,-1.418578956E0,6.461875547E0,8.450465224E0
6.380015833E-1,5.257543250E0,-1.615730988E0,7.208690116E0,9.067389968E0
6.479925833E-1,5.626828247E0,-1.689443035E0,7.838862673E0,9.796079925E0
6.579835833E-1,5.936424283E0,-1.964627037E0,8.451392426E0,1.051317871E1
6.679735833E-1,6.336099014E0,-2.139728342E0,9.050953056E0,1.125363671E1
6.779645833E-1,6.268018713E0,-1.669363697E0,9.009719660E0,1.110179635E1
6.879555833E-1,5.707381244E0,-9.918006259E-1,7.770027496E0,9.691810793E0
6.979465833E-1,5.170250167E0,-2.809189510E-1,6.533912659E0,8.336810954E0
7.079375833E-1,4.785527351E0,5.541254246E-1,5.931714935E0,7.641568496E0
7.179285833E-1,5.790338616E0,1.467353505E0,6.331509535E0,8.704548270E0
7.279185833E-1,7.404630312E0,2.615175387E0,6.403460108E0,1.013271897E1
7.379095833E-1,8.388581051E0,3.503563326E0,6.723841918E0,1.130722327E1
7.479005833E-1,8.644509003E0,4.100801441E0,6.801122228E0,1.173879772E1
7.578915833E-1,8.546459382E0,4.991096157E0,6.323381320E0,1.174470775E1
7.678825833E-1,1.034867006E1,6.108570405E0,-2.241288046E0,1.222427816E1
7.778735833E-1,1.172243479E1,3.308616571E0,-8.967146083E0,1.512521504E1
7.878645833E-1,7.608639666E0,3.221374944E0,-2.468475178E-1,8.266171290E0
7.978545833E-1,5.166361769E0,3.751632035E0,3.292013403E0,7.183549895E0
8.078455833E-1,5.603762151E0,2.268406847E0,2.717254323E0,6.628068416E0
8.178365833E-1,6.517355683E0,2.088902004E0,9.238559800E-1,6.906008004E0
8.278275833E-1,5.215812256E0,4.966168892E-1,4.872648525E-1,5.262010344E0
8.378185833E-1,2.184820899E0,1.193433672E0,1.180355497E0,2.755170664E0
8.478095833E-1,6.400879732E-1,1.576432144E0,1.623377100E0,2.351638604E0
8.577995833E-1,2.123806081E0,8.002744925E-1,-5.171659346E0,5.647747509E0
8.677905833E-1,1.769467444E0,-1.591406863E0,-3.873377789E0,4.546058330E0
8.777815833E-1,1.142167624E0,-1.299012752E0,1.672983708E0,2.406419642E0
8.877725833E-1,5.962435037E-1,2.256563312E-1,5.457216893E0,5.494328286E0
8.977635833E-1,1.665145808E0,1.120001414E0,5.113307642E0,5.492998159E0
9.077545833E-1,3.239511253E0,2.003640829E0,3.156855597E0,4.947195872E0
9.177455833E-1,3.287922106E0,2.917686936E0,1.044729037E0,4.518272633E0
9.277355833E-1,2.649711674E0,3.755241521E0,-1.270934714E0,4.768446905E0
9.377265833E-1,2.697852677E0,4.390586525E0,-2.264773680E0,5.628930531E0
9.477175833E-1,2.451762666E0,3.933716084E0,-1.952063125E0,5.029494293E0
9.577085833E-1,1.969031598E0,2.830012615E0,-1.324251089E0,3.693196147E0
9.676995833E-1,2.428452156E0,2.299145075E0,-1.421314576E0,3.633673496E0
9.776905833E-1,2.804288374E0,2.693899959E0,-3.818380925E-1,3.907291979E0
9.876805833E-1,3.844325313E0,5.681213200E0,-1.553219867E0,7.033314474E0
9.976715833E-1,3.993336049E0,8.441225873E0,-2.559549655E0,9.682578245E0
1.007662583E0,3.622949144E0,9.319731433E0,-1.458619519E0,1.010498517E1
1.017653583E0,2.546232036E0,7.731734081E0,4.750497267E-1,8.154059218E0
1.027644583E0,7.072816904E-1,5.614640311E0,6.533479965E-1,5.696603972E0
1.037635583E0,-6.878094390E-2,3.993171743E0,-6.876232052E-1,4.052527243E0
1.047626583E0,6.106216608E-1,3.072803627E0,-1.289236207E0,3.387788503E0
1.057616583E0,7.568212017E-1,2.869691820E0,-1.820751033E0,3.481816164E0
1.067607583E0,3.117307077E-1,9.265626562E-1,-3.925668561E-1,1.053471939E0
1.077598583E0,2.792543949E-1,-1.159394106E0,1.215018961E0,1.702483123E0
1.087589583E0,1.455319789E0,-1.602431204E0,1.309205033E0,2.529774549E0
1.097580583E0,2.067030640E0,-1.613984717E0,2.415480985E0,3.565404707E0
1.107571583E0,2.464155255E0,-2.356308625E0,2.591025801E0,4.282250128E0
1.117562583E0,2.331671820E0,-2.923800200E0,1.851793609E0,4.173061305E0
1.127552583E0,2.194313269E0,-2.563108270E0,2.244114882E0,4.052232265E0
1.137543583E0,2.102751427E0,-1.486139440E0,1.553852536E0,3.007429418E0
1.147534583E0,1.700888960E0,-6.401233488E-1,8.955814764E-1,2.026042284E0
1.157525583E0,1.391148352E0,-2.358749253E-1,7.336787993E-1,1.590350684E0
1.167516583E0,1.226073268E0,2.444989836E-1,4.758671674E-1,1.337716327E0
1.177507583E0,7.994175830E-1,6.557693285E-1,-3.892596710E-1,1.104818979E0
1.187497583E0,5.327544361E-2,1.032257511E0,-3.839609241E-1,1.102642205E0
1.197488583E0,1.645447415E-1,1.051474970E0,-9.441396788E-1,1.422699658E0
1.207479583E0,1.906920281E-1,7.478968889E-1,-9.681442532E-1,1.238150436E0
1.217470583E0,2.232117565E-1,6.349848157E-1,-7.714500582E-1,1.023799002E0
1.227461583E0,3.595619550E-1,9.994248104E-1,-7.583081487E-1,1.305054022E0
1.237452583E0,3.161115879E-1,1.506118791E0,-2.710105518E-1,1.562615458E0
1.247443583E0,8.261810200E-1,2.353627092E0,-9.298996621E-1,2.662113624E0
1.257433583E0,1.104777311E0,2.373808756E0,-2.396487767E0,3.549458344E0
1.267424583E0,3.529434916E-1,1.975211082E0,-2.319998585E0,3.067315009E0
1.277415583E0,-2.630548301E-1,1.493963599E0,-1.833149177E0,2.379403494E0
1.287406583E0,-8.630320734E-1,7.596059382E-1,-1.425066442E0,1.831021547E0
1.297397583E0,-2.019796686E0,-4.034818536E-1,-1.467464895E0,2.528997722E0
1.307388375E0,-2.364717798E0,-1.378203932E0,-5.453218567E-1,2.790826449E0
1.317379375E0,-1.435059041E0,-1.799651356E0,-9.711815894E-2,2.303816701E0
1.327369375E0,-6.407431537E-1,-1.226679186E0,-3.520550072E-2,1.384389050E0
1.337360375E0,-2.241176364E-1,-9.167147756E-1,-3.206221300E-1,9.966911482E-1
1.347351375E0,-5.754651305E-1,-8.822015852E-1,-5.670477712E-1,1.196236987E0
1.357342375E0,-1.484130337E0,-8.177518201E-1,-1.175650535E0,2.062405168E0
1.367333375E0,-1.865943286E0,-2.042473358E-1,-1.445898317E0,2.369405678E0
1.377324375E0,-1.858036096E0,1.018194957E0,-1.559671831E0,2.630892496E0
1.387314375E0,-1.425958727E0,1.835313524E0,-1.676844332E0,2.865927587E0
1.397305375E0,-1.431592812E0,1.850882320E0,-1.621218892E0,2.846677720E0
1.407296375E0,-3.053166922E0,8.725215197E-1,-7.570061199E-1,3.264380542E0
1.417287375E0,-3.608170891E0,-7.575331002E-1,-1.519233803E-1,3.689963996E0
1.427278375E0,-2.310328460E0,-1.727824743E0,7.677255280E-1,2.985364035E0
1.437269375E0,-5.116955428E-1,-1.831529206E0,6.153989822E-1,1.998761484E0
1.447260375E0,7.880618517E-1,-9.722416896E-1,1.165649749E-1,1.256933880E0
1.457250375E0,4.520249994E-1,-1.090632019E0,1.847614896E-1,1.194965108E0
1.467241375E0,-5.528761670E-1,-2.232396770E0,7.136187565E-1,2.408011446E0
1.477232375E0,8.713666946E-2,-2.467154292E0,1.464821076E0,2.870565081E0
1.487223375E0,-5.532299235E-2,-2.781531596E0,1.791177571E0,3.308820899E0
1.497214375E0,-5.539919619E-1,-3.497758210E0,1.812576041E0,3.978272426E0
1.507205375E0,-2.672905532E-1,-3.655923640E0,1.777061223E0,4.073716790E0
1.517195375E0,8.240130186E-1,-3.003224684E0,1.464012991E0,3.441175671E0
1.527186375E0,2.050405691E0,-1.727905435E0,1.181584216E0,2.930181214E0
1.537177375E0,1.943844278E0,-9.431617320E-1,3.127680769E-1,2.183096082E0
1.547168375E0,9.174697973E-1,-4.493380576E-1,-8.030256075E-1,1.299425121E0
1.557159375E0,6.084121442E-1,-1.206830227E-1,-1.121300665E0,1.281423002E0
1.567150375E0,9.951078111E-1,3.786364496E-2,-3.391671592E-1,1.052001698E0
1.577141375E0,3.454859528E-1,-2.172994906E-1,4.431897104E-1,6.024921008E-1
1.587131375E0,-5.411465062E-1,-1.053302810E0,2.652706142E-1,1.213529913E0
1.597122375E0,2.580639392E-1,-1.498101674E0,1.265424006E0,1.977929103E0
1.607113375E0,8.346227183E-1,-1.536153014E0,1.498878769E0,2.302824077E0
1.617104375E0,8.112389720E-1,-9.649543047E-1,3.629161737E-1,1.311851222E0
1.627095375E0,3.196913995E-1,-1.692675376E-1,1.026443624E-1,3.760185572E-1
1.637086375E0,1.895879568E0,1.987296692E0,-2.316787294E0,3.593217339E0
1.647076375E0,1.012656986E0,2.165360196E0,-2.823886487E0,3.699809974E0
1.657067375E0,1.742144575E0,2.909626549E0,-1.255366210E0,3.616205013E0
1.667058375E0,1.741139438E0,3.067287948E0,6.186218943E-1,3.580853941E0
1.677049375E0,-2.601159903E0,1.294439059E0,2.793112006E0,4.030270462E0
1.687040375E0,-5.562798312E0,2.607858181E-1,2.410712727E0,6.068300434E0
1.697031375E0,5.203193380E0,3.030799568E0,1.559161516E-1,6.023560178E0
1.707022375E0,6.691341923E0,2.997784435E0,2.629729106E0,7.789495711E0
1.717012375E0,5.930848963E0,1.303655441E0,2.774720174E0,6.676343233E0
1.727003375E0,4.573291549E0,1.995088107E0,7.855154624E-1,5.050980765E0
1.736994375E0,3.584722387E0,2.713181738E0,6.101335645E-1,4.536943101E0
1.746985375E0,3.673223796E0,2.762368516E0,1.345629094E0,4.788942528E0
1.756976375E0,3.230890411E0,2.441455779E0,1.545242511E0,4.334412715E0
1.766967375E0,2.317172187E0,2.044544442E0,8.263220110E-1,3.198789925E0
1.776957375E0,1.612949029E0,1.668881301E0,1.059057639E0,2.551151201E0
1.786948375E0,1.678647029E0,1.468428808E0,2.098431212E0,3.062278982E0
1.796939375E0,1.953758086E0,2.091841400E0,3.598683491E0,4.598205517E0
1.806930375E0,1.553243402E0,1.395770137E0,3.291281331E0,3.897854813E0
1.816921375E0,4.860651135E-1,5.083680385E-1,2.272410436E0,2.378769965E0
1.826912375E0,-5.743447309E-1,-9.436920744E-1,2.150921667E0,2.418034453E0
1.836903375E0,-1.092209598E0,-2.558169712E0,2.797134891E0,3.944758253E0
1.846893375E0,-9.349434704E-1,-3.254930361E0,3.459648982E0,4.841266573E0
1.856884375E0,-3.031884921E-1,-3.356884167E0,3.366016349E0,4.763471490E0
1.866875375E0,2.597373392E-1,-2.868779070E0,3.324381834E0,4.398735206E0
1.876866375E0,9.877993032E-1,-1.693441946E0,3.028734916E0,3.607870325E0
1.886857375E0,1.602297010E0,-5.955365753E-1,2.751243603E0,3.239037031E0
1.896848375E0,1.630899543E0,-5.992793781E-1,2.863025994E0,3.349012830E0
1.906838375E0,1.867436665E0,-1.051313002E0,2.475386002E0,3.274158607E0
1.916829375E0,1.980332366E0,-1.521963576E0,1.719978365E0,3.032559147E0
1.926820375E0,1.745456145E0,-2.376275112E0,2.157603280E0,3.653567089E0
1.936811375E0,1.736811037E0,-3.063850370E0,2.802866331E0,4.501083352E0
1.946802375E0,1.638382955E0,-2.880258908E0,2.423462727E0,4.105284604E0
1.956793375E0,9.785531741E-1,-2.072120495E0,9.707774737E-1,2.488706203E0
1.966784375E0,4.222418045E-1,-5.255927664E-1,-1.156606153E0,1.338758265E0
1.976774375E0,3.663823666E-1,1.107395986E0,-2.605136302E0,2.854347046E0
1.986765375E0,1.342679502E-1,1.970750826E0,-2.657957709E0,3.311589631E0
1.996756375E0,-2.215906160E-1,2.592858903E0,-2.408009706E0,3.545494385E0
2.006747375E0,-3.899968221E-1,3.300364396E0,-2.473826550E0,4.142984488E0
2.016738375E0,-5.369148763E-1,4.000152733E0,-2.331097039E0,4.660848944E0
2.026729375E0,-7.299362889E-1,4.547053923E0,-2.180802839E0,5.095528175E0
2.036719375E0,-1.173988610E0,4.573780376E0,-2.361973407E0,5.279832816E0
2.046710375E0,-1.632778838E0,4.423236208E0,-2.569774681E0,5.369797687E0
2.056701375E0,-1.609915347E0,4.530270660E0,-2.623666713E0,5.477116641E0
2.066692375E0,-1.619724929E0,4.746783115E0,-2.697587798E0,5.694948526E0
2.076683375E0,-1.462730989E0,4.587090393E0,-2.460725863E0,5.407046513E0
2.086674375E0,-1.055922070E0,4.426604204E0,-2.596620417E0,5.239487932E0
2.096665375E0,-7.053752057E-1,4.508626606E0,-2.881956355E0,5.397308634E0
2.106655375E0,-6.995307675E-1,4.205458415E0,-2.612878600E0,5.000235830E0
2.116646375E0,-7.150828993E-1,3.242719620E0,-1.186925721E0,3.526381539E0
2.126637375E0,-5.308729483E-1,1.905844978E0,1.084652802E0,2.256223143E0
2.136628375E0,-5.544037521E-1,9.964936012E-1,2.637368494E0,2.873338753E0
2.146619375E0,1.888501552E-1,-3.259961305E0,2.289061990E0,3.987833608E0
2.156610375E0,6.037481126E-1,-1.158946560E1,2.186317056E0,1.180932711E1
2.166600375E0,6.329692805E-1,-1.160968644E1,2.057415040E0,1.180755800E1
2.176591375E0,6.041401684E-1,-1.164907562E1,1.884318161E0,1.181594698E1
2.186582375E0,5.261539529E-1,-1.170778635E1,1.674239690E0,1.183858850E1
2.196573375E0,-8.008597988E-1,-1.071824450E1,8.276061326E-1,1.077993847E1
2.206564375E0,-1.573860685E0,-5.519543535E0,-2.200163116E0,6.146797217E0
2.216555375E0,-2.026258298E0,-1.019988298E0,-3.772331763E0,4.401884341E0
2.226546375E0,-3.007624129E0,2.228535268E0,-4.729513949E0,6.031622877E0
2.236536375E0,-3.571145445E0,4.121842062E0,-4.922281446E0,7.346530909E0
2.246527375E0,-3.631625535E0,5.115360015E0,-4.960927448E0,7.997900553E0
2.256518375E0,-3.321979798E0,5.373701112E0,-5.037585030E0,8.080190367E0
2.266509375E0,-2.299203401E0,4.977976175E0,-3.940647374E0,6.752428067E0
2.276500375E0,-7.547514336E-1,3.720530695E0,-2.083508533E0,4.330474129E0
2.286491375E0,-6.005938321E-2,2.169876001E0,-6.425689468E-1,2.263816212E0
2.296481375E0,-3.229491757E-1,1.055202570E0,3.650773412E-1,1.162338203E0
2.306472375E0,-8.532469042E-1,4.555051160E-1,9.834747756E-1,1.379397631E0
2.316462958E0,-1.578801728E0,1.487022954E-1,1.209848268E0,1.994607756E0
2.326453958E0,-2.048935847E0,1.407319558E-1,8.519457525E-1,2.223455678E0
2.336444958E0,-2.177722087E0,1.001458472E-1,1.125466222E-1,2.182926802E0
2.346435958E0,-1.790549434E0,-1.619591027E-1,-6.000202203E-1,1.895342262E0
2.356426958E0,-1.099958036E0,-2.188659596E-1,-1.691780167E0,2.029761100E0
2.366416958E0,-2.255051807E-1,-2.293570340E-1,-2.802527193E0,2.820924654E0
2.376407958E0,4.838379456E-1,-3.789177006E-1,-3.144867051E0,3.204351190E0
2.386398958E0,6.658841345E-1,-4.929173559E-1,-2.552151173E0,2.683252655E0
2.396389958E0,6.978425302E-1,-3.821757692E-1,-1.635248702E0,1.818538103E0
2.406380958E0,6.867369135E-1,-2.546801555E-1,-7.980923116E-1,1.083245544E0
2.416371958E0,7.436864550E-1,-3.134142673E-1,-5.150987685E-2,8.086725628E-1
2.426361958E0,1.008410081E0,-6.355625206E-1,7.426744482E-1,1.404420145E0
2.436352958E0,1.417621182E0,-1.081646603E0,1.542950402E0,2.358029926E0
2.446343958E0,2.233849072E0,-1.480998568E0,2.263289072E0,3.507978885E0
2.456334958E0,3.327226212E0,-1.812764322E0,2.924753296E0,4.786515496E0
2.466325958E0,4.572593392E0,-2.104885368E0,3.463879735E0,6.110451338E0
2.476316958E0,6.043388568E0,-2.229865510E0,3.679974407E0,7.418696463E0
2.486307958E0,7.120486037E0,-1.993289503E0,3.669698218E0,8.254768892E0
2.496297958E0,7.340446011E0,-1.183330852E0,3.717830743E0,8.312922770E0
2.506288958E0,6.548432465E0,-1.809876966E-1,3.482941366E0,7.419272528E0
2.516279958E0,4.995514314E0,7.045432931E-1,2.793168139E0,5.766570277E0
2.526270958E0,3.556819181E0,1.564439505E0,1.738437732E0,4.256829736E0
2.536261958E0,3.684919397E0,1.364208037E0,8.104577109E-1,4.012048882E0
2.546252958E0,5.103578460E0,-1.098823968E0,2.878747988E-1,5.228460492E0
2.556242958E0,4.569550208E0,-2.789498427E0,-6.223568764E-1,5.389751261E0
2.566233958E0,1.868802136E0,-3.173511976E0,-1.441508812E0,3.954939613E0
2.576224958E0,1.610845055E-1,-2.981366622E0,-1.240542934E0,3.233178301E0
2.586215958E0,-6.121626945E-1,-2.964827188E0,-1.242933422E0,3.272587189E0
2.596206958E0,-6.622648542E-1,-3.645654175E0,-1.732413054E0,4.090311001E0
2.606197958E0,-1.140453512E0,-4.151352959E0,-2.134264119E0,4.805148170E0
2.616187958E0,-2.871874586E0,-3.173438886E0,-2.523779313E0,4.968685945E0
2.626178958E0,-4.748851860E0,-1.562030452E0,-2.762751508E0,5.711771093E0
2.636169958E0,-5.971330406E0,1.324832886E-1,-3.238849641E0,6.794445204E0
2.646160958E0,-6.280974973E0,1.908299055E0,-3.142605348E0,7.277926921E0
2.656151958E0,-6.537321001E0,2.962937953E0,-2.344722367E0,7.550714546E0
2.666142958E0,-6.519497518E0,3.302362974E0,-1.354757913E0,7.432685793E0
2.676133958E0,-5.688045087E0,3.259695842E0,8.116563901E-2,6.556375657E0
2.686123958E0,-4.380456224E0,2.910650396E0,1.369277573E0,5.434630027E0
2.696114958E0,-3.053365728E0,2.326421751E0,2.495974048E0,4.578773513E0
2.706105958E0,-2.271000380E0,1.487039326E0,3.131742391E0,4.144458841E0
2.716096958E0,-2.077335481E0,5.579717231E-1,3.225784330E0,3.877156134E0
2.726087958E0,-2.442646418E0,-1.403957409E-1,3.396689672E0,4.186135834E0
2.736078958E0,-3.489951885E0,-6.633262700E-1,3.540624733E0,5.015554745E0
2.746068958E0,-4.664392338E0,-1.122994019E0,2.470436334E0,5.396362398E0
2.756059958E0,-5.480829704E0,-1.740112667E0,-6.786126459E-1,5.790336904E0
2.766050958E0,-6.006362244E0,-2.270109556E0,-2.631102617E0,6.939199218E0
2.776041958E0,-5.815843002E0,-2.397792866E0,-2.850279649E0,6.906340168E0
2.786032958E0,-4.405905938E0,-1.667164559E0,-2.351868980E0,5.265238124E0
2.796023958E0,-2.534109589E0,-4.828449422E-1,-1.350683427E0,2.911905968E0
2.806014958E0,-1.054698248E0,6.295124066E-1,-8.852845296E-2,1.231467235E0
2.816004958E0,-1.751416504E-1,1.334141069E0,7.565460902E-1,1.543686813E0
2.825995958E0,2.303896523E-1,1.618681201E0,1.125518993E0,1.984943633E0
2.835986958E0,5.753087175E-1,1.672763268E0,1.130126599E0,2.099119625E0
2.845977958E0,7.906444207E-1,1.631522271E0,8.568889886E-1,2.005303533E0
2.855968958E0,1.101209194E0,1.498256040E0,5.824230248E-1,1.948499276E0
2.865959958E0,1.289618615E0,1.232094292E0,4.148921102E-1,1.831203970E0
2.875949958E0,1.549584507E0,8.136470747E-1,2.515858090E-1,1.768199402E0
2.885940958E0,1.868340791E0,3.233323145E-1,1.431199586E-1,1.901505829E0
2.895931958E0,1.951609819E0,-9.474185050E-2,1.404967515E-1,1.958952843E0
2.905922958E0,1.482807696E0,-1.220202810E-1,1.258687721E-1,1.493134475E0
2.915913958E0,6.346686275E-1,1.816683125E-1,1.383578400E-1,6.745002109E-1
2.925904958E0,-3.631310955E-2,4.701442051E-1,1.666731280E-1,5.001341291E-1
2.935894958E0,-4.917370954E-1,6.676678276E-1,2.901281695E-1,8.784987500E-1
2.945885958E0,-4.273814705E-1,7.682089466E-1,3.044582333E-1,9.303196885E-1
2.955876958E0,-2.048174393E-1,7.682609868E-1,3.277931553E-1,8.600136510E-1
2.965867958E0,-7.207234159E-2,7.291577321E-1,4.394669344E-1,8.543983890E-1
2.975858958E0,-1.944593892E-2,6.592718107E-1,5.756759226E-1,8.754543008E-1
2.985849958E0,3.820658416E-2,5.889742452E-1,6.376685415E-1,8.688910020E-1
2.995840958E0,-1.944389239E-2,5.108934510E-1,5.973291855E-1,7.862520836E-1
3.005830958E0,-2.570268624E-1,5.072360176E-1,5.170352201E-1,7.685548805E-1
3.015821958E0,-6.004561302E-1,6.572059894E-1,6.988543908E-1,1.131752948E0
3.025812958E0,-8.993170432E-1,8.185511345E-1,1.110490918E0,1.646811216E0
3.035803958E0,-1.088643966E0,9.063125789E-1,1.638046010E0,2.165581424E0
3.045794958E0,-1.145073105E0,8.745738924E-1,2.172687196E0,2.607036931E0
3.055785958E0,-1.091192328E0,7.361802381E-1,2.515392652E0,2.838989650E0
3.065775958E0,-9.396810307E-1,4.680532408E-1,2.479130559E0,2.692241186E0
3.075766958E0,-9.091831233E-1,-1.403682590E-2,2.027748753E0,2.222290708E0
3.085757958E0,-8.659126311E-1,-7.258359289E-1,1.448493750E0,1.837056511E0
3.095748958E0,-7.524949931E-1,-1.371621137E0,1.247205251E0,2.000778398E0
3.105739958E0,-3.815017314E-1,-1.529792413E0,1.570606417E0,2.225446678E0
3.115730958E0,4.196258698E-1,-1.010643278E0,2.200351104E0,2.457443934E0
3.125721958E0,1.135679846E0,-7.374391437E-2,2.908350102E0,3.123092568E0
3.135711958E0,1.600680255E0,7.692976981E-1,3.522389606E0,3.944771827E0
3.145702958E0,1.833512582E0,1.317772958E0,3.838791801E0,4.453607127E0
3.155693958E0,2.034879579E0,1.544867120E0,3.822164074E0,4.597421834E0
3.165684958E0,2.241421070E0,1.626887768E0,3.598870018E0,4.541211031E0
3.175675958E0,2.775832314E0,1.532965112E0,3.453480170E0,4.688470151E0
3.185666958E0,3.502056499E0,1.092347592E0,3.639564300E0,5.167596276E0
3.195656958E0,3.672223338E0,2.921830273E-1,3.940647959E0,5.394376841E0
3.205647958E0,3.778195643E0,-6.280494332E-1,4.054837064E0,5.577715663E0
3.215638958E0,3.600268087E0,-1.249776272E0,3.877577552E0,5.436862946E0
3.225629958E0,2.880336092E0,-1.279533922E0,3.379421090E0,4.621042086E0
3.235620958E0,1.578815323E0,-7.140806866E-1,2.527162512E0,3.064167001E0
3.245611958E0,2.433742717E-1,6.738097429E-2,1.585230449E0,1.605218617E0
3.255601958E0,-7.778746864E-1,8.284650886E-1,6.389199919E-1,1.303710929E0
3.265592958E0,-1.831667639E0,1.712040185E0,-3.172219376E-1,2.527195618E0
3.275583958E0,-3.176779985E0,2.707696465E0,-7.997207612E-1,4.250071119E0
3.285574958E0,-4.435320941E0,2.716747954E0,-1.354082413E0,5.374600495E0
3.295565958E0,-5.317434525E0,2.147406905E0,-1.595216909E0,5.952409876E0
3.305556958E0,-5.716395897E0,1.429554765E0,-1.837898578E0,6.172412823E0
3.315548458E0,-5.773973429E0,2.261170918E-1,-2.088086902E0,6.144103272E0
3.325538458E0,-5.542875679E0,-1.188996220E0,-2.292594586E0,6.114995727E0
3.335529458E0,-5.210559703E0,-2.862238959E0,-2.306510228E0,6.376702416E0
3.345520458E0,-4.527250573E0,-4.773410166E0,-2.240911485E0,6.950045082E0
3.355511458E0,-4.195806709E0,-6.746936665E0,-1.218003818E0,8.038002339E0
3.365502458E0,-3.277596508E0,-7.897758168E0,-7.538880922E-1,8.584029951E0
3.375493458E0,-1.940950638E0,-7.461886833E0,-1.205840294E0,7.803915382E0
3.385483458E0,-4.707757044E-1,-5.196809975E0,-2.481862378E0,5.778244071E0
3.395474458E0,6.135815214E-1,-2.573278332E0,-4.083500992E0,4.865513746E0
3.405465458E0,1.272450751E0,-7.139380145E-1,-5.486279894E0,5.676980313E0
3.415456458E0,1.778948265E0,5.946624166E-1,-6.029867467E0,6.314869911E0
3.425447458E0,1.918365913E0,1.548408194E0,-5.408547594E0,5.943911405E0
3.435438458E0,1.394652734E0,1.989592894E0,-3.664812284E0,4.397088265E0
3.445428458E0,4.349812429E-1,1.968634134E0,-1.364773170E0,2.434611846E0
3.455419458E0,-4.282281473E-2,1.876998909E0,9.685596979E-1,2.112597119E0
3.465410458E0,-2.061871496E-1,1.789150926E0,2.493090786E0,3.075561062E0
3.475401458E0,-6.214368170E-1,1.492541556E0,3.589816774E0,3.937086294E0
3.485392458E0,-1.349667035E0,8.148276275E-1,4.245746900E0,4.529007828E0
3.495383458E0,-2.072959571E0,-5.121225357E-2,4.437789928E0,4.898342936E0
3.505374458E0,-2.610085678E0,-9.426629645E-1,4.099840744E0,4.950742857E0
3.515364458E0,-2.864594802E0,-1.639403148E0,2.836564420E0,4.351970102E0
3.525355458E0,-2.836762056E0,-1.858600060E0,9.721922806E-1,3.527998154E0
3.535346458E0,-2.560043160E0,-1.483085439E0,-6.279766354E-1,3.024519475E0
3.545337458E0,-1.939601831E0,-7.314305449E-1,-1.808232437E0,2.750772701E0
3.555328458E0,-1.075603652E0,-1.374323720E-1,-2.841240731E0,3.041128041E0
3.565319458E0,1.566891535E-1,2.975390768E-1,-3.782976619E0,3.797893244E0
3.575309458E0,1.363499646E0,6.298451132E-1,-3.740089631E0,4.030397822E0
3.585300458E0,1.382370804E0,6.835055959E-1,-2.106818458E0,2.610902709E0
3.595291458E0,6.846458030E-1,6.085279191E-1,-5.553056851E-1,1.071172492E0
3.605282458E0,-8.694020301E-2,5.770839322E-1,5.079353446E-1,7.736813155E-1
3.615273458E0,-9.448227797E-1,6.399584574E-1,1.072955886E0,1.566356041E0
3.625264458E0,-1.622690344E0,7.699426460E-1,1.076266287E0,2.093868370E0
3.635254458E0,-2.116275014E0,8.732442355E-1,7.830807549E-1,2.419584860E0
3.645245458E0,-2.366630130E0,8.495074636E-1,5.176443538E-1,2.567207973E0
3.655236458E0,-2.229195419E0,7.281140041E-1,5.187412915E-1,2.401781578E0
3.665227458E0,-1.773026790E0,5.970328778E-1,6.463906869E-1,1.979366862E0
3.675218458E0,-1.151991531E0,5.255155832E-1,8.238811639E-1,1.510639364E0
3.685209458E0,-5.739844693E-1,4.245177966E-1,1.044488132E0,1.265159669E0
3.695200458E0,-1.007992736E-1,2.057296050E-1,1.217770076E0,1.239132406E0
3.705190458E0,3.312782420E-1,-6.381592691E-2,1.400621572E0,1.440679886E0
3.715181458E0,7.141603549E-1,-1.106345826E-1,1.601664049E0,1.757154731E0
3.725172458E0,7.131176502E-1,1.055615383E-1,1.724614914E0,1.869218185E0
3.735163458E0,5.508827050E-1,3.319207048E-1,1.791174062E0,1.903141516E0
3.745154458E0,7.284179132E-1,1.049119127E-1,1.951932440E0,2.086058344E0
3.755145458E0,1.066894516E0,-4.747196513E-1,2.293106948E0,2.573317340E0
3.765135458E0,1.558560568E0,-1.036166959E0,2.555803636E0,3.167788698E0
3.775126458E0,2.326451426E0,-1.361952766E0,2.601256090E0,3.746174691E0
3.785117458E0,3.067585864E0,-1.373483475E0,2.513811857E0,4.197116860E0
3.795108458E0,3.298271677E0,-9.576856309E-1,2.382814053E0,4.180138830E0
3.805099458E0,2.783667583E0,-7.120154500E-2,2.091004955E0,3.482266015E0
3.815090458E0,2.038379576E0,9.157926697E-1,1.692420730E0,2.803204494E0
3.825080458E0,1.402692656E0,1.729225152E0,1.472255665E0,2.669326330E0
3.835071458E0,1.012526667E0,2.338752360E0,1.550803652E0,2.983280881E0
3.845062458E0,8.528757522E-1,2.677031327E0,1.751995817E0,3.311099986E0
3.855053458E0,8.789142805E-1,2.675568938E0,1.934438740E0,3.416608361E0
3.865044458E0,1.196428762E0,1.707719677E0,2.255991454E0,3.072010045E0
3.875035458E0,1.984043594E0,-2.289839816E-1,2.700642676E0,3.358918503E0
3.885026458E0,2.428345883E0,-1.655727405E0,2.773558917E0,4.041154047E0
3.895016458E0,2.718500365E0,-2.970603068E0,2.915922246E0,4.971652579E0
3.905007458E0,3.117721937E0,-4.851834192E0,3.007459238E0,6.504252161E0
3.914998458E0,2.501586791E0,-5.869016996E0,1.628030899E0,6.584358859E0
3.924989458E0,-9.216743839E-1,-4.554513216E0,-1.194691554E0,4.797953961E0
3.934980458E0,-4.126106729E0,-2.400787809E0,-3.396103197E0,5.858502860E0
3.944971458E0,-5.370004503E0,-4.617037493E-1,-4.326736684E0,6.911640113E0
3.954961458E0,-6.345749259E0,1.087199703E0,-4.414059003E0,7.806052378E0
3.964952458E0,-7.001730257E0,2.204828902E0,-4.009555641E0,8.364331026E0
3.974943458E0,-6.427119112E0,2.391073245E0,-2.638357258E0,7.347517973E0
3.984934458E0,-4.619928356E0,2.103629971E0,-9.151893101E-1,5.158155537E0
3.994925458E0,-2.968771135E0,1.952867117E0,1.144079663E0,3.733123398E0
4.004916458E0,-1.786731348E0,1.856002727E0,2.955006205E0,3.920359257E0
4.014906458E0,-1.438612394E0,1.486116636E0,4.041891328E0,4.540378154E0
4.024897458E0,-1.811689311E0,9.949142683E-1,4.314875607E0,4.784372902E0
4.034888458E0,-2.610381839E0,4.890079075E-1,4.342332378E0,5.090095536E0
4.044879458E0,-3.369046083E0,-6.797388196E-3,4.534206421E0,5.648853475E0
4.054870458E0,-4.118718479E0,-4.194260412E-1,4.519133468E0,6.128811257E0
4.064861458E0,-4.543797024E0,-6.061492717E-1,4.064379719E0,6.126392971E0
4.074851458E0,-4.270233870E0,-5.148923618E-1,3.074970605E0,5.287291903E0
4.084842458E0,-3.672083005E0,-4.393521827E-1,1.602684973E0,4.030610755E0
4.094833458E0,-2.794576734E0,-5.900132954E-1,-1.502880603E-3,2.856182254E0
4.104824458E0,-1.902220728E0,-9.530172139E-1,-1.567722716E0,2.642809116E0
4.114815458E0,-1.300824658E0,-1.254721262E0,-3.301392921E0,3.763730258E0
4.124806458E0,-8.452680860E-1,-1.135431631E0,-3.995673766E0,4.238996576E0
4.134797458E0,-7.451953290E-1,-5.391425192E-1,-2.546741329E0,2.707744842E0
4.144787458E0,-8.723908344E-1,1.963150030E-1,-3.313757443E-1,9.536326506E-1
4.154778458E0,-8.637094733E-1,7.312943047E-1,1.549830821E0,1.919052107E0
4.164769458E0,-5.134730963E-1,1.266195838E0,2.673951014E0,3.002818767E0
4.174760458E0,-2.710899277E-1,1.576798764E0,2.847317449E0,3.266037469E0
4.184751458E0,-5.829674006E-3,1.590728002E0,2.087225608E0,2.624301869E0
4.194742458E0,1.409426017E-1,1.321319295E0,6.644839456E-1,1.485694588E0
4.204732458E0,6.466114193E-2,7.794303381E-1,-5.863342273E-1,9.774868497E-1
4.214723458E0,-1.841295518E-1,5.485799253E-2,-1.117510573E0,1.133906068E0
4.224714458E0,-2.668005565E-1,-5.069495040E-1,-9.151260871E-1,1.079646281E0
4.234705458E0,-2.688245702E-1,-7.571834368E-1,-1.663136704E-1,8.205203492E-1
4.244696458E0,-2.720586652E-1,-7.329847348E-1,6.692090075E-1,1.029137131E0
4.254687458E0,-2.049208619E-1,-6.004037976E-1,1.326773577E0,1.470647954E0
4.264677458E0,-1.742415447E-1,-4.000378436E-1,1.764237109E0,1.817394556E0
4.274668458E0,-2.616512060E-1,-7.852927566E-2,1.865167653E0,1.885067260E0
4.284659458E0,-1.846607713E-1,3.494962656E-1,1.655713372E0,1.702243816E0
4.294650458E0,1.000155274E-1,7.609285784E-1,1.383595065E0,1.582198063E0
4.304641458E0,1.592256756E-1,9.485511106E-1,1.188845873E0,1.529201274E0
4.314631833E0,-1.755812880E-1,9.227923715E-1,1.192009290E0,1.517649728E0
4.324622833E0,-7.254758866E-1,8.135312998E-1,1.366983710E0,1.748368640E0
4.334612833E0,-1.216941964E0,6.601769596E-1,1.658337602E0,2.160292796E0
4.344603833E0,-1.544447874E0,5.119985747E-1,2.040922092E0,2.610138839E0
4.354594833E0,-1.743118428E0,3.350401944E-1,2.423803181E0,3.004252927E0
4.364585833E0,-1.774118465E0,1.302683634E-1,2.640380979E0,3.183720762E0
4.374576833E0,-1.797677190E0,-5.725125790E-2,2.542224939E0,3.114133688E0
4.384567833E0,-1.770552541E0,-1.790148461E-1,2.202627425E0,2.831690341E0
4.394557833E0,-1.564009734E0,-2.798249370E-1,1.606294021E0,2.259338161E0
4.404548833E0,-1.216098576E0,-3.099626559E-1,1.017837619E0,1.615848388E0
4.414539833E0,-9.292208735E-1,-2.021885312E-1,8.338538826E-1,1.264770308E0
4.424530833E0,-7.671158827E-1,-1.969698912E-1,1.275833804E0,1.501671006E0
4.434521833E0,-4.247735758E-1,-3.288889235E-1,1.923842708E0,1.997441183E0
4.444512833E0,-6.188925108E-2,-3.463528025E-1,2.348827697E0,2.375033072E0
4.454503833E0,2.844993474E-1,-2.646847415E-1,2.694978186E0,2.722848750E0
4.464493833E0,6.460759605E-1,-3.121448368E-1,2.987195712E0,3.072163206E0
4.474484833E0,7.317720222E-1,-4.334482491E-1,3.428664587E0,3.532578170E0
4.484475833E0,6.732161044E-1,-4.198604894E-1,3.867584075E0,3.948127320E0
4.494466833E0,7.414759152E-1,-1.173565418E-1,4.142439464E0,4.209912565E0
4.504457833E0,1.074951468E0,2.159809434E-1,4.178087014E0,4.319557792E0
4.514448833E0,1.634318702E0,2.672007984E-1,4.190773133E0,4.506104009E0
4.524438833E0,1.716546488E0,2.028352332E-1,4.264901209E0,4.601853572E0
4.534429833E0,1.440275781E0,1.109912628E-1,3.957397892E0,4.212803279E0
4.544420833E0,1.375619755E0,1.146755934E-2,3.281812350E0,3.558476291E0
4.554411833E0,1.520622810E0,-6.477487028E-2,2.577472540E0,2.993301556E0
4.564402833E0,1.716712987E0,-1.412131816E-1,1.938198207E0,2.593001530E0
4.574393833E0,1.693620725E0,-8.672122478E-2,1.539040369E0,2.290091044E0
4.584383833E0,1.382616826E0,1.701750255E-1,1.358039224E0,1.945471501E0
4.594374833E0,9.409608400E-1,5.588616693E-1,1.149991783E0,1.587518431E0
4.604365833E0,2.120863324E-1,1.068100358E0,8.478497779E-1,1.380097183E0
4.614356833E0,-5.426933871E-1,1.614890451E0,8.400811672E-1,1.899506159E0
4.624347833E0,-1.210875697E0,2.137145042E0,1.033105942E0,2.664754542E0
4.634338833E0,-1.699815850E0,2.715874965E0,1.011369503E0,3.359794491E0
4.644328833E0,-2.182823491E0,3.102087067E0,6.109539288E-1,3.841995220E0
4.654319833E0,-2.508018436E0,3.299824698E0,3.060181060E-1,4.156037366E0
4.664310833E0,-2.626175461E0,3.284062943E0,2.242851226E-1,4.210958416E0
4.674301833E0,-2.942882588E0,2.949791658E0,4.262707919E-1,4.188500393E0
4.684292833E0,-3.171625372E0,2.158815992E0,3.779511559E-1,3.855196631E0
4.694283833E0,-3.433062277E0,7.326637226E-1,-4.456513882E-2,3.510655036E0
4.704274833E0,-3.904878786E0,-1.456285311E0,-5.171745300E-2,4.167915539E0
4.714264833E0,-4.080322445E0,-3.900843623E0,-7.442920804E-2,5.645454095E0
4.724255833E0,-3.779907416E0,-6.317786120E0,-4.138127142E-1,7.373829567E0
4.734246833E0,-3.020520163E0,-8.085090094E0,-1.043156136E0,8.693698787E0
4.744237833E0,-1.672048007E0,-8.273721855E0,-2.012951936E0,8.677683641E0
4.754228833E0,-3.600978523E-1,-6.553175726E0,-3.202817636E0,7.302864052E0
4.764219833E0,4.063015272E-1,-3.990505412E0,-4.433935151E0,5.979046354E0
4.774209833E0,7.330236188E-1,-2.113617600E0,-5.050552400E0,5.523837664E0
4.784200833E0,1.003419774E0,-8.333223706E-1,-4.917011350E0,5.087069691E0
4.794191833E0,1.164055214E0,1.342906630E-1,-3.954676014E0,4.124623728E0
4.804182833E0,1.208454438E0,8.591559541E-1,-2.358958291E0,2.786251119E0
4.814173833E0,1.493716116E0,1.678432143E0,-8.091419412E-1,2.388102380E0
4.824164833E0,1.966740075E0,2.148775738E0,4.617484805E-1,2.949324559E0
4.834154833E0,2.523709146E0,2.203827274E0,2.135819332E0,3.973372211E0
4.844145833E0,2.400918349E0,1.826050365E0,3.544481849E0,4.654269054E0
4.854136833E0,1.890379385E0,1.184241264E0,4.284261340E0,4.830202566E0
4.864127833E0,1.192115417E0,5.978392088E-1,4.426080878E0,4.622633755E0
4.874118833E0,1.485017359E-1,6.061223745E-2,4.190538952E0,4.193607435E0
4.884109833E0,-9.012484516E-1,-1.070110631E-1,3.614023077E0,3.726239786E0
4.894100833E0,-1.574330509E0,2.182578492E-1,2.691977395E0,3.126163037E0
4.904090833E0,-2.202476128E0,6.706534159E-1,1.595696088E0,2.801235996E0
4.914081833E0,-2.929098362E0,9.740169042E-1,5.985815129E-1,3.144300553E0
4.924072833E0,-3.379875419E0,1.194754558E0,-2.497895443E-1,3.593520713E0
4.934063833E0,-3.234002299E0,1.285028551E0,-9.712833309E-1,3.612957314E0
4.944054833E0,-2.708482330E0,1.259096734E0,-1.503916437E0,3.344094163E0
4.954045833E0,-2.293742248E0,1.215570645E0,-1.855991910E0,3.191170861E0
4.964035833E0,-2.312197084E0,1.148451042E0,-1.806242337E0,3.150826325E0
4.974026833E0,-2.423004452E0,1.067167727E0,-1.449148492E0,3.018249307E0
4.984017833E0,-2.391468810E0,9.344990820E-1,-1.017212040E0,2.761726260E0
4.994008833E0,-2.148203735E0,6.854521340E-1,-4.506785318E-1,2.299507567E0
5.003999833E0,-1.787681082E0,4.170854008E-1,7.207219541E-2,1.837105953E0
5.013990833E0,-1.387885313E0,1.802322364E-1,3.318213022E-1,1.438337470E0
5.023980833E0,-9.507790460E-1,1.191311717E-2,3.801751444E-1,1.024038992E0
5.033971833E0,-5.292224255E-1,-9.883840978E-2,3.193538690E-1,6.259650953E-1
5.043962833E0,-1.128654416E-1,-1.877441543E-1,2.131500140E-1,3.056458798E-1
5.053953833E0,2.227454410E-1,-2.504017478E-1,-2.237466305E-2,3.358827063E-1
5.063944833E0,4.415067355E-1,-2.971438050E-1,-3.381552985E-1,6.305328257E-1
5.073935833E0,6.838314320E-1,-2.736596328E-1,-6.896881494E-1,1.009051419E0
5.083926833E0,9.141269441E-1,-9.788882196E-2,-9.520924768E-1,1.323514403E0
5.093916833E0,8.892179516E-1,5.956734002E-2,-8.937761486E-1,1.262177736E0
5.103907833E0,5.751812482E-1,2.094057494E-1,-2.285281911E-1,6.533830196E-1
5.113898833E0,2.733884682E-1,3.352074248E-1,7.734995073E-1,8.862317755E-1
5.123889833E0,2.300863279E-1,2.022540200E-1,1.537732347E0,1.567949992E0
5.133880833E0,5.577394424E-1,-1.666713738E-1,2.295997811E0,2.368640661E0
5.143871833E0,1.367017770E0,-6.773285973E-1,2.873220615E0,3.253138225E0
5.153861833E0,2.250879087E0,-1.256408769E0,3.269849532E0,4.163764597E0
5.163852833E0,3.047795378E0,-1.558922657E0,3.595131308E0,4.964299108E0
5.173843833E0,3.718439146E0,-1.208597841E0,3.833818451E0,5.475916575E0
5.183834833E0,4.229409780E0,-2.067756718E-1,3.964873265E0,5.800938137E0
5.193825833E0,4.548894626E0,9.130093950E-1,3.924439477E0,6.076779878E0
5.203816833E0,4.543827722E0,1.918436957E0,3.770080585E0,6.208081696E0
5.213806833E0,4.123178735E0,2.259872251E0,3.205307965E0,5.690485447E0
5.223797833E0,4.497798148E0,7.284548968E-1,2.655891888E0,5.273954535E0
5.233788833E0,5.097738261E0,-1.366124754E0,2.015987664E0,5.649552060E0
5.243779833E0,4.678748422E0,-3.082449778E0,-1.103908268E0,5.710586388E0
5.253770833E0,3.482211049E0,-6.021607105E0,-4.507292272E0,8.288620485E0
5.263761833E0,2.712819795E0,-8.219574884E0,-5.030128076E0,1.001114334E1
5.273751833E0,4.679646555E-1,-8.070209514E0,-5.456421087E0,9.752938204E0
5.283742833E0,-3.307117638E0,-5.520194914E0,-5.681958135E0,8.584534187E0
5.293733833E0,-5.185381007E0,-2.966835707E0,-5.145164443E0,7.884352062E0
5.303724833E0,-5.400790678E0,-1.050255826E0,-4.375151630E0,7.029475729E0
5.313716000E0,-5.346974074E0,4.828654075E-1,-2.714157638E0,6.015807713E0
5.323707000E0,-5.624856566E0,1.666597379E0,-1.611806922E-1,5.868776485E0
5.333698000E0,-5.679429799E0,2.623726940E0,1.564675732E0,6.448881767E0
5.343688000E0,-5.339000226E0,3.451973342E0,2.568153833E0,6.856854780E0
5.353679000E0,-4.503024974E0,3.785051211E0,3.061824895E0,6.631637676E0
5.363670000E0,-3.115372526E0,3.626027411E0,3.230913507E0,5.769958652E0
5.373661000E0,-1.941440196E0,3.129022266E0,2.718731330E0,4.577277621E0
5.383652000E0,-1.380487270E0,2.545033357E0,2.153706695E0,3.608516651E0
5.393643000E0,-1.753241713E0,1.861674526E0,2.062302874E0,3.285236931E0
5.403633000E0,-3.014709493E0,1.061384246E0,2.143658109E0,3.848412651E0
5.413624000E0,-4.833980596E0,6.890300453E-2,1.436262690E0,5.043309086E0
5.423615000E0,-6.429895370E0,-1.296767421E0,-9.178045504E-1,6.623256405E0
5.433606000E0,-7.100887340E0,-2.418026571E0,-2.113015483E0,7.793220640E0
5.443597000E0,-6.802408031E0,-2.903548368E0,-1.721650084E0,7.593907239E0
5.453588000E0,-5.114105787E0,-2.610102342E0,-1.083199769E0,5.842947371E0
5.463578000E0,-2.893456659E0,-1.649310086E0,-9.975364521E-2,3.332006300E0
5.473569000E0,-1.315505847E0,-2.521032876E-1,6.358009408E-1,1.482684908E0
5.483560000E0,-4.107138361E-1,8.818577689E-1,1.049841258E0,1.431267147E0
5.493551000E0,1.308460683E-1,1.510321185E0,1.219603470E0,1.945667854E0
5.503542000E0,5.635005578E-1,1.951963137E0,1.124167555E0,2.321948677E0
5.513533000E0,9.947948389E-1,2.160659620E0,9.824361639E-1,2.573567092E0
5.523524000E0,1.188406528E0,2.110910339E0,6.582830465E-1,2.510296617E0
5.533514000E0,1.351953004E0,1.781472362E0,1.407575373E-1,2.240810877E0
5.543505000E0,1.346500036E0,1.214804075E0,-3.421768673E-1,1.845507057E0
5.553496000E0,1.514281797E0,4.563728428E-1,-6.635220055E-1,1.715105531E0
5.563487000E0,1.752685204E0,-3.522719389E-1,-7.244244111E-1,1.928935372E0
5.573478000E0,1.869378087E0,-8.254181045E-1,-5.740072735E-1,2.122586589E0
5.583469000E0,1.563891621E0,-6.973968261E-1,-3.010130538E-1,1.738599492E0
5.593459000E0,8.671477092E-1,-2.919473845E-1,1.208448444E-1,9.229203115E-1
5.603450000E0,1.264013804E-1,1.378697437E-1,5.181397592E-1,5.508667581E-1
5.613441000E0,-4.118647143E-1,4.560377973E-1,7.475067334E-1,9.676617859E-1
5.623432000E0,-3.215409469E-1,6.834050238E-1,7.059137343E-1,1.033801338E0
5.633423000E0,-5.173265576E-2,7.304534751E-1,4.789540587E-1,8.750060213E-1
5.643414000E0,-1.319465873E-1,6.691664690E-1,4.286827683E-1,8.055821380E-1
5.653404000E0,-4.337735005E-1,5.835410124E-1,6.167181140E-1,9.534258204E-1
5.663395000E0,-8.083760291E-1,5.227896112E-1,9.956038012E-1,1.384921554E0
5.673386000E0,-1.052449847E0,5.663069290E-1,1.469377812E0,1.894049992E0
5.683377000E0,-1.075311291E0,5.778879243E-1,1.912389767E0,2.268806612E0
5.693368000E0,-1.062316731E0,6.054072601E-1,2.218449552E0,2.533091629E0
5.703359000E0,-9.975513625E-1,5.975959647E-1,2.439518450E0,2.702495130E0
5.713350000E0,-7.614118508E-1,5.784691375E-1,2.599780837E0,2.770060460E0
5.723340000E0,-3.371988768E-1,5.749760109E-1,2.656706405E0,2.739048999E0
5.733331000E0,2.103419435E-1,5.608333504E-1,2.593092207E0,2.661372762E0
5.743322000E0,6.970091558E-1,4.788998258E-1,2.370372933E0,2.516711077E0
5.753313000E0,9.095541291E-1,1.816250432E-1,2.056836312E0,2.256291645E0
5.763304000E0,1.037181890E0,-2.468402088E-1,1.902641873E0,2.180991164E0
5.773295000E0,1.332375356E0,-6.083799845E-1,2.031406918E0,2.504389019E0
5.783285000E0,1.792692584E0,-8.452998072E-1,2.204106771E0,2.964180346E0
5.793276000E0,2.305895393E0,-9.540556794E-1,2.350907552E0,3.428431437E0
5.803267000E0,2.649785056E0,-9.272900498E-1,2.552419560E0,3.794215767E0
5.813258000E0,2.510062914E0,-7.577915472E-1,3.026450409E0,4.004255979E0
5.823249000E0,2.042716456E0,-3.726489007E-1,3.684356310E0,4.229188946E0
5.833240000E0,1.605353350E0,4.008541149E-1,4.052048526E0,4.376864250E0
5.843230000E0,1.732538476E0,1.211368251E0,3.896064109E0,4.432653624E0
5.853221000E0,2.202909407E0,1.508244254E0,3.579623907E0,4.465570277E0
5.863212000E0,1.913170662E0,1.281372287E0,3.379505875E0,4.089400553E0
5.873203000E0,1.566993715E0,8.359477705E-1,3.145797343E0,3.612522512E0
5.883194000E0,1.610789360E0,3.089826626E-1,2.860125191E0,3.297033326E0
5.893185000E0,1.395176353E0,-2.130637676E-1,2.547545321E0,2.912370235E0
5.903176000E0,8.527601966E-1,-4.961602217E-1,2.276411101E0,2.481012378E0
5.913166000E0,9.738946974E-2,-4.384090269E-1,1.972841790E0,2.023312115E0
5.923157000E0,-5.626674758E-1,-9.136040568E-2,1.549823804E0,1.651331353E0
5.933148000E0,-1.162997598E0,3.993297458E-1,1.141923210E0,1.678099007E0
5.943139000E0,-1.749966980E0,1.000772594E0,7.554427207E-1,2.152817669E0
5.953130000E0,-2.664323573E0,1.825485524E0,7.006595725E-1,3.304836053E0
5.963121000E0,-4.091712237E0,2.309525052E0,-6.313414156E-2,4.698936147E0
5.973111000E0,-5.318336751E0,2.212402800E0,-1.093590125E0,5.863051365E0
5.983102000E0,-5.976318081E0,1.745650565E0,-2.241366398E0,6.617204624E0
5.993093000E0,-5.836402397E0,8.767280066E-1,-3.139154906E0,6.684799059E0
6.003084000E0,-4.704163053E0,-4.385780114E-1,-2.824242290E0,5.504347846E0
6.013075000E0,-3.515162740E0,-2.095935620E0,-2.182761656E0,4.638293184E0
6.023066000E0,-2.855150380E0,-3.744884348E0,-1.689513786E0,5.003049001E0
6.033056000E0,-2.679413775E0,-5.313350245E0,-1.521363359E0,6.142108390E0
6.043047000E0,-2.203556840E0,-6.457343370E0,-1.376470525E0,6.960432260E0
6.053038000E0,-1.004113839E0,-6.588925018E0,-1.991129834E0,6.956060344E0
6.063029000E0,2.897704661E-1,-5.207294617E0,-2.973752086E0,6.003589395E0
6.073020000E0,1.483867066E0,-3.172364168E0,-4.263194700E0,5.517298698E0
6.083011000E0,2.613467707E0,-1.404453253E0,-5.486251827E0,6.237119649E0
6.093002000E0,4.035334845E0,1.777553558E-3,-6.243612435E0,7.434152723E0
6.102992000E0,5.022385193E0,9.141361535E-1,-5.016069031E0,7.156881056E0
6.112983000E0,5.851689357E0,1.466566470E0,-2.349711796E0,6.474120100E0
6.122974000E0,5.435222007E0,1.657845266E0,-4.185621151E-1,5.697831468E0
6.132965000E0,3.407238634E0,1.292870836E0,1.330141866E0,3.879441647E0
6.142956000E0,1.067013215E0,6.118427056E-1,2.715272994E0,2.980868352E0
6.152947000E0,-7.247692506E-1,-4.986037731E-2,3.320396664E0,3.398942561E0
6.162937000E0,-1.868733724E0,-3.698732275E-1,3.497207695E0,3.982390437E0
6.172928000E0,-2.457683557E0,-3.623227179E-1,3.432160052E0,4.236886692E0
6.182919000E0,-2.510391820E0,7.302879989E-2,2.903886337E0,3.839265054E0
6.192910000E0,-2.525727605E0,6.936633790E-1,1.893259723E0,3.231857237E0
6.202901000E0,-2.888954887E0,1.235833002E0,8.588197392E-1,3.257439929E0
6.212892000E0,-3.505578277E0,1.614176506E0,-1.960238117E-1,3.864333083E0
6.222883000E0,-4.007398018E0,1.923136949E0,-1.478705290E0,4.684470507E0
6.232873000E0,-4.054445300E0,2.131441083E0,-3.323580473E0,5.659306931E0
6.242864000E0,-3.525060030E0,1.973413063E0,-3.850378936E0,5.580844495E0
6.252855000E0,-2.955359669E0,1.557688894E0,-2.767317599E0,4.338040129E0
6.262846000E0,-2.841725757E0,1.194979675E0,-1.675284295E0,3.508555140E0
6.272837000E0,-2.901196618E0,9.853096318E-1,-8.232365084E-1,3.172616465E0
6.282828000E0,-2.723859338E0,9.143963546E-1,-3.280729446E-1,2.891913250E0
6.292818000E0,-2.051586974E0,7.260820967E-1,2.790291309E-2,2.176461095E0
6.302809000E0,-1.043521003E0,4.971694511E-1,3.856656799E-1,1.218544855E0
6.312799833E0,4.538974240E-2,3.309313560E-1,5.562900639E-1,6.488716562E-1
6.322790833E0,9.034603071E-1,1.915910375E-1,5.196394238E-1,1.059704102E0
6.332781833E0,1.324957286E0,7.786327779E-2,2.633778888E-1,1.353123207E0
6.342772833E0,1.549326937E0,-7.618921995E-2,-3.007155767E-1,1.580078673E0
6.352762833E0,1.694425301E0,-3.352372456E-1,-9.190890375E-1,1.956575010E0
6.362753833E0,1.736091683E0,-7.457445288E-1,-1.232588674E0,2.255975194E0
6.372744833E0,1.429455947E0,-1.014075594E0,-1.054433369E0,2.045366310E0
6.382735833E0,6.597702858E-1,-9.784128410E-1,-4.568417895E-1,1.265422039E0
6.392726833E0,-1.316829510E-1,-9.009296322E-1,4.190600055E-1,1.002310276E0
6.402717833E0,-2.369413112E-1,-1.152578006E0,1.208006687E0,1.686374040E0
6.412708833E0,3.979220286E-1,-1.635347520E0,2.013637229E0,2.624392947E0
6.422698833E0,1.410669428E0,-2.176885643E0,2.836016536E0,3.843411132E0
6.432689833E0,2.699181749E0,-2.337405161E0,3.467337779E0,4.977095164E0
6.442680833E0,4.026762827E0,-1.967057140E0,4.031798742E0,6.028228077E0
6.452671833E0,4.979077206E0,-1.006361947E0,4.298208119E0,6.654214245E0
6.462662833E0,5.511880174E0,1.835160327E-1,4.282722353E0,6.982564854E0
6.472653833E0,5.388471179E0,1.094660166E0,3.967088191E0,6.780242712E0
6.482643833E0,4.904087542E0,1.165042516E0,3.325592793E0,6.038788463E0
6.492634833E0,5.354770167E0,-9.216615200E-1,2.967085091E0,6.190849492E0
6.502625833E0,6.289389117E0,-3.624817037E0,1.644585828E0,7.443142922E0
6.512616833E0,5.307923445E0,-4.944629504E0,-2.021824793E0,7.530683084E0
6.522607833E0,1.639167652E0,-4.825974296E0,-2.957742409E0,5.892803972E0
6.532598833E0,-2.064083205E-1,-4.631133960E0,-2.735297077E0,5.382551091E0
6.542588833E0,-7.481002258E-1,-4.223163784E0,-2.117659488E0,4.783225690E0
6.552579833E0,-1.271665763E0,-2.483131224E0,-1.469964580E0,3.153390295E0
6.562570833E0,-2.086220179E0,-3.342204148E-1,-9.036088264E-1,2.297939693E0
6.572561833E0,-2.365464195E0,1.239977508E0,-4.674170637E-1,2.711354604E0
6.582552833E0,-2.453725869E0,2.297747591E0,-1.199855084E0,3.569323024E0
6.592543833E0,-2.288218968E0,3.190335000E0,-2.154732736E0,4.478510536E0
6.602533833E0,-2.318458282E0,3.480195513E0,-2.706973749E0,4.981437192E0
6.612524833E0,-3.033202482E0,3.040871982E0,-2.624607530E0,5.033466439E0
6.622515833E0,-3.822177522E0,2.208252447E0,-1.555784018E0,4.680372185E0
6.632506833E0,-3.817266153E0,1.402660496E0,2.961800377E-1,4.077585066E0
6.642497833E0,-3.517466835E0,7.772025490E-1,2.077990515E0,4.158685047E0
6.652488833E0,-3.122199443E0,2.034819353E-1,2.748491904E0,4.164581852E0
6.662479833E0,-2.927053590E0,-1.951671946E-1,2.438346668E0,3.814612356E0
6.672469833E0,-3.327829353E0,-8.028402507E-2,1.527259984E0,3.662433178E0
6.682460833E0,-4.057246993E0,2.903265363E-1,1.746357201E-1,4.071368357E0
6.692451833E0,-4.706503401E0,4.403807080E-1,-1.466883389E0,4.949429897E0
6.702442833E0,-5.140779616E0,2.606016308E-1,-2.417276373E0,5.686717272E0
6.712433833E0,-5.248291200E0,-4.641344368E-2,-2.372961641E0,5.760005354E0
6.722424833E0,-4.927074993E0,-4.009909397E-1,-1.658711093E0,5.214229014E0
6.732414833E0,-4.393065160E0,-6.293136013E-1,-6.503084676E-1,4.485304695E0
6.742405833E0,-3.724203331E0,-6.248358035E-1,3.626910925E-1,3.793633490E0
6.752396833E0,-2.872432995E0,-2.423741055E-1,8.838317889E-1,3.015091234E0
6.762387833E0,-1.681037078E0,3.737715662E-1,6.538319997E-1,1.842033421E0
6.772378833E0,-4.738563100E-1,9.071124780E-1,-4.801382661E-2,1.024547792E0
6.782369833E0,2.064727130E-1,1.131191230E0,-6.059101206E-1,1.299750613E0
6.792359833E0,3.069353331E-1,1.063077015E0,-7.372919400E-1,1.329639592E0
6.802350833E0,2.915058466E-1,9.159248167E-1,-4.922813250E-1,1.079923530E0
6.812341833E0,2.745622236E-1,8.697025770E-1,4.578793779E-2,9.131612795E-1
6.822332833E0,5.848373401E-1,8.090575951E-1,3.761728714E-1,1.066824698E0
6.832323833E0,1.106764487E0,6.212958992E-1,6.974589528E-1,1.448235207E0
6.842314833E0,1.721453325E0,4.238997459E-1,9.537994252E-1,2.013163155E0
6.852305833E0,2.329740631E0,2.921075982E-1,8.640617681E-1,2.501923459E0
6.862295833E0,2.522622734E0,2.331232256E-1,7.423325323E-1,2.639891945E0
6.872286833E0,2.173098109E0,3.333602893E-1,3.463528025E-1,2.225633559E0
6.882277833E0,1.388483191E0,5.273533630E-1,-1.611540873E-1,1.493973822E0
6.892268833E0,6.462320081E-1,6.223834813E-1,-5.405389805E-1,1.047453768E0
6.902259833E0,2.571601789E-1,7.558461785E-1,-7.050984862E-1,1.065175421E0
6.912250833E0,2.235011206E-1,9.002197802E-1,-5.898992747E-1,1.099240446E0
6.922240833E0,3.733349619E-1,1.050498485E0,-2.719449368E-1,1.147553968E0
6.932231833E0,4.910634962E-1,1.181149841E0,1.430091539E-1,1.287132442E0
6.942222833E0,4.600976653E-1,1.220824953E0,4.649635720E-1,1.385025109E0
6.952213833E0,2.363655066E-1,1.135256799E0,6.344451177E-1,1.321815895E0
6.962204833E0,-4.719945565E-2,8.571228772E-1,6.208181816E-1,1.059387856E0
6.972195833E0,-3.646523217E-1,4.436264974E-1,4.447345448E-1,7.263364236E-1
6.982185833E0,-6.729116837E-1,-7.648742795E-3,3.413636658E-1,7.545845146E-1
6.992176833E0,-7.867944677E-1,-3.954115266E-1,5.771231085E-1,1.052837543E0
7.002167833E0,-6.618628581E-1,-6.923074096E-1,1.053947757E0,1.424134077E0
7.012158833E0,-5.589569789E-1,-8.556341761E-1,1.674835521E0,1.962044029E0
7.022149833E0,-5.201964442E-1,-7.658571965E-1,2.233687689E0,2.417954151E0
7.032140833E0,-5.043718686E-1,-5.766711187E-1,2.641476163E0,2.750333958E0
7.042131833E0,-3.374638287E-1,-3.662309968E-1,2.968771720E0,3.010251236E0
7.052121833E0,-5.925240350E-2,-1.643734181E-1,3.143379520E0,3.148231928E0
7.062112833E0,2.380022885E-1,-5.867505491E-2,2.965961548E0,2.976073883E0
7.072103833E0,5.981001043E-1,-1.111128849E-1,2.519446526E0,2.591848878E0
7.082094833E0,9.581567703E-1,-2.061120129E-1,2.185378724E0,2.395083866E0
7.092085833E0,1.403830378E0,-2.691637087E-1,2.058369014E0,2.506007149E0
7.102076833E0,1.842795183E0,-2.472711486E-1,2.405411788E0,3.040237322E0
7.112066833E0,2.151147808E0,-1.297631639E-1,2.908471139E0,3.619872889E0
7.122057833E0,2.370050605E0,-3.459212780E-3,3.164608421E0,3.953719552E0
7.132048833E0,2.530961448E0,2.432915336E-1,3.277318180E0,4.147983977E0
7.142039833E0,2.683283462E0,6.490865457E-1,3.395697400E0,4.376309440E0
7.152030833E0,3.332087587E0,9.308808249E-1,3.296882964E0,4.778994044E0
7.162021833E0,3.745523741E0,1.043416337E0,3.438537610E0,5.190491946E0
7.172011833E0,3.270013838E0,1.152013750E0,3.498368075E0,4.925312718E0
7.182002833E0,2.851651406E0,1.220793378E0,3.237351876E0,4.483603393E0
7.191993833E0,2.499746672E0,1.245011961E0,2.782208118E0,3.942013473E0
7.201984833E0,2.172031138E0,1.267317334E0,2.018233725E0,3.224450319E0
7.211975833E0,1.729574669E0,1.396360121E0,1.376054496E0,2.614340471E0
7.221966833E0,1.083917296E0,1.482172104E0,9.986582404E-1,2.090222268E0
7.231957833E0,4.440110249E-1,1.678063769E0,4.658581960E-1,1.797238899E0
7.241947833E0,-6.807154508E-1,1.959891962E0,-7.357368730E-2,2.076045066E0
7.251938833E0,-2.368651805E0,2.019173373E0,-1.210234330E0,3.339496911E0
7.261929833E0,-3.902972594E0,1.548112909E0,-3.146929949E0,5.247191320E0
7.271920833E0,-4.890000430E0,8.419628012E-1,-4.823992090E0,6.920397766E0
7.281911833E0,-5.020909356E0,-2.800231576E-1,-5.500285145E0,7.452588839E0
7.291902833E0,-4.761728014E0,-1.880618920E0,-4.528514156E0,6.835072909E0
7.301892833E0,-4.916650577E0,-3.596831093E0,-2.920586570E0,6.755773288E0
7.311883833E0,-5.473185055E0,-5.465944448E0,-1.540620287E0,7.887066262E0
7.321874833E0,-5.586162032E0,-7.321015713E0,-6.587122321E-1,9.232355015E0
7.331865833E0,-4.557265208E0,-8.599404750E0,-4.447705051E-1,9.742497064E0
7.341856833E0,-2.807260514E0,-8.686466868E0,-1.045920115E0,9.188545430E0
7.351847833E0,-6.730991600E-1,-7.127293366E0,-2.397143825E0,7.549680239E0
7.361838833E0,1.522891529E0,-4.693748869E0,-4.378313804E0,6.596977249E0
7.371828833E0,3.312453514E0,-2.420183609E0,-6.553923000E0,7.731981872E0
7.381819833E0,4.496605023E0,-2.831777304E-1,-7.578842840E0,8.816944208E0
7.391810833E0,6.501019732E0,1.576054414E0,-7.415996130E0,9.987201994E0
7.401801833E0,7.301375501E0,2.552296768E0,-5.820162925E0,9.679803689E0
7.411792833E0,6.445161281E0,2.605381885E0,-3.517670026E0,7.791156597E0
7.421783833E0,4.076661504E0,1.818789293E0,-1.096209970E0,4.596611774E0
7.431773833E0,2.005998280E0,1.145133331E0,9.444551361E-1,2.495466881E0
7.441764833E0,6.418102705E-1,5.316773790E-1,2.385251173E0,2.526662703E0
7.451755833E0,-4.457332492E-1,-3.726547480E-2,3.278578255E0,3.308948809E0
7.461746833E0,-1.110875226E0,-3.734528929E-1,3.652422327E0,3.835844064E0
7.471737833E0,-1.519449712E0,-2.969309664E-1,3.467318775E0,3.797261502E0
7.481728833E0,-2.026230670E0,2.139730096E-2,2.702060333E0,3.377454458E0
7.491718833E0,-2.561496778E0,4.886044496E-1,1.818440799E0,3.179107892E0
7.501709833E0,-2.827249513E0,1.143827648E0,7.558166501E-1,3.142123534E0
7.511700833E0,-2.774918687E0,1.774314786E0,-5.957201779E-1,3.347125514E0
7.521691833E0,-2.520132112E0,2.167720132E0,-2.007884154E0,3.883513256E0
7.531682833E0,-2.010174947E0,2.449976926E0,-3.134982918E0,4.457724549E0
7.541673833E0,-1.393766589E0,2.629954809E0,-3.787352968E0,4.816979355E0
7.551664833E0,-1.187232407E0,2.605982394E0,-3.366838467E0,4.419984875E0
7.561654833E0,-1.242120074E0,2.465601856E0,-2.465626414E0,3.701535952E0
7.571645833E0,-1.410783302E0,2.327178381E0,-1.613296792E0,3.163668011E0
7.581636833E0,-1.551437051E0,2.168664458E0,-9.656258574E-1,2.835929433E0
7.591627833E0,-1.503480820E0,1.930022045E0,-5.149183819E-1,2.500116120E0
7.601618833E0,-1.252550337E0,1.573375220E0,-1.849392450E-1,2.019553033E0
7.611609833E0,-7.834315878E-1,1.137688656E0,5.202706307E-2,1.382319553E0
7.621599833E0,-1.170195960E-1,6.471604729E-1,1.131249118E-1,6.673136513E-1
7.631590833E0,6.202663507E-1,2.104798830E-1,-6.191996723E-2,6.579256867E-1
7.641581833E0,1.210214450E0,-8.015947938E-2,-4.282173300E-1,1.286240505E0
7.651572833E0,1.448792835E0,-3.435087168E-1,-6.955710331E-1,1.643416557E0
7.661563833E0,1.420822971E0,-5.527975219E-1,-6.463994578E-1,1.655945432E0
7.671554833E0,1.319327148E0,-7.667143983E-1,-4.620645225E-1,1.594358402E0
7.681544833E0,1.533144037E0,-1.087218999E0,-1.134351066E-1,1.882934761E0
7.691535833E0,2.154169941E0,-1.508403883E0,4.137837705E-1,2.662132119E0
7.701526833E0,3.009853380E0,-2.021657270E0,1.014807081E0,3.765122694E0
7.711517833E0,3.963226982E0,-2.469541125E0,1.745015557E0,4.985065774E0
7.721508833E0,4.776296936E0,-2.546523812E0,2.387452357E0,5.915887483E0
7.731499833E0,4.892833406E0,-2.233559781E0,2.685225615E0,6.011575886E0
7.741490833E0,4.337525967E0,-1.528099059E0,2.842685578E0,5.406484952E0
7.751480833E0,4.077590919E0,-7.383074552E-1,3.051451057E0,5.146182969E0
7.761471833E0,4.171258636E0,-8.002791703E-2,3.178618057E0,5.244941928E0
7.771462833E0,4.288084835E0,3.466439939E-1,2.972577673E0,5.229154007E0
7.781453833E0,4.610087200E0,-3.451985621E-1,2.490954214E0,5.251373052E0
7.791444833E0,5.694586367E0,-2.650239969E0,2.536852518E0,6.774046537E0
7.801435833E0,6.521193210E0,-4.420776284E0,2.397528864E0,8.235130145E0
7.811425833E0,5.562804744E0,-5.183022825E0,1.156645330E0,7.690666463E0
7.821416833E0,3.274111275E0,-5.723517805E0,-1.835378428E0,6.844492288E0
7.831407833E0,1.254039039E0,-6.423610783E0,-4.932866660E0,8.195642921E0
7.841398833E0,-5.910640401E-1,-6.206978459E0,-6.531664404E0,9.029871438E0
7.851389833E0,-2.745647818E0,-4.010692924E0,-6.596254503E0,8.193583656E0
7.861380833E0,-4.037600641E0,-1.574965078E0,-5.692103055E0,7.154213522E0
7.871370833E0,-4.310729932E0,1.950028878E-1,-4.648769163E0,6.342828501E0
7.881361833E0,-4.513950496E0,1.665809174E0,-3.348380269E0,5.861938222E0
7.891352833E0,-4.825932781E0,2.944349070E0,-1.993136306E0,5.994281523E0
7.901343833E0,-4.878600991E0,3.726148700E0,-1.109056596E0,6.238183894E0
7.911334833E0,-5.025516377E0,4.003304383E0,-7.160938829E-1,6.464909225E0
7.921325833E0,-5.164754369E0,3.794886813E0,-7.701984617E-1,6.455157572E0
7.931316833E0,-4.473318195E0,3.351041629E0,1.579128295E-1,5.591510720E0
7.941306833E0,-3.088895749E0,2.468891500E0,1.237215868E0,4.143356766E0
7.951297833E0,-2.376218102E0,1.155962960E0,1.596006868E0,3.087053733E0
7.961288833E0,-2.061578697E0,-1.627917463E-1,1.423566631E0,2.510607462E0
7.971279833E0,-2.457551410E0,-1.080499379E0,1.018884929E0,2.871439419E0
7.981270833E0,-3.828884863E0,-1.437688242E0,7.063347338E-1,4.150447630E0
7.991261833E0,-5.267940184E0,-1.397379291E0,2.439005211E-1,5.455579724E0
8.001252833E0,-5.972389337E0,-1.171560407E0,-4.155198088E-1,6.100380717E0
8.011242833E0,-5.392153755E0,-7.025704426E-1,-1.301182653E0,5.591243479E0
8.021233833E0,-3.869163993E0,-2.057588410E-1,-1.567008917E0,4.179507585E0
8.031224833E0,-2.722201360E0,2.677048284E-1,-1.168559909E0,2.974487919E0
8.041215833E0,-2.210681380E0,6.790137649E-1,-4.123346843E-1,2.349083172E0
8.051206833E0,-1.641312264E0,1.114678109E0,4.930996428E-1,2.044397342E0
8.061197833E0,-1.108083107E0,1.557458514E0,1.361138833E0,2.346534491E0
8.071187833E0,-5.812204718E-1,1.815733538E0,1.772807373E0,2.603373100E0
8.081178833E0,-1.580775748E-1,1.677619965E0,1.777365570E0,2.449168356E0
8.091169833E0,1.832844830E-1,1.234081176E0,1.613067581E0,2.039249022E0
8.101160833E0,4.754197823E-1,7.400633740E-1,1.256477035E0,1.533770617E0
8.111151833E0,8.364567706E-1,3.538635510E-1,1.014456248E0,1.361616987E0
8.121142833E0,1.378758979E0,9.587854922E-2,8.705814135E-1,1.633426159E0
8.131132833E0,1.974980994E0,-2.587217510E-2,7.054937580E-1,2.097365190E0
8.141123833E0,2.540738577E0,-1.006890535E-2,5.301687974E-1,2.595483164E0
8.151114833E0,3.087287180E0,2.058459646E-1,2.094395171E-1,3.101222276E0
8.161105833E0,3.293688630E0,6.177975100E-1,-2.952311808E-1,3.364107609E0
8.171096833E0,2.911671613E0,9.081035811E-1,-9.607175584E-1,3.197727618E0
8.181087833E0,2.218855203E0,9.747121382E-1,-1.520972034E0,2.861247646E0
8.191078833E0,1.485131965E0,9.360076636E-1,-1.611000006E0,2.382655728E0
8.201068833E0,9.799805526E-1,8.161262941E-1,-1.509770962E0,1.976317882E0
8.211059833E0,7.241447680E-1,6.465161097E-1,-1.326572433E0,1.643825765E0
8.221050833E0,6.081943719E-1,4.804955310E-1,-1.112540367E0,1.355921243E0
8.231041833E0,5.806266505E-1,3.604024923E-1,-7.915077621E-1,1.045706365E0
8.241032833E0,5.444964857E-1,2.622131234E-1,-3.275662833E-1,6.874094959E-1
8.251023833E0,4.965390116E-1,1.990591013E-1,2.885130224E-1,6.077954261E-1
8.261013833E0,4.487395586E-1,1.515908200E-1,8.535138296E-1,9.761315615E-1
8.271004833E0,5.124055409E-1,9.195448279E-2,1.064114750E0,1.184632967E0
8.280995833E0,6.201434129E-1,6.030584335E-2,1.031320495E0,1.204921827E0
8.290986833E0,5.847524824E-1,6.368728817E-2,1.052337873E0,1.205573115E0
8.300977833E0,4.272713967E-1,1.423264915E-1,1.276361369E0,1.353482922E0
8.310968833E0,3.114991945E-1,3.086698365E-1,1.594492585E0,1.653697500E0
8.320958750E0,3.776890910E-1,4.683684057E-1,1.955539879E0,2.046009343E0
8.330949750E0,5.569528458E-1,6.574930876E-1,2.340142974E0,2.493744728E0
8.340940750E0,8.055318703E-1,8.069789100E-1,2.696403152E0,2.927573486E0
8.350931750E0,9.620387368E-1,7.678598678E-1,2.975662079E0,3.220200633E0
8.360922750E0,1.021479338E0,5.115892696E-1,2.968192261E0,3.180457344E0
8.370913750E0,1.152191213E0,6.876559496E-2,2.507647430E0,2.760537797E0
8.380904750E0,1.308037344E0,-6.328324556E-1,1.775677333E0,2.294442983E0
8.390894750E0,1.405131091E0,-1.381467848E0,1.232651386E0,2.324279724E0
8.400885750E0,1.669365889E0,-1.785424495E0,1.132760769E0,2.694006322E0
8.410876750E0,1.960511767E0,-1.624615540E0,1.611830749E0,3.013466509E0
8.420867750E0,2.045721632E0,-8.636390144E-1,2.525600136E0,3.362960807E0
8.430858750E0,2.296849020E0,1.888966405E-1,3.298816053E0,4.024100485E0
8.440849750E0,3.051874395E0,8.882961380E-1,3.645619676E0,4.836687935E0
8.450839750E0,3.254171100E0,1.175352327E0,3.736569023E0,5.092448399E0
8.460830750E0,3.115355861E0,1.284136850E0,3.303007337E0,4.718506868E0
8.470821750E0,2.992434817E0,1.060667962E0,2.831932256E0,4.254353413E0
8.480812750E0,2.864660583E0,5.025009423E-1,2.607123771E0,3.905877854E0
8.490803750E0,2.700145663E0,-2.104015303E-1,2.485683534E0,3.676095487E0
8.500794750E0,2.466096531E0,-7.825030500E-1,1.985653625E0,3.261405132E0
8.510785750E0,1.947506974E0,-1.188914943E0,1.383976888E0,2.668650255E0
8.520775750E0,1.141646929E0,-1.246057443E0,8.380984495E-1,1.886379037E0
8.530766750E0,-1.692323081E-2,-9.112558150E-1,-5.231313810E-2,9.129130411E-1
8.540757750E0,-1.637123027E0,-5.081896985E-1,-1.467389027E0,2.256470503E0
8.550748750E0,-3.118428573E0,-7.384390175E-2,-2.301192770E0,3.876278867E0
8.560739750E0,-4.114848207E0,6.911783123E-1,-3.740470870E0,5.603643953E0
8.570730750E0,-4.367069901E0,1.380552174E0,-6.454910928E0,7.914739346E0
8.580720750E0,-3.938279836E0,1.231962145E0,-7.237384742E0,8.331117374E0
8.590711750E0,-3.418038442E0,1.390444493E-1,-6.025077428E0,6.928483106E0
8.600702750E0,-3.173448241E0,-1.288967820E0,-4.558501602E0,5.701942532E0
8.610693750E0,-3.159465795E0,-2.688770782E0,-2.912310713E0,5.068852544E0
8.620684750E0,-2.828072216E0,-3.828144021E0,-1.255682837E0,4.922338722E0
8.630675750E0,-2.005513400E0,-4.827905631E0,-4.094539073E-1,5.243892570E0
8.640666750E0,-1.099968488E0,-5.624250210E0,-2.699811494E-1,5.737160528E0
8.650656750E0,2.696962439E-1,-5.510696697E0,-7.343389499E-1,5.565947165E0
8.660647750E0,1.850429161E0,-4.073419515E0,-1.706086842E0,4.788273900E0
8.670638750E0,3.102991632E0,-2.056512523E0,-2.792920218E0,4.653837574E0
8.680629750E0,4.693122048E0,-1.613773048E-2,-4.501802321E0,6.503220673E0
8.690620750E0,6.012820494E0,1.580110043E0,-6.048290289E0,8.673671279E0
8.700611750E0,6.197157476E0,2.497035903E0,-5.247427567E0,8.495613289E0
8.710601750E0,3.837611248E0,2.055437220E0,-3.611428667E0,5.656368028E0
8.720592750E0,1.508395843E0,1.625527121E0,-1.780046226E0,2.843617592E0
8.730583750E0,2.116063491E-1,1.333198498E0,-9.804172665E-2,1.353442892E0
8.740574750E0,-4.826639709E-1,1.129929986E0,9.977133304E-1,1.582762829E0
8.750565750E0,-8.149732232E-1,8.740651846E-1,1.793515580E0,2.155195916E0
8.760556750E0,-8.850630663E-1,5.675477082E-1,2.340783682E0,2.566070007E0
8.770546750E0,-9.412634334E-1,2.369133908E-1,2.610107313E0,2.784737867E0
8.780537750E0,-9.615788533E-1,8.034483612E-2,2.163363664E0,2.368803818E0
8.790528750E0,-1.052041565E0,2.420805752E-1,1.117776548E0,1.553968749E0
8.800519750E0,-1.222711411E0,6.466921109E-1,-1.940199709E-1,1.396738211E0
8.810510750E0,-1.512000359E0,1.057609284E0,-1.639230071E0,2.468148640E0
8.820501750E0,-1.734740538E0,1.486617157E0,-3.063100172E0,3.821248222E0
8.830492750E0,-1.700500558E0,1.878047315E0,-4.195517271E0,4.901135485E0
8.840482750E0,-1.211754460E0,2.068705721E0,-4.192058351E0,4.829207539E0
8.850473750E0,-7.550072493E-1,1.980004045E0,-3.071573080E0,3.731623393E0
8.860464750E0,-6.381015278E-1,1.765863220E0,-1.882754323E0,2.658986708E0
8.870455750E0,-6.803862526E-1,1.651106350E0,-8.631130573E-1,1.983441903E0
8.880446750E0,-7.061829986E-1,1.475913829E0,-1.069362187E-1,1.639649784E0
8.890437750E0,-7.294579867E-1,1.019152147E0,3.082754418E-1,1.290664093E0
8.900427750E0,-6.726413231E-1,4.075860143E-1,3.551356128E-1,8.629565528E-1
8.910418750E0,-4.644851236E-1,-1.633437234E-1,1.855029166E-1,5.261548575E-1
8.920409750E0,-1.359061025E-1,-6.633981907E-1,-1.587627223E-1,6.955380868E-1
8.930400750E0,2.936803530E-1,-1.048083000E0,-5.729885423E-1,1.230057720E0
8.940391750E0,8.105484889E-1,-1.209922820E0,-9.682299149E-1,1.748819960E0
8.950382750E0,1.173816117E0,-1.276419110E0,-1.299090812E0,2.166731861E0
8.960373750E0,1.329959725E0,-1.310929962E0,-1.355708816E0,2.307656090E0
8.970363750E0,1.448747811E0,-1.213742806E0,-1.004807757E0,2.140486031E0
8.980354750E0,1.738036613E0,-1.105596798E0,-3.863576978E-1,2.095802428E0
8.990345750E0,2.276900074E0,-1.154456132E0,3.410639960E-1,2.575532480E0
9.000336750E0,3.049869093E0,-1.336286997E0,1.297729872E0,3.573718965E0
9.010327750E0,3.864643803E0,-1.559112691E0,2.267857794E0,4.744415989E0
9.020318750E0,4.724172809E0,-1.567253185E0,2.874921862E0,5.747979383E0
9.030308750E0,5.274591392E0,-1.257566518E0,3.329468912E0,6.363030027E0
9.040299750E0,5.475534466E0,-6.034075123E-1,3.658702529E0,6.612993460E0
9.050290750E0,5.474411801E0,2.403445369E-1,3.796086369E0,6.666124945E0
9.060281750E0,5.259617842E0,9.823450935E-1,3.653670707E0,6.479034755E0
9.070272750E0,4.707812885E0,8.347771579E-1,3.047323215E0,5.669791340E0
9.080263750E0,5.040764746E0,-1.092503713E0,2.542194826E0,5.750272004E0
9.090254750E0,5.706291908E0,-3.018609293E0,2.006054852E0,6.760031470E0
9.100244750E0,4.939443609E0,-3.823077409E0,6.569197682E-1,6.280570644E0
9.110235750E0,2.990283626E0,-4.776401601E0,-3.413128827E0,6.588266602E0
9.120226750E0,1.097481009E0,-5.980287171E0,-6.205312003E0,8.687588634E0
9.130217750E0,2.051644716E-1,-6.075354127E0,-6.596114754E0,8.969991643E0
9.140208750E0,-9.662275359E-1,-4.721265281E0,-5.884893941E0,7.606307790E0
9.150199750E0,-2.409192305E0,-2.474483192E0,-4.169480497E0,5.414041212E0
9.160189750E0,-2.928854533E0,-5.359119326E-1,-2.536963322E0,3.911722558E0
9.170180750E0,-3.042474119E0,9.391786087E-1,-1.403854205E0,3.479872390E0
9.180171750E0,-3.481816362E0,1.981433104E0,-6.158006859E-1,4.053187981E0
9.190162750E0,-3.989040100E0,2.669046954E0,-1.483902003E-1,4.801902978E0
9.200153750E0,-4.620344093E0,3.059725159E0,-6.304064459E-1,5.577356890E0
9.210144750E0,-4.938464200E0,3.261365222E0,-1.199702764E0,6.038560961E0
9.220135750E0,-5.090586532E0,3.102097592E0,-1.557801161E0,6.161479138E0
9.230125750E0,-4.882269534E0,2.381154613E0,-1.491880236E0,5.633130545E0
9.240116750E0,-4.264324966E0,1.393003235E0,-1.015903434E0,4.599672295E0
9.250107750E0,-3.642387335E0,4.747816318E-1,-4.251264918E-1,3.697720329E0
9.260098750E0,-3.621107856E0,-1.171273309E-1,3.526672107E-1,3.640125695E0
9.270089750E0,-4.004076215E0,-4.095828384E-1,1.103622778E0,4.173531799E0
9.280080750E0,-4.333377952E0,-4.773620081E-1,1.737888386E0,4.693217980E0
9.290070750E0,-4.458970297E0,-5.051795518E-1,2.130005007E0,4.967347765E0
9.300061750E0,-4.126319275E0,-4.682918072E-1,1.987921759E0,4.604089584E0
9.310052750E0,-3.314514073E0,-2.784180969E-1,9.850061613E-1,3.468970642E0
9.320044458E0,-2.513255494E0,-1.295859933E-2,-4.390498817E-2,2.513672364E0
9.330035458E0,-1.904465035E0,1.228704661E-1,-7.002467591E-1,2.032837855E0
9.340026458E0,-1.271616792E0,1.986340088E-1,-9.545854372E-1,1.602403848E0
9.350017458E0,-6.492512910E-1,3.244222355E-1,-9.099121249E-1,1.163923151E0
9.360007458E0,-2.178270556E-1,4.920502138E-1,-6.960614683E-1,8.798088467E-1
9.369998458E0,-4.922836639E-2,6.494087273E-1,-2.618412405E-1,7.019372923E-1
9.379989458E0,1.204842174E-1,7.883631295E-1,7.623623157E-1,1.103281093E0
9.389980458E0,3.660006896E-1,8.346128511E-1,9.294732539E-1,1.301712582E0
9.399971458E0,6.827779830E-1,8.406717360E-1,5.491183077E-1,1.214267540E0
9.409962458E0,8.976085599E-1,7.937402290E-1,3.319110569E-1,1.243338099E0
9.419952458E0,7.759947335E-1,5.953915644E-1,1.646014595E-1,9.918430228E-1
9.429943458E0,5.877444296E-1,2.783724886E-1,-2.093078086E-1,6.831870283E-1
9.439934458E0,3.839775887E-1,-5.848560512E-2,-7.180769661E-1,8.163907667E-1
9.449925458E0,2.811297432E-1,-2.177462178E-1,-1.005059480E0,1.066110644E0
9.459916458E0,4.357304174E-1,-1.707381123E-1,-1.029412987E0,1.130797770E0
9.469907458E0,5.157079753E-1,1.392227894E-1,-6.623933467E-1,8.509422111E-1
9.479898458E0,6.829328611E-1,5.740784633E-1,-1.747764918E-1,9.091260622E-1
9.489888458E0,1.211645848E0,1.024483053E0,5.731967032E-2,1.587745802E0
9.499879458E0,1.680192886E0,1.404977163E0,1.395478946E-1,2.194648623E0
9.509870458E0,1.898267864E0,1.526225612E0,1.480455069E-1,2.440226008E0
9.519861458E0,1.882970086E0,1.326603423E0,1.015718369E-1,2.305595330E0
9.529852458E0,1.665115402E0,8.316927516E-1,7.067471087E-2,1.862610279E0
9.539843458E0,1.313882806E0,3.197918254E-1,2.166340774E-1,1.369483539E0
9.549833458E0,6.824055885E-1,-6.116479933E-2,6.454764748E-1,9.413067509E-1
9.559824458E0,-3.883662164E-2,-3.193316495E-1,1.189782670E0,1.232503058E0
9.569815458E0,-5.236985243E-1,-4.151833016E-1,1.731002120E0,1.855533794E0
9.579806458E0,-4.974044361E-1,-3.423720181E-1,1.906748811E0,2.000080199E0
9.589797458E0,-2.822693838E-1,-1.614983422E-1,1.944380322E0,1.971388484E0
9.599788458E0,-1.012703764E-1,4.085449576E-3,2.045752915E0,2.048262036E0
9.609779458E0,-1.357800128E-1,2.361667013E-1,2.187615138E0,2.204511491E0
9.619769458E0,-1.903635242E-1,5.266259694E-1,2.318588090E0,2.385251332E0
9.629760458E0,3.530728796E-2,7.881046826E-1,2.423280440E0,2.548459081E0
9.639751458E0,4.371882013E-1,9.557010859E-1,2.485337963E0,2.698407471E0
9.649742458E0,7.565971072E-1,9.669107831E-1,2.316467598E0,2.621712756E0
9.659733458E0,9.557431128E-1,7.532511842E-1,1.885207669E0,2.243844959E0
9.669724458E0,1.187435525E0,4.358192950E-1,1.402497359E0,1.888634540E0
9.679714458E0,1.455631008E0,2.598806691E-1,1.270350870E0,1.949407840E0
9.689705458E0,1.838163603E0,3.176856583E-1,1.614104000E0,2.466799816E0
9.699696458E0,2.206262932E0,5.184685189E-1,2.240411402E0,3.186824278E0
9.709687458E0,2.460550447E0,8.240767533E-1,2.896418858E0,3.888785568E0
9.719678458E0,2.625803286E0,1.221082231E0,3.273286525E0,4.370387784E0
9.729669458E0,3.214124105E0,1.552974284E0,2.963013967E0,4.639156675E0
9.739660458E0,3.947107670E0,1.491376791E0,2.442894633E0,4.875612564E0
9.749650458E0,3.912003326E0,1.119620760E0,2.103328840E0,4.580536309E0
9.759641458E0,3.785775681E0,5.231264108E-1,1.790446669E0,4.220362310E0
9.769632458E0,3.699796760E0,-2.941435987E-1,1.810273992E0,4.129419869E0
9.779623458E0,3.365076116E0,-1.089274296E0,2.301897944E0,4.220069893E0
9.789614458E0,2.752406030E0,-1.717707306E0,2.872573913E0,4.333351847E0
9.799605458E0,1.754400485E0,-2.235351952E0,3.093896872E0,4.200823404E0
9.809595458E0,6.354102007E-1,-2.255900822E0,2.409996589E0,3.361683835E0
9.819586458E0,-6.367783760E-1,-2.025570812E0,1.352539333E0,2.517496070E0
9.829577458E0,-1.984052949E0,-1.674215131E0,3.970720993E-1,2.626238501E0
9.839568458E0,-3.150520432E0,-1.188752975E0,-3.502751148E-1,3.385499266E0
9.849559458E0,-4.229339029E0,-5.761840457E-1,-1.378770527E0,4.485566279E0
9.859550458E0,-4.905279497E0,-2.621891499E-3,-3.634320517E0,6.104920920E0
9.869541458E0,-5.238413499E0,2.393616199E-1,-5.846112868E0,7.853362696E0
9.879531458E0,-5.305665250E0,-1.495483875E-2,-6.197741613E0,8.158572699E0
9.889522458E0,-5.162018457E0,-6.570919687E-1,-5.007259031E0,7.221554362E0
9.899513458E0,-4.923789443E0,-1.582220303E0,-3.654460081E0,6.332629947E0
9.909504458E0,-4.281608459E0,-2.382949709E0,-2.282545561E0,5.405611394E0
9.919495458E0,-3.391010857E0,-3.099331275E0,-1.061932569E0,4.715136240E0
9.929486458E0,-2.484284002E0,-3.784448948E0,-1.717983587E-1,4.530257776E0
9.939476458E0,-1.506318474E0,-4.086424892E0,2.695303291E-1,4.363543324E0
9.949467458E0,-4.479247856E-1,-3.479602021E0,4.912245870E-3,3.508317398E0
9.959458458E0,1.040994274E0,-1.902303904E0,-8.352639386E-1,2.323810464E0
9.969449458E0,1.731973197E0,-1.225500387E-1,-2.032159747E0,2.672905330E0
9.979440458E0,2.269108805E0,1.334252166E0,-3.243749315E0,4.177438597E0
9.989431458E0,2.741852098E0,2.322348581E0,-4.188331043E0,5.518439343E0
9.999422458E0,2.818750293E0,2.623839791E0,-4.053268256E0,5.590963424E0
1.000941246E1,2.481057217E0,2.520863891E0,-2.789170398E0,4.504427953E0
1.001940346E1,1.433301368E0,1.983187269E0,-1.140290667E0,2.699564291E0
1.002939446E1,2.529058179E-1,1.106334717E0,2.968298095E-1,1.173049783E0
1.003938546E1,-5.230433804E-1,5.532840103E-1,1.336515331E0,1.538171253E0
1.004937646E1,-1.144757502E0,2.575581551E-2,2.055032300E0,2.352507355E0
1.005936746E1,-1.538511781E0,-3.460499167E-1,2.493384901E0,2.950209706E0
1.006935746E1,-1.515241471E0,-4.216514915E-1,2.733621265E0,3.153796429E0
1.007934846E1,-9.996943671E-1,-2.111640072E-1,2.555166582E0,2.751882143E0
1.008933946E1,-6.478983915E-1,1.357501280E-1,1.930220266E0,2.040576070E0
1.009933046E1,-9.296498398E-1,4.347363907E-1,1.160260078E0,1.549015172E0
1.010932146E1,-1.746002421E0,6.792242646E-1,2.690888643E-1,1.892690908E0
1.011931246E1,-2.411645504E0,9.057372129E-1,-6.300105894E-1,2.652038325E0
1.012930346E1,-2.444774220E0,1.109468240E0,-1.408525254E0,3.031795533E0
1.013929346E1,-1.929538481E0,1.145094155E0,-1.909279048E0,2.946134052E0
1.014928446E1,-1.419847363E0,9.661605853E-1,-1.723972890E0,2.433416392E0
1.015927546E1,-1.312760725E0,6.405355775E-1,-1.235921002E0,1.913407241E0
1.016926646E1,-1.317268490E0,2.456134629E-1,-9.412511542E-1,1.637521292E0
1.017925746E1,-1.235092890E0,-1.101036555E-1,-9.953916934E-1,1.590088641E0
1.018924846E1,-9.002829301E-1,-2.781456167E-1,-1.220277069E0,1.541736185E0
1.019923846E1,-5.515472411E-1,-1.696867830E-1,-1.202360908E0,1.333667769E0
1.020922946E1,-3.084495427E-1,2.007056773E-1,-9.989283818E-1,1.064557092E0
1.021922046E1,-1.292044625E-1,6.397210604E-1,-7.048125574E-1,9.605714806E-1
1.022921146E1,-3.942660570E-2,1.044146070E0,-4.117612186E-1,1.123095176E0
1.023920246E1,4.588456303E-3,1.376943857E0,-9.577973127E-2,1.380278666E0
1.024919346E1,1.098131950E-1,1.550140724E0,2.560638991E-1,1.574980610E0
1.025918446E1,2.983196801E-1,1.388251787E0,5.703111023E-1,1.530193586E0
1.026917446E1,5.876757248E-1,9.351539701E-1,1.085700770E0,1.548748484E0
1.027916546E1,6.090988997E-1,4.469599950E-1,1.483853179E0,1.665111096E0
1.028915646E1,3.644850183E-1,1.484409249E-1,1.759622779E0,1.803096326E0
1.029914746E1,1.868737963E-1,-2.819381207E-1,2.137648487E0,2.164243973E0
1.030913846E1,4.746822292E-1,-1.158992987E0,2.761113119E0,3.031886148E0
1.031912933E1,1.244752344E0,-2.152140226E0,3.299986373E0,4.131709818E0
1.032911933E1,2.244818594E0,-2.737340679E0,3.772560681E0,5.173437794E0
1.033911033E1,3.320709198E0,-2.537551260E0,4.034285855E0,5.808763925E0
1.034910133E1,3.863833086E0,-1.575518224E0,4.128796155E0,5.870129597E0
1.035909233E1,3.807258936E0,-2.822392523E-1,4.047842624E0,5.564162966E0
1.036908333E1,3.615377292E0,8.783202034E-1,3.753545536E0,5.285026342E0
1.037907433E1,3.413861775E0,1.267932462E0,3.286361776E0,4.905331658E0
1.038906533E1,4.204315869E0,-2.262527472E-1,3.069747872E0,5.210644320E0
1.039905533E1,4.979616319E0,-2.012374231E0,2.559604619E0,5.949605410E0
1.040904633E1,4.382703309E0,-2.311090352E0,4.988445322E-1,4.979766338E0
1.041903733E1,2.194556075E0,-3.219831864E0,-1.358264342E0,4.126533124E0
1.042902833E1,7.397694053E-1,-5.590752681E0,-2.130913664E0,6.028645566E0
1.043901933E1,-1.942326634E-1,-7.130951384E0,-2.458684015E0,7.545417222E0
1.044901033E1,-2.659517454E0,-5.761883726E0,-2.955443577E0,7.000498832E0
1.045900033E1,-5.224155064E0,-2.927464650E0,-3.512806020E0,6.942740924E0
1.046899133E1,-6.619280253E0,-7.645246160E-1,-4.102101277E0,7.824743053E0
1.047898233E1,-6.613369303E0,1.089386562E0,-4.527065801E0,8.088123477E0
1.048897333E1,-5.814331496E0,2.541033277E0,-4.445210044E0,7.747463663E0
1.049896433E1,-4.688232606E0,3.362778161E0,-2.439333825E0,6.264036353E0
1.050895533E1,-3.838492131E0,3.483298046E0,5.339433213E-1,5.210804409E0
1.051894633E1,-2.986158416E0,3.198428131E0,2.998895990E0,5.304758407E0
1.052893633E1,-1.778215463E0,2.752974964E0,4.071116881E0,5.226367194E0
1.053892733E1,-9.716155989E-1,2.018796228E0,4.185076191E0,4.747045166E0
1.054891833E1,-8.291294785E-1,1.327982782E0,3.602338001E0,3.927828030E0
1.055890933E1,-1.493355781E0,1.177449138E0,2.890360558E0,3.459867355E0
1.056890033E1,-2.600795914E0,1.505909461E0,2.171603707E0,3.707797911E0
1.057889133E1,-3.794064694E0,1.664305855E0,1.645977027E0,4.458035582E0
1.058888233E1,-4.398089672E0,1.480805025E0,6.448753079E-1,4.685279122E0
1.059887233E1,-4.243903273E0,6.357010996E-1,-1.481146649E0,4.539672486E0
1.060886333E1,-4.044751494E0,-5.288180906E-1,-1.782138506E0,4.451480751E0
1.061885433E1,-3.661367105E0,-1.369700326E0,-9.310147262E-1,4.018516702E0
1.062884533E1,-2.929914048E0,-1.669909827E0,2.147635531E-1,3.379218629E0
1.063883633E1,-1.912901690E0,-1.275718029E0,1.074331590E0,2.537880559E0
1.064882733E1,-6.071658102E-1,-4.172187173E-1,1.350401445E0,1.538280157E0
1.065881733E1,8.163562359E-1,4.004471487E-1,8.649400198E-1,1.254956836E0
1.066880833E1,1.552925606E0,8.467154181E-1,-1.590941133E-1,1.775898610E0
1.067879933E1,1.226955759E0,9.425565451E-1,-1.003710381E0,1.844252641E0
1.068879033E1,6.118884601E-1,9.915708303E-1,-1.353232374E0,1.785737399E0
1.069878133E1,4.961796637E-1,1.046145233E0,-1.190325438E0,1.660568805E0
1.070877233E1,6.862505713E-1,1.142126108E0,-6.198114373E-1,1.469543505E0
1.071876333E1,1.125474115E0,1.199849821E0,-5.509655893E-2,1.646015555E0
1.072875333E1,1.235428813E0,1.183129708E0,6.324307519E-1,1.823745847E0
1.073874433E1,7.671633182E-1,1.015466647E0,1.186128160E0,1.739716092E0
1.074873533E1,-1.977373382E-1,7.245325845E-1,1.417293738E0,1.603985368E0
1.075872633E1,-1.233066976E0,2.377337551E-1,1.285963082E0,1.797407175E0
1.076871733E1,-1.830031734E0,-3.091802984E-1,6.199497239E-1,1.956769344E0
1.077870833E1,-1.815221322E0,-7.203056324E-1,-4.498198682E-1,2.004047545E0
1.078869833E1,-1.562135409E0,-1.001673065E0,-9.386270700E-1,2.079576097E0
1.079868933E1,-1.491239235E0,-1.009377356E0,-5.708999169E-1,1.889064271E0
1.080868033E1,-1.593259407E0,-7.263604242E-1,2.544654165E-1,1.769414495E0
1.081867133E1,-1.631140009E0,-2.690736616E-1,1.122404619E0,1.998201815E0
1.082866233E1,-1.552756476E0,2.052670902E-1,1.829330799E0,2.408243846E0
1.083865333E1,-1.357625680E0,5.946489680E-1,2.178424776E0,2.634822459E0
1.084864433E1,-9.822971463E-1,8.465066725E-1,2.212089243E0,2.564141192E0
1.085863433E1,-6.023768309E-1,9.501029617E-1,2.017408537E0,2.309868111E0
1.086862533E1,-4.012372537E-1,9.644116831E-1,1.894156394E0,2.163078749E0
1.087861633E1,-2.032189567E-1,9.008647281E-1,1.953056567E0,2.160390047E0
1.088860733E1,9.747948032E-3,7.766341996E-1,2.113746239E0,2.251927811E0
1.089859833E1,1.719800975E-1,6.242265236E-1,2.460962675E0,2.544714757E0
1.090858933E1,1.532583728E-1,3.987947255E-1,2.738604847E0,2.771729039E0
1.091858033E1,1.571499323E-1,1.090505719E-1,2.914974997E0,2.921244146E0
1.092857033E1,1.779905784E-1,-2.781380153E-1,2.844799638E0,2.863900554E0
1.093856133E1,2.378870801E-1,-6.853749508E-1,2.631461636E0,2.729637234E0
1.094855233E1,5.527071825E-1,-9.613822407E-1,2.562900109E0,2.792525383E0
1.095854333E1,1.021678875E0,-9.339500284E-1,2.651619912E0,2.991183468E0
1.096853433E1,1.233013767E0,-5.707934976E-1,2.874844387E0,3.179757603E0
1.097852533E1,1.055675756E0,2.762575507E-2,3.307160615E0,3.471674785E0
1.098851533E1,9.471119647E-1,7.769470257E-1,3.863762335E0,4.053310639E0
1.099850633E1,1.133826936E0,1.456071888E0,4.227359746E0,4.612621737E0
1.100849733E1,1.891195072E0,1.635804187E0,4.112346768E0,4.812885837E0
1.101848833E1,2.175034853E0,1.348458561E0,3.805300704E0,4.585785707E0
1.102847933E1,1.861091120E0,8.546787411E-1,3.449216380E0,4.011387484E0
1.103847033E1,1.792147478E0,3.813963354E-2,3.057924217E0,3.544594156E0
1.104846133E1,1.832121821E0,-8.597564632E-1,2.542924266E0,3.249971595E0
1.105845133E1,1.779369996E0,-1.462089257E0,2.197836217E0,3.183448855E0
1.106844233E1,1.654383130E0,-1.623215132E0,2.102830072E0,3.129489610E0
1.107843333E1,1.101773158E0,-1.521132687E0,1.962185240E0,2.716232622E0
1.108842433E1,1.212037904E-1,-1.237397717E0,1.577746013E0,2.008762293E0
1.109841533E1,-1.044475999E0,-7.931303644E-1,5.391255623E-1,1.417971177E0
1.110840633E1,-2.014502179E0,-2.079006761E-1,-6.917530936E-1,2.140085059E0
1.111839633E1,-2.842889061E0,4.404649079E-1,-1.588621250E0,3.286296551E0
1.112838733E1,-3.490193083E0,1.012923692E0,-2.048959674E0,4.172013651E0
1.113837833E1,-3.985438215E0,1.559281091E0,-2.168812392E0,4.797793501E0
1.114836933E1,-4.198381530E0,2.021940275E0,-2.344204304E0,5.216315152E0
1.115836033E1,-4.043607778E0,2.267176593E0,-2.532080605E0,5.282261425E0
1.116835133E1,-3.933114406E0,1.963565767E0,-2.230875324E0,4.929683982E0
1.117834233E1,-4.200811048E0,9.448802286E-1,-1.368501501E0,4.518009348E0
1.118833233E1,-4.491227047E0,-6.345573843E-1,-2.795587425E-1,4.544440180E0
1.119832333E1,-4.496214722E0,-2.407828442E0,2.921678245E-1,5.108712819E0
1.120831433E1,-3.899007012E0,-3.987725646E0,3.966960137E-1,5.591205526E0
1.121830533E1,-2.559668353E0,-5.261371422E0,-8.696753874E-2,5.851623251E0
1.122829633E1,-8.692004474E-1,-5.712965335E0,-1.020379770E0,5.868105079E0
1.123828733E1,6.667211634E-1,-4.940406060E0,-2.373434242E0,5.521351216E0
1.124827833E1,1.790529261E0,-3.137718830E0,-4.132957619E0,5.489318097E0
1.125826833E1,2.785587517E0,-1.300502622E0,-5.586004157E0,6.376068328E0
1.126825933E1,3.251483427E0,1.054264677E-1,-5.556011449E0,6.438363336E0
1.127825033E1,2.897594149E0,8.513756490E-1,-4.313381059E0,5.265562506E0
1.128824133E1,2.791171900E0,1.512593413E0,-2.638792875E0,4.128172386E0
1.129823233E1,1.963758433E0,1.735776372E0,-9.235112867E-1,2.778873854E0
1.130822333E1,8.833099249E-1,1.421499056E0,4.970887595E-1,1.745850287E0
1.131821387E1,-1.111953306E-1,8.611451769E-1,1.922544626E0,2.109529155E0
1.132820488E1,-9.450664625E-1,1.883206898E-1,2.943658221E0,3.097376151E0
1.133819588E1,-1.431557582E0,-2.943418193E-1,3.150152349E0,3.472672464E0
1.134818688E1,-1.705007592E0,-6.234979606E-1,2.785814096E0,3.325140715E0
1.135817788E1,-1.856530146E0,-8.045002753E-1,2.172916553E0,2.969089292E0
1.136816888E1,-1.994475904E0,-6.776665664E-1,1.431729052E0,2.546961755E0
1.137815987E1,-2.002084593E0,-9.413549423E-2,6.395915446E-1,2.103872989E0
1.138814987E1,-2.200125694E0,6.336306006E-1,-1.643582153E-1,2.295442099E0
1.139814088E1,-2.456677836E0,1.317687589E0,-9.343762904E-1,2.940174420E0
1.140813188E1,-2.613692533E0,1.884742962E0,-1.494778116E0,3.552183315E0
1.141812288E1,-2.542657633E0,2.182365654E0,-1.923098357E0,3.863435644E0
1.142811388E1,-2.260932498E0,2.234212915E0,-2.191209275E0,3.860689212E0
1.143810488E1,-1.842828512E0,2.090998231E0,-1.950577932E0,3.401917811E0
1.144809487E1,-1.651637424E0,1.671121370E0,-1.382365395E0,2.726075365E0
1.145808587E1,-1.744239486E0,1.123810875E0,-7.237262535E-1,2.197521776E0
1.146807688E1,-1.771784549E0,6.535894865E-1,-2.511671484E-1,1.905120637E0
1.147806788E1,-1.627859868E0,2.948084271E-1,-3.414773941E-3,1.654343198E0
1.148805888E1,-1.177429258E0,5.350085378E-2,8.535736173E-2,1.181730882E0
1.149804988E1,-4.420027256E-1,-9.360456705E-2,-2.498573720E-2,4.524958690E-1
1.150804088E1,2.927996162E-1,-2.275718790E-1,-2.225497055E-1,4.324915569E-1
1.151803087E1,9.627825026E-1,-4.462308472E-1,-4.632877600E-1,1.157889315E0
1.152802187E1,1.576112594E0,-5.968492752E-1,-8.011960137E-1,1.866085480E0
1.153801288E1,1.728764537E0,-5.665718079E-1,-8.422130620E-1,2.004732720E0
1.154800388E1,1.322291687E0,-3.708707625E-1,-4.269373745E-1,1.438150183E0
1.155799488E1,6.537611023E-1,-2.145629936E-1,3.862714514E-1,7.890795215E-1
1.156798588E1,1.944190434E-1,-3.869009042E-1,1.174650661E0,1.251916630E0
1.157797587E1,4.535578470E-1,-7.930771548E-1,1.704467456E0,1.933880917E0
1.158796687E1,1.441944430E0,-1.153677283E0,2.702602663E0,3.273260785E0
1.159795787E1,2.887679610E0,-1.484598699E0,3.511483964E0,4.782598295E0
1.160794888E1,4.572614442E0,-1.626773747E0,3.946312156E0,6.255283790E0
1.161793988E1,5.544998218E0,-1.300572204E0,4.281007365E0,7.124992446E0
1.162793088E1,5.554045615E0,-3.097486478E-1,4.453977944E0,7.126098964E0
1.163792188E1,5.008321470E0,6.902363259E-1,4.288215228E0,6.629366483E0
1.164791187E1,3.796039299E0,1.240367517E0,3.738269978E0,5.470200029E0
1.165790287E1,2.997732687E0,7.889121830E-2,3.178297922E0,4.369691381E0
1.166789388E1,4.140935560E0,-2.571107846E0,2.934730985E0,5.689515693E0
1.167788488E1,4.351813931E0,-3.912146875E0,1.957513753E0,6.170497367E0
1.168787588E1,2.514934815E0,-4.142179847E0,-1.808754593E0,5.172440835E0
1.169786688E1,-4.759648159E-1,-4.996613005E0,-5.360541953E0,7.343575019E0
1.170785788E1,-7.735423382E-1,-5.831127039E0,-5.434865327E0,8.008631057E0
1.171784787E1,-4.794886404E-1,-5.984304208E0,-3.942058892E0,7.182035541E0
1.172783887E1,-1.542047446E0,-4.364227862E0,-2.890095972E0,5.456835152E0
1.173782988E1,-3.134437373E0,-1.652091022E0,-2.664252822E0,4.433096602E0
1.174782088E1,-3.811526527E0,3.024752963E-1,-3.123679081E0,4.937266123E0
1.175781188E1,-3.970388067E0,1.840478370E0,-3.456415472E0,5.576571522E0
1.176780288E1,-4.001356675E0,2.807997263E0,-2.908841853E0,5.688327065E0
1.177779388E1,-4.362180752E0,3.317097958E0,-1.682417606E0,5.732563891E0
1.178778387E1,-4.483021649E0,3.233002717E0,-4.195207661E-1,5.543084642E0
1.179777487E1,-3.908257892E0,2.955323709E0,9.235367221E-1,4.986114524E0
1.180776588E1,-2.970132952E0,2.740012271E0,3.359231240E0,5.254882636E0
1.181775688E1,-2.045236606E0,2.077036250E0,4.845656608E0,5.654861654E0
1.182774788E1,-1.351366089E0,1.055563928E0,4.148787786E0,4.489192088E0
1.183773888E1,-8.845020260E-1,3.439314705E-1,3.384404672E0,3.514943481E0
1.184772888E1,-1.252544052E0,1.286252958E-1,3.015979216E0,3.268262795E0
1.185771987E1,-2.474249011E0,3.508686072E-1,2.609739230E0,3.613274941E0
1.186771087E1,-3.776465744E0,5.183515745E-1,1.846354821E0,4.235493832E0
1.187770188E1,-4.795606489E0,1.705895931E-1,4.355883300E-2,4.798837336E0
1.188769288E1,-5.431489729E0,-4.198148811E-1,-7.314048171E-1,5.496569678E0
1.189768388E1,-5.578170058E0,-8.905595952E-1,-1.020533551E-1,5.649733841E0
1.190767488E1,-5.125235962E0,-8.943345577E-1,1.162525801E0,5.330979667E0
1.191766487E1,-4.128646467E0,-5.071933329E-1,1.854642519E0,4.554411663E0
1.192765587E1,-2.756403771E0,1.778161669E-1,1.532366942E0,3.158722651E0
1.193764687E1,-1.179204034E0,8.395987719E-1,7.292470483E-1,1.620879239E0
1.194763788E1,1.986815174E-1,1.071268380E0,-6.243576474E-1,1.255751870E0
1.195762888E1,1.187267929E0,1.051852115E0,-1.729476582E0,2.346718401E0
1.196761988E1,1.595074676E0,1.046879643E0,-2.140476785E0,2.867378781E0
1.197761088E1,1.386462832E0,1.176091999E0,-1.904243426E0,2.632795966E0
1.198760087E1,8.656238517E-1,1.296639951E0,-1.250398854E0,1.998518729E0
1.199759187E1,5.638607463E-1,1.206188788E0,-4.054349698E-1,1.391836143E0
1.200758287E1,7.854693425E-1,9.227836007E-1,4.613757205E-1,1.296672363E0
1.201757388E1,1.327107307E0,5.219838649E-1,1.113871193E0,1.809527561E0
1.202756488E1,1.790144368E0,1.027648151E-1,1.362753834E0,2.252171281E0
1.203755588E1,1.628423685E0,-1.726986837E-1,1.157346411E0,2.005252914E0
1.204754588E1,7.985951722E-1,-2.652174228E-1,6.154590623E-1,1.042537475E0
1.205753687E1,-2.671885192E-1,-3.104631776E-1,4.101982579E-2,4.116548500E-1
1.206752787E1,-8.735839587E-1,-1.944298607E-1,-2.988511920E-1,9.435379901E-1
1.207751887E1,-1.090640644E0,1.890814126E-2,-2.794844829E-1,1.126040012E0
1.208750988E1,-1.146772818E0,2.006840426E-1,8.036530137E-2,1.166970677E0
1.209750088E1,-1.189376216E0,3.731231099E-1,6.950111622E-1,1.427192052E0
1.210749188E1,-1.267734533E0,5.358634007E-1,1.362780731E0,1.936871641E0
1.211748188E1,-1.313798898E0,6.142470807E-1,1.991531684E0,2.463648812E0
1.212747287E1,-1.312318968E0,6.337212324E-1,2.358210724E0,2.772172703E0
1.213746387E1,-1.261137412E0,5.896227014E-1,2.430509207E0,2.800981525E0
1.214745487E1,-1.186649951E0,4.358198798E-1,2.202695399E0,2.539674014E0
1.215744588E1,-1.142475041E0,2.783029068E-1,1.984253363E0,2.306504527E0
1.216743688E1,-1.141292734E0,1.809064204E-1,2.006353937E0,2.315325541E0
1.217742688E1,-1.094600670E0,1.734652537E-1,2.323065450E0,2.573883040E0
1.218741788E1,-8.417772252E-1,2.519424891E-1,2.790562620E0,2.925628762E0
1.219740887E1,-4.381080780E-1,3.532162642E-1,3.166613431E0,3.216230875E0
1.220739987E1,-6.464957541E-2,4.198710144E-1,3.186954140E0,3.215143531E0
1.221739088E1,2.244713016E-1,3.485823458E-1,2.752638749E0,2.783687680E0
1.222738188E1,5.955799909E-1,9.898459017E-2,2.160433917E0,2.243209349E0
1.223737288E1,1.125637033E0,-1.244158852E-1,1.974210477E0,2.275971233E0
1.224736288E1,1.607638149E0,-1.181178492E-1,2.310529019E0,2.817267576E0
1.225735388E1,1.843292050E0,9.400042355E-2,2.880518525E0,3.421103423E0
1.226734487E1,1.876731253E0,5.073465300E-1,3.468967690E0,3.976588680E0
1.227733587E1,1.910614260E0,1.094173093E0,4.024809857E0,4.587674355E0
1.228732688E1,2.179885557E0,1.669525664E0,4.429634231E0,5.211609771E0
1.229731788E1,2.825916348E0,1.861678619E0,4.627225097E0,5.732613940E0
1.230730888E1,3.190884638E0,1.627514589E0,4.566363768E0,5.803639080E0
1.231729800E1,3.392844543E0,9.922268879E-1,4.185238159E0,5.478332478E0
1.232728900E1,3.671365844E0,1.513680410E-1,3.744821783E0,5.246477831E0
1.233728000E1,3.727214647E0,-7.806880742E-1,3.456482715E0,5.142847038E0
1.234727100E1,3.378201946E0,-1.578718405E0,3.216379083E0,4.924397892E0
1.235726200E1,2.156274208E0,-2.030795299E0,2.813014759E0,4.084935745E0
1.236725300E1,5.955991405E-1,-2.059335558E0,1.973458087E0,2.913784154E0
1.237724400E1,-1.034624610E0,-1.854407607E0,6.495981771E-1,2.220642575E0
1.238723400E1,-3.276372393E0,-1.455688895E0,-1.109398073E0,3.752920236E0
1.239722500E1,-4.898482401E0,-7.177498144E-1,-2.172171033E0,5.406350121E0
1.240721600E1,-5.498570157E0,1.872448021E-1,-2.505371693E0,6.045347112E0
1.241720700E1,-5.641109487E0,1.049695662E0,-2.579079940E0,6.290916512E0
1.242719800E1,-5.523829544E0,1.612115362E0,-2.754814498E0,6.379703103E0
1.243718900E1,-5.133380549E0,1.834977894E0,-2.577543876E0,6.030130361E0
1.244717900E1,-5.124118559E0,1.408582556E0,-2.050338009E0,5.696014552E0
1.245717000E1,-5.611755880E0,2.278379273E-1,-1.291102346E0,5.762869029E0
1.246716100E1,-6.116407428E0,-1.503692197E0,-5.754588448E-1,6.324767421E0
1.247715200E1,-6.029885593E0,-3.115254997E0,-1.824062312E-1,6.789521780E0
1.248714300E1,-4.960395352E0,-4.180621197E0,-4.645783867E-1,6.503764196E0
1.249713400E1,-3.323049839E0,-4.921120189E0,-1.053572366E0,6.030762711E0
1.250712500E1,-1.254918606E0,-4.969780133E0,-1.835345684E0,5.444449380E0
1.251711500E1,9.511130682E-1,-3.918077706E0,-3.283813852E0,5.199940615E0
1.252710600E1,2.612277214E0,-2.232928866E0,-5.248202323E0,6.273244072E0
1.253709700E1,3.998417864E0,-6.549793696E-1,-6.593192316E0,7.738638660E0
1.254708800E1,5.197647881E0,5.354008859E-1,-6.270438291E0,8.162143956E0
1.255707900E1,5.955100290E0,1.366049325E0,-3.977683638E0,7.290492256E0
1.256707000E1,5.974036497E0,1.713475091E0,-1.448528395E0,6.381484425E0
1.257706100E1,4.575457358E0,1.567507539E0,9.465358678E-1,4.928267451E0
1.258705100E1,2.134414392E0,7.725674611E-1,2.943284292E0,3.716921804E0
1.259704200E1,1.662948132E-3,-1.170548254E-1,4.113446045E0,4.115111537E0
1.260703300E1,-1.286839872E0,-8.408272719E-1,4.151903767E0,4.427330149E0
1.261702400E1,-2.200559557E0,-1.342372779E0,3.672040905E0,4.486458676E0
1.262701500E1,-2.493439280E0,-1.217003798E0,2.807733554E0,3.947366894E0
1.263700600E1,-2.247030742E0,-6.910163444E-1,1.448765792E0,2.761444018E0
1.264699700E1,-1.900651774E0,2.635281622E-2,2.932858121E-1,1.923327378E0
1.265698700E1,-1.982666721E0,6.556594008E-1,-4.228963637E-1,2.130656685E0
1.266697800E1,-2.213694158E0,1.362514098E0,-1.072347191E0,2.811905936E0
1.267696900E1,-2.565991532E0,2.046618449E0,-1.643655536E0,3.670771464E0
1.268696000E1,-2.912118632E0,2.611237872E0,-2.112018679E0,4.445179530E0
1.269695100E1,-2.912375910E0,2.889193454E0,-2.016108847E0,4.571002859E0
1.270694200E1,-2.769959956E0,2.945296319E0,-1.520319339E0,4.319585565E0
1.271693200E1,-2.849924138E0,2.789051700E0,-9.929659760E-1,4.109362287E0
1.272692300E1,-3.027478935E0,2.632438706E0,-5.475692341E-1,4.049097962E0
1.273691400E1,-2.980612039E0,2.320773926E0,-2.983342981E-1,3.789332804E0
1.274690500E1,-2.717661874E0,1.521436157E0,-9.475529909E-2,3.115996247E0
1.275689600E1,-2.084010078E0,4.500771457E-1,9.227929562E-2,2.134053164E0
1.276688700E1,-1.281825738E0,-6.183980191E-1,3.245192993E-1,1.459728094E0
1.277687800E1,-4.902780689E-1,-1.499811400E0,4.748418581E-1,1.647811157E0
1.278686800E1,2.936860541E-1,-2.033393217E0,3.913480040E-1,2.091433177E0
1.279685900E1,9.828868380E-1,-2.224060979E0,-4.188769877E-2,2.431926881E0
1.280685000E1,1.506705267E0,-2.230280662E0,-5.818418115E-1,2.753697966E0
1.281684100E1,2.053475917E0,-2.080722919E0,-9.934474942E-1,3.087573341E0
1.282683200E1,2.308551052E0,-1.765162139E0,-1.181812330E0,3.137177987E0
1.283682300E1,2.199182392E0,-1.254244714E0,-9.969069993E-1,2.720910980E0
1.284681400E1,1.896027357E0,-6.060574704E-1,-3.495088372E-1,2.020985359E0
1.285680400E1,1.505843972E0,-2.960380965E-1,5.509404463E-1,1.630564319E0
1.286679500E1,1.472642458E0,-3.899677688E-1,1.907127857E0,2.440878394E0
1.287678600E1,2.174732552E0,-4.394352132E-1,3.192415732E0,3.887683524E0
1.288677700E1,3.348597493E0,-1.585683024E-1,4.153313531E0,5.337439682E0
1.289676800E1,4.410037288E0,2.548216581E-1,4.666335953E0,6.425578121E0
1.290675900E1,4.795158007E0,7.074248010E-1,4.719721909E0,6.765335547E0
1.291674900E1,4.627540846E0,1.296016054E0,4.659715151E0,6.693783473E0
1.292674000E1,4.064573262E0,1.202644206E0,4.179398544E0,5.952686879E0
1.293673100E1,4.262454734E0,-9.189589369E-1,3.786483779E0,5.774986173E0
1.294672200E1,5.067335663E0,-3.454158447E0,3.626854207E0,7.124827909E0
1.295671300E1,4.590187079E0,-4.693887448E0,2.927327240E0,7.188298934E0
1.296670400E1,3.019269444E0,-5.662285178E0,4.987176476E-1,6.436317325E0
1.297669500E1,1.737674378E0,-7.568126063E0,-3.013175476E0,8.329181881E0
1.298668500E1,-4.105359346E-2,-8.080738011E0,-5.166396852E0,9.591228734E0
1.299667600E1,-2.923884984E0,-5.737824773E0,-5.615569434E0,8.544375728E0
1.300666700E1,-4.499926534E0,-3.088954806E0,-6.032432055E0,8.135183901E0
1.301665800E1,-5.091679376E0,-7.853822190E-1,-6.283765265E0,8.125744889E0
1.302664900E1,-5.236275757E0,1.580402403E0,-5.079044713E0,7.464110848E0
1.303664000E1,-5.353820579E0,3.307584538E0,-2.318373644E0,6.706591282E0
1.304663100E1,-5.613230547E0,4.333329420E0,4.782952237E-1,7.107381189E0
1.305662100E1,-5.608114818E0,5.191308914E0,3.033948879E0,8.222255521E0
1.306661200E1,-4.891941998E0,5.333540681E0,4.807679527E0,8.688586487E0
1.307660300E1,-3.580270902E0,4.454431103E0,4.867707628E0,7.506988327E0
1.308659400E1,-1.924169275E0,3.171331549E0,3.820262559E0,5.324864056E0
1.309658500E1,-7.044725418E-1,1.647013299E0,2.833423296E0,3.352196585E0
1.310657600E1,-3.631087299E-1,3.126944751E-1,2.335598810E0,2.384249900E0
1.311656700E1,-1.528741084E0,-5.934871262E-1,2.062357399E0,2.634880322E0
1.312655700E1,-3.862123653E0,-8.773524892E-1,1.145548338E0,4.122866417E0
1.313654800E1,-5.751513689E0,-1.502692323E0,-3.616890551E0,6.958440285E0
1.314653900E1,-7.001572382E0,-2.551122063E0,-6.669586188E0,1.000068095E1
1.315653000E1,-7.327934139E0,-2.762442775E0,-5.748068510E0,9.714422290E0
1.316652100E1,-5.894451215E0,-2.168731701E0,-4.645421632E0,7.812035231E0
1.317651200E1,-3.769378919E0,-1.031672789E0,-2.676940695E0,4.736937583E0
1.318650300E1,-2.104724278E0,2.771533442E-1,-6.648184794E-1,2.224558804E0
1.319649300E1,-6.976378776E-1,1.316121705E0,5.186877894E-1,1.577311628E0
1.320648400E1,1.218040802E-1,1.805741816E0,1.384083746E0,2.278426552E0
1.321647500E1,3.062641458E-1,1.819994404E0,2.327016852E0,2.970047943E0
1.322646600E1,4.790712954E-1,1.727290893E0,2.796439072E0,3.321613255E0
1.323645700E1,7.272119249E-1,1.673509372E0,2.828932049E0,3.366352231E0
1.324644800E1,9.213079096E-1,1.469260283E0,2.593628397E0,3.120006779E0
1.325643800E1,9.876830167E-1,1.291164034E0,2.234895139E0,2.763580754E0
1.326642900E1,1.336627451E0,1.009725850E0,1.330922177E0,2.139502998E0
1.327642000E1,2.207634981E0,5.426403236E-1,2.588486356E-1,2.288037007E0
1.328641100E1,3.187440628E0,-1.420873404E-4,-7.157225847E-1,3.266808320E0
1.329640200E1,3.182774550E0,-2.503157938E-1,-1.735342362E0,3.633748058E0
1.330639300E1,1.761740495E0,-9.039269149E-2,-2.004416609E0,2.670128527E0
1.331638400E1,2.158592483E-1,9.039269149E-2,-1.263635197E0,1.285122548E0
1.332637446E1,-5.893900553E-1,2.384634876E-1,-1.178716815E-1,6.466368421E-1
1.333636546E1,-7.465053246E-1,3.720571625E-1,8.272295719E-1,1.174736352E0
1.334635646E1,-4.667105739E-1,4.016019738E-1,1.242591214E0,1.386771729E0
1.335634746E1,-2.202318692E-1,3.804672128E-1,1.252526218E0,1.327433351E0
1.336633846E1,-1.922753810E-1,3.231083661E-1,1.064179800E0,1.128648522E0
1.337632946E1,-3.422490073E-1,3.482549018E-1,9.361216843E-1,1.055812326E0
1.338632046E1,-5.066135084E-1,4.545204449E-1,1.004774428E0,1.213597022E0
1.339631046E1,-5.607983402E-1,5.825007927E-1,1.413198933E0,1.628168657E0
1.340630146E1,-5.608112041E-1,7.515344417E-1,1.978493270E0,2.189463141E0
1.341629246E1,-5.972487862E-1,9.184356111E-1,2.527191748E0,2.754437913E0
1.342628346E1,-6.543262357E-1,1.112587729E0,2.851265489E0,3.129809766E0
1.343627446E1,-4.637002811E-1,1.249030167E0,2.859534037E0,3.154683696E0
1.344626546E1,9.749457344E-2,1.279559065E0,2.389016633E0,2.711858600E0
1.345625646E1,7.658816086E-1,1.130433431E0,1.572853648E0,2.082864129E0
1.346624646E1,1.046133027E0,7.774744445E-1,9.705916053E-1,1.625087347E0
1.347623746E1,1.094104242E0,1.507915056E-1,8.233538912E-1,1.377575334E0
1.348622846E1,1.377949871E0,-4.841231436E-1,9.376630104E-1,1.735607382E0
1.349621946E1,1.546423502E0,-9.876262987E-1,1.274495961E0,2.234092950E0
1.350621046E1,1.478904095E0,-1.267768739E0,1.772702854E0,2.633793900E0
1.351620146E1,1.478812440E0,-1.259966215E0,2.243150384E0,2.967511540E0
1.352619246E1,1.600785505E0,-8.771688867E-1,2.664203705E0,3.229538802E0
1.353618246E1,1.635631402E0,-5.763015747E-2,3.046851929E0,3.458600584E0
1.354617346E1,1.622582171E0,8.465300614E-1,3.284400328E0,3.759876535E0
1.355616446E1,1.489473522E0,1.576389459E0,3.424209593E0,4.053239006E0
1.356615546E1,1.505163210E0,2.164334595E0,3.453647400E0,4.344829213E0
1.357614646E1,2.328092009E0,2.331947955E0,3.608538389E0,4.886669926E0
1.358613746E1,2.701988413E0,2.217040812E0,4.147927076E0,5.424141441E0
1.359612746E1,2.424391557E0,1.936352241E0,4.479252534E0,5.448929958E0
1.360611846E1,2.054573878E0,1.424616206E0,4.398689597E0,5.059572642E0
1.361610946E1,1.596340744E0,7.524542087E-1,4.220726080E0,4.574824559E0
1.362610046E1,1.089222913E0,2.235004628E-1,3.947506158E0,4.101117394E0
1.363609146E1,5.494850743E-1,-7.287092507E-2,3.032194714E0,3.082442019E0
1.364608246E1,-1.680171105E-1,-5.802893758E-2,2.222379320E0,2.229476833E0
1.365607346E1,-1.010562002E0,2.195571005E-2,1.370850474E0,1.703217142E0
1.366606346E1,-2.297412837E0,-1.377183008E-1,-2.058606557E-1,2.310725143E0
1.367605446E1,-4.113554218E0,-4.561506486E-1,-1.908756891E0,4.557713746E0
1.368604546E1,-4.848439298E0,-9.218287504E-1,-3.412756067E0,6.000336311E0
1.369603646E1,-4.289587569E0,-1.830291935E0,-4.757244369E0,6.661974487E0
1.370602746E1,-3.983256619E0,-3.178100286E0,-4.499944076E0,6.798246201E0
1.371601846E1,-4.627899573E0,-4.753850060E0,-3.068416461E0,7.309700707E0
1.372600946E1,-5.188937284E0,-6.298980305E0,-1.921361734E0,8.384143005E0
1.373599946E1,-5.362645197E0,-7.538290061E0,-1.205640904E0,9.329381037E0
1.374599046E1,-4.495335885E0,-7.727640445E0,-5.203641862E-1,8.955180091E0
1.375598146E1,-2.636174492E0,-6.260543633E0,-9.593067715E-1,6.860327398E0
1.376597246E1,-7.472213893E-1,-3.879880185E0,-2.256122724E0,4.549934044E0
1.377596346E1,4.009245738E-1,-1.821497138E0,-3.651609271E0,4.100346645E0
1.378595446E1,1.377620234E0,9.610191286E-2,-4.931341707E0,5.121054980E0
1.379594546E1,2.360000557E0,1.669466023E0,-5.670849595E0,6.365159429E0
1.380593546E1,3.037750154E0,2.759436722E0,-5.978516049E0,7.251556465E0
1.381592646E1,3.213026875E0,3.233871029E0,-5.052728149E0,6.805257180E0
1.382591746E1,3.072160433E0,2.912961216E0,-2.836641603E0,5.096081667E0
1.383590846E1,2.922902652E0,2.304968902E0,-2.381576782E-1,3.730008128E0
1.384589946E1,2.116399559E0,1.523692013E0,1.599088351E0,3.059063255E0
1.385589046E1,5.615066573E-1,3.894292402E-1,2.854023329E0,2.934688062E0
1.386588046E1,-9.470096384E-1,-6.572855115E-1,3.764296227E0,3.936848687E0
1.387587146E1,-2.336441540E0,-1.403407186E0,4.099727308E0,4.923035120E0
1.388586246E1,-3.261919538E0,-1.565535273E0,3.753889645E0,5.213703792E0
1.389585346E1,-3.516444157E0,-9.914515471E-1,2.789979653E0,4.596992728E0
1.390584446E1,-3.061299815E0,6.591800094E-2,1.473051032E0,3.397908339E0
1.391583546E1,-2.768085338E0,7.511426783E-1,5.148134243E-1,2.914025502E0
1.392582646E1,-2.705758113E0,1.128999694E0,-2.461747956E-1,2.942170849E0
1.393581646E1,-2.585132977E0,1.468709475E0,-8.488651469E-1,3.092020710E0
1.394580746E1,-2.249224471E0,1.789209983E0,-1.397843852E0,3.195974111E0
1.395579846E1,-1.705655610E0,1.882905182E0,-1.965677197E0,3.212239067E0
1.396578946E1,-1.226058942E0,1.811131194E0,-2.235197586E0,3.127223206E0
1.397578046E1,-1.135930983E0,1.586494033E0,-2.174995823E0,2.921970114E0
1.398577146E1,-1.619305391E0,1.217873279E0,-1.821726934E0,2.724711782E0
1.399576246E1,-2.025345694E0,9.444539666E-1,-1.469305306E0,2.674486223E0
1.400575246E1,-2.159854166E0,6.762246430E-1,-1.108195008E0,2.519989278E0
1.401574346E1,-2.119648565E0,2.958749592E-1,-6.570156625E-1,2.238776811E0
1.402573446E1,-1.848978321E0,-3.063005447E-2,-3.513246900E-1,1.882309238E0
1.403572546E1,-1.228429111E0,-2.866878140E-1,-1.314629495E-1,1.268270669E0
1.404571646E1,-4.576972371E-1,-3.686236775E-1,8.575555712E-2,5.939058781E-1
1.405570746E1,1.501598601E-1,-2.920625746E-1,3.657138106E-1,4.915232674E-1
1.406569846E1,4.725273840E-1,-1.933025175E-1,5.264900216E-1,7.333755756E-1
1.407568846E1,6.494883956E-1,-2.025411183E-1,6.536491281E-1,9.434592006E-1
1.408567946E1,8.541843590E-1,-3.155853385E-1,7.314302525E-1,1.167996250E0
1.409567046E1,1.015632854E0,-3.536021805E-1,7.163499910E-1,1.292169457E0
1.410566146E1,1.027099390E0,-3.173231310E-1,5.628342676E-1,1.213428835E0
1.411565246E1,8.702811590E-1,-3.791580212E-1,5.093082708E-1,1.077285949E0
1.412564346E1,8.152657302E-1,-6.568019468E-1,7.708007249E-1,1.300069523E0
1.413563446E1,1.215107253E0,-1.103857836E0,1.240193563E0,2.057442061E0
1.414562446E1,1.940192985E0,-1.540022117E0,1.750194144E0,3.033017718E0
1.415561546E1,2.815098706E0,-1.752652606E0,2.197882117E0,3.978348613E0
1.416560646E1,3.636571402E0,-1.629378682E0,2.532973475E0,4.721809089E0
1.417559746E1,4.157287298E0,-1.177497085E0,2.799473777E0,5.148455156E0
1.418558846E1,4.258045057E0,-4.128099167E-1,3.059504719E0,5.259460891E0
1.419557946E1,4.057871768E0,4.783115959E-1,3.261175187E0,5.227845529E0
1.420557046E1,3.852411428E0,1.321240357E0,3.064559345E0,5.096888646E0
1.421556046E1,3.890569772E0,1.759429529E0,2.810192600E0,5.111683467E0
1.422555146E1,4.658964953E0,4.750652218E-1,2.793066398E0,5.452784729E0
1.423554246E1,5.614156162E0,-2.128053206E0,2.917502456E0,6.675266319E0
1.424553346E1,5.404546344E0,-3.468117505E0,2.162445652E0,6.775922919E0
1.425552446E1,3.171240917E0,-3.912532207E0,2.787686375E-1,5.044044922E0
1.426551546E1,5.319410884E-1,-4.248219103E0,-1.094578890E0,4.419098304E0
1.427550646E1,-9.377891640E-1,-4.045972685E0,-1.999483459E0,4.609476932E0
1.428549646E1,-2.547002115E0,-2.878575495E0,-2.490157823E0,4.579771024E0
1.429548746E1,-4.043960073E0,-1.420246582E0,-2.795164379E0,5.116996905E0
1.430547846E1,-4.955531053E0,-2.397066057E-2,-3.006777452E0,5.796427629E0
1.431546946E1,-5.550414494E0,1.416520736E0,-3.045079638E0,6.487383298E0
1.432546083E1,-5.960627663E0,2.567268564E0,-2.824586983E0,7.078011136E0
1.433545183E1,-6.046548404E0,2.963629094E0,-2.259960398E0,7.102905462E0
1.434544283E1,-5.612951050E0,2.700304999E0,-1.200104760E0,6.343273447E0
1.435543283E1,-4.445297168E0,2.327809296E0,-2.311828271E-2,5.017957501E0
1.436542383E1,-2.733842874E0,1.797674997E0,9.275161909E-1,3.400855560E0
1.437541483E1,-1.701853750E0,9.094268060E-1,1.796288476E0,2.636288222E0
1.438540583E1,-1.481114635E0,1.154433328E-1,2.039627372E0,2.523312811E0
1.439539683E1,-2.007138926E0,-1.126413471E-1,1.640621562E0,2.594789751E0
1.440538783E1,-3.073776019E0,4.706248462E-2,8.214028215E-1,3.181983106E0
1.441537883E1,-3.842255691E0,1.698440731E-1,-5.401295292E-1,3.883750213E0
1.442536883E1,-3.928122346E0,4.308345437E-2,-1.814559417E0,4.327196231E0
1.443535983E1,-3.686498145E0,-2.334933543E-1,-2.049560914E0,4.224391987E0
1.444535083E1,-3.297498091E0,-6.299626422E-1,-1.167378625E0,3.554309981E0
1.445534183E1,-2.873997125E0,-8.003662938E-1,5.287344754E-4,2.983361520E0
1.446533283E1,-2.313144333E0,-6.629590648E-1,9.370701027E-1,2.582295839E0
1.447532383E1,-1.277357881E0,-9.110312819E-2,1.659435271E0,2.096107906E0
1.448531383E1,-9.135033385E-1,5.078645933E-1,1.922190869E0,2.187974528E0
1.449530483E1,-1.019363962E0,7.530354220E-1,1.297925608E0,1.814049646E0
1.450529583E1,-5.858655730E-1,8.787511432E-1,7.126355472E-1,1.274084559E0
1.451528683E1,-9.833328344E-2,9.931168342E-1,2.268197809E-1,1.023424494E0
1.452527783E1,3.754953984E-1,1.077216167E0,7.819364548E-2,1.143462160E0
1.453526883E1,7.821406688E-1,1.131476575E0,4.591403300E-1,1.450101068E0
1.454525983E1,1.199190182E0,1.127090578E0,6.253983057E-1,1.760543469E0
1.455524983E1,1.613371637E0,1.094076029E0,6.518651426E-1,2.055455803E0
1.456524083E1,1.921037506E0,1.006523915E0,7.182874659E-1,2.284603330E0
1.457523183E1,2.007391526E0,8.670280606E-1,6.789810205E-1,2.289623031E0
1.458522283E1,1.696204024E0,7.408802301E-1,4.856374262E-1,1.913597481E0
1.459521383E1,9.913393537E-1,6.995743293E-1,2.446118349E-1,1.237737010E0
1.460520483E1,4.677662156E-1,7.055384892E-1,-1.228934164E-1,8.553903109E-1
1.461519583E1,9.268311895E-2,6.315296960E-1,-4.089310201E-1,7.580530962E-1
1.462518583E1,-1.587982807E-1,5.235193437E-1,-4.300521863E-1,6.958694419E-1
1.463517683E1,-1.731116068E-1,4.049448270E-1,-2.985026979E-1,5.320261290E-1
1.464516783E1,-1.030467605E-1,2.713651854E-1,-1.397174639E-1,3.221469671E-1
1.465515883E1,-1.557697153E-1,1.958904952E-1,-6.086951494E-4,2.502751702E-1
1.466514983E1,-2.779745490E-1,1.798936826E-1,2.315115868E-1,4.040163385E-1
1.467514083E1,-4.284122981E-1,1.648984981E-1,5.182895941E-1,6.923530278E-1
1.468513183E1,-3.580714998E-1,1.794364303E-1,6.694303246E-1,7.800958857E-1
1.469512183E1,-3.687617814E-1,2.426623732E-1,9.235602571E-1,1.023637547E0
1.470511283E1,-3.915497330E-1,3.581583309E-1,1.220460087E0,1.330831097E0
1.471510383E1,-3.391746509E-1,4.708195585E-1,1.525453048E0,1.632089919E0
1.472509483E1,-2.630146123E-1,5.458165312E-1,1.854671755E0,1.951127799E0
1.473508583E1,-1.695969368E-1,6.174718201E-1,2.210759002E0,2.301627671E0
1.474507683E1,-4.621717824E-2,7.187701535E-1,2.531170778E0,2.631651966E0
1.475506783E1,2.978601986E-1,8.407769859E-1,2.687468022E0,2.831626919E0
1.476505783E1,7.147955087E-1,8.472557008E-1,2.702553254E0,2.921056133E0
1.477504883E1,1.070387058E0,7.578722388E-1,2.606293466E0,2.917681342E0
1.478503983E1,1.264604080E0,4.622206432E-1,2.353595517E0,2.711509406E0
1.479503083E1,1.529511308E0,-5.175487518E-2,2.082248019E0,2.584151741E0
1.480502183E1,1.827996026E0,-6.132705957E-1,1.921646640E0,2.722204273E0
1.481501283E1,2.004779721E0,-1.043016973E0,1.910649781E0,2.959325721E0
1.482500383E1,1.974924276E0,-1.177101814E0,2.253485337E0,3.219330791E0
1.483499383E1,1.917556074E0,-1.034574763E0,2.878297167E0,3.609980723E0
1.484498483E1,1.912397222E0,-5.964101493E-1,3.628635269E0,4.144871785E0
1.485497583E1,1.947334774E0,1.152796108E-1,4.027986649E0,4.475497576E0
1.486496683E1,2.605058827E0,5.034230483E-1,3.738854699E0,4.584626562E0
1.487495783E1,3.289367245E0,5.031634319E-1,3.435791758E0,4.783071745E0
1.488494883E1,3.172341363E0,5.736358291E-1,3.047229075E0,4.436035711E0
1.489493983E1,2.784735285E0,6.203644377E-1,2.478126592E0,3.778983203E0
1.490492983E1,2.416633179E0,6.403268319E-1,1.965129313E0,3.179916287E0
1.491492083E1,2.091112690E0,7.335425591E-1,1.709125932E0,2.798561849E0
1.492491183E1,1.889625679E0,9.238501328E-1,1.621464475E0,2.655810859E0
1.493490283E1,1.629670165E0,1.080077210E0,1.526577614E0,2.480490040E0
1.494489383E1,8.457725546E-1,9.990558511E-1,1.434722534E0,1.942130932E0
1.495488483E1,-3.189613746E-1,6.318588942E-1,9.914531551E-1,1.218179535E0
1.496487583E1,-2.006800372E0,1.637612146E-1,2.927010906E-1,2.034634955E0
1.497486583E1,-3.680430490E0,-3.470749336E-1,-6.679445471E-1,3.756618096E0
1.498485683E1,-4.822598113E0,-9.183993584E-1,-1.995399764E0,5.299295251E0
1.499484783E1,-5.489059660E0,-1.448635399E0,-3.125395238E0,6.480464171E0
1.500483883E1,-5.504888073E0,-1.730443711E0,-4.646350754E0,7.408562848E0
1.501482983E1,-4.837621949E0,-1.971907990E0,-5.725146840E0,7.750375061E0
1.502482083E1,-4.493515647E0,-2.613620612E0,-5.382384812E0,7.482831138E0
1.503481183E1,-4.008499634E0,-3.521765124E0,-4.136371808E0,6.751331027E0
1.504480183E1,-3.264481203E0,-4.232732753E0,-2.759737853E0,6.015730803E0
1.505479283E1,-2.756430961E0,-4.686398919E0,-2.069624611E0,5.817524603E0
1.506478383E1,-1.887074831E0,-4.699520656E0,-1.835021456E0,5.386450553E0
1.507477483E1,-5.488590568E-1,-4.379210182E0,-1.977129261E0,4.836090177E0
1.508476583E1,6.924155831E-1,-3.846557488E0,-2.309750170E0,4.539866705E0
1.509475683E1,2.182843079E0,-2.842463091E0,-2.933689303E0,4.631515223E0
1.510474683E1,3.927014006E0,-1.427874275E0,-4.254076844E0,5.963005428E0
1.511473783E1,4.999334300E0,8.351461172E-2,-5.257412857E0,7.255391656E0
1.512472883E1,6.669982629E0,1.713164020E0,-4.965764850E0,8.490136617E0
1.513471983E1,7.121569526E0,2.561902574E0,-4.372565114E0,8.740676347E0
1.514471083E1,5.009860457E0,2.170369506E0,-2.588416774E0,6.042276639E0
1.515470183E1,2.515017553E0,1.421260489E0,-8.919138104E-1,3.023376410E0
1.516469283E1,8.495175500E-1,7.433500940E-1,2.982790419E-1,1.167570048E0
1.517468383E1,-1.020773287E-1,3.030307817E-1,1.149335725E0,1.192987865E0
1.518467383E1,-7.563509394E-1,-6.741196454E-2,1.500387935E0,1.681598963E0
1.519466483E1,-1.139919662E0,-3.059795326E-1,1.443331389E0,1.864469310E0
1.520465583E1,-1.349444109E0,-3.063806516E-1,1.262486365E0,1.873163188E0
1.521464683E1,-1.400324972E0,-5.304067791E-2,9.450334257E-1,1.690210495E0
1.522463783E1,-1.362753834E0,4.145067787E-1,4.142977408E-1,1.483427282E0
1.523462883E1,-1.532890707E0,8.404489571E-1,-2.388777629E-1,1.764418021E0
1.524461983E1,-1.797816938E0,1.191120513E0,-1.004582055E0,2.379096241E0
1.525460983E1,-1.967828680E0,1.458382707E0,-1.788752438E0,3.032963092E0
1.526460083E1,-1.957742087E0,1.613943202E0,-2.443709296E0,3.522681061E0
1.527459183E1,-1.916880282E0,1.694408491E0,-2.720833112E0,3.734753402E0
1.528458283E1,-1.818551603E0,1.716300466E0,-2.530342813E0,3.557450207E0
1.529457383E1,-1.706075148E0,1.739103438E0,-2.058091856E0,3.189187242E0
1.530456483E1,-1.658459663E0,1.766586521E0,-1.474227492E0,2.836311528E0
1.531455583E1,-1.544737604E0,1.730616204E0,-9.292292789E-1,2.498942529E0
1.532454571E1,-1.277435356E0,1.514489080E0,-5.626389706E-1,2.059631247E0
1.533453671E1,-8.199302003E-1,1.061090131E0,-3.457166255E-1,1.384816878E0
1.534452771E1,-3.126867275E-1,4.698483360E-1,-2.893611610E-1,6.342399624E-1
1.535451871E1,2.172345865E-1,-1.968704885E-1,-3.294625354E-1,4.410152118E-1
1.536450971E1,6.714638400E-1,-7.909961307E-1,-4.388791430E-1,1.126567117E0
1.537450071E1,1.087800505E0,-1.243994545E0,-6.661645085E-1,1.781742832E0
1.538449171E1,1.526240668E0,-1.490502632E0,-9.257919931E-1,2.325532087E0
1.539448171E1,1.962176323E0,-1.595451967E0,-1.047336895E0,2.737246330E0
1.540447271E1,2.276081902E0,-1.555911341E0,-9.472857732E-1,2.915263155E0
1.541446371E1,2.507036396E0,-1.382695763E0,-6.876170656E-1,2.944468762E0
1.542445471E1,2.723493010E0,-1.247598184E0,-1.882876530E-1,3.001560868E0
1.543444571E1,3.391324852E0,-1.192264813E0,9.083953571E-1,3.707797427E0
1.544443671E1,4.373983941E0,-1.153826387E0,2.180901511E0,5.021890306E0
1.545442771E1,5.305358856E0,-1.055771504E0,3.129038346E0,6.249189310E0
1.546441771E1,5.589349934E0,-7.998429680E-1,3.193281704E0,6.486727179E0
1.547440871E1,5.140946261E0,-4.613850760E-1,2.727858834E0,5.838100587E0
1.548439971E1,4.712937677E0,5.104268432E-2,2.376638224E0,5.278522156E0
1.549439071E1,4.483196481E0,7.098508108E-1,2.101846570E0,5.002069358E0
1.550438171E1,4.228908674E0,1.176241688E0,1.835203596E0,4.757644934E0
1.551437271E1,4.309697898E0,1.832371205E-1,1.606241834E0,4.602943042E0
1.552436271E1,5.043179061E0,-2.243011220E0,1.660363370E0,5.763814787E0
1.553435371E1,5.137634983E0,-3.876126273E0,1.400461651E0,6.586420950E0
1.554434471E1,3.966226603E0,-4.573951115E0,1.307145059E-2,6.054102174E0
1.555433571E1,2.303518061E0,-5.410245625E0,-3.276139674E0,6.731273605E0
1.556432671E1,6.725996616E-1,-6.245651944E0,-5.162468108E0,8.130906190E0
1.557431771E1,-1.683840379E0,-5.723906060E0,-5.616424296E0,8.194061318E0
1.558430871E1,-3.032830599E0,-3.575539627E0,-5.132848452E0,6.951883076E0
1.559429871E1,-3.244491034E0,-1.284381849E0,-4.035325490E0,5.334811207E0
1.560428971E1,-2.806745959E0,3.816962975E-1,-3.057566075E0,4.168000149E0
1.561428071E1,-2.644713181E0,1.503805048E0,-2.052244055E0,3.669828756E0
1.562427171E1,-2.573400247E0,2.436915416E0,-8.706276065E-1,3.649512023E0
1.563426271E1,-2.579703253E0,3.060523889E0,-7.842770952E-1,4.078819181E0
1.564425371E1,-3.004813372E0,3.236437372E0,-1.169784169E0,4.568569280E0
1.565424471E1,-3.411220880E0,2.995812753E0,-1.139001941E0,4.680667407E0
1.566423571E1,-3.386467278E0,2.240292265E0,-7.941198595E-1,4.137353793E0
1.567422571E1,-3.051227986E0,9.028165287E-1,-2.325806040E-1,3.190480159E0
1.568421671E1,-2.693127542E0,-4.270934951E-1,4.386464238E-2,2.727135662E0
1.569420771E1,-2.591108539E0,-1.203435919E0,-1.619544250E-1,2.861525941E0
1.570419871E1,-3.059110617E0,-1.238476528E0,-8.549993147E-1,3.409252954E0
1.571418971E1,-4.053185810E0,-7.411608964E-1,-1.525413433E0,4.393691025E0
1.572418071E1,-4.764797802E0,-2.212715042E-1,-1.910139758E0,5.138179937E0
1.573417171E1,-4.871181166E0,1.625490868E-1,-1.526470025E0,5.107341667E0
1.574416171E1,-4.650850187E0,2.088894403E-1,-6.458764243E-1,4.700127511E0
1.575415271E1,-4.076788096E0,7.942156076E-2,1.156823377E-1,4.079202295E0
1.576414371E1,-3.460187511E0,-2.729187906E-2,8.113505808E-1,3.554142966E0
1.577413471E1,-2.984755084E0,1.070859075E-2,1.228656129E0,3.227766018E0
1.578412571E1,-2.684527165E0,2.246248823E-1,1.861080157E0,3.274257441E0
1.579411671E1,-2.783707929E0,5.239122766E-1,2.407575111E0,3.717516890E0
1.580410771E1,-2.746123489E0,7.777983803E-1,2.329793841E0,3.684305074E0
1.581409771E1,-2.329383074E0,8.676133668E-1,1.602486460E0,2.957489022E0
1.582408871E1,-1.790335864E0,7.789479429E-1,7.251693463E-1,2.082770507E0
1.583407971E1,-1.092623581E0,6.008721596E-1,-7.071271777E-2,1.248949130E0
1.584407071E1,-2.942571808E-1,4.078438765E-1,-7.296225858E-1,8.861563258E-1
1.585406171E1,4.599947543E-1,2.871392190E-1,-9.190326118E-1,1.067082493E0
1.586405271E1,1.251740790E0,2.743794250E-1,-8.103624013E-1,1.516188081E0
1.587404371E1,1.965366271E0,3.904361308E-1,-5.151404299E-1,2.068930790E0
1.588403371E1,2.481714444E0,5.729172063E-1,-1.692505807E-2,2.547042827E0
1.589402471E1,2.876337181E0,7.437377644E-1,3.883684091E-1,2.996212853E0
1.590401571E1,3.067915647E0,8.371107817E-1,6.050400549E-1,3.237118216E0
1.591400671E1,2.965648137E0,8.477948141E-1,6.875007060E-1,3.160139576E0
1.592399771E1,2.411484413E0,7.890256190E-1,5.388850956E-1,2.593880423E0
1.593398871E1,1.657111295E0,6.911081457E-1,-5.819499850E-2,1.796394993E0
1.594397971E1,1.029238374E0,5.950723064E-1,-8.185366626E-1,1.443414337E0
1.595396971E1,6.161161432E-1,5.049327993E-1,-1.319944614E0,1.541690636E0
1.596396071E1,5.025453812E-1,3.714893979E-1,-1.493996928E0,1.619439117E0
1.597395171E1,5.942640750E-1,2.717528558E-1,-1.215494632E0,1.380009639E0
1.598394271E1,7.267416626E-1,1.877558488E-1,-6.366436708E-1,9.842361843E-1
1.599393371E1,9.439348800E-1,1.658276206E-1,-1.799844606E-1,9.751442271E-1
1.600392471E1,1.175577298E0,2.172252309E-1,1.447891925E-1,1.204214555E0
1.601391571E1,1.223928948E0,3.329463065E-1,3.869359875E-1,1.326112654E0
1.602390571E1,1.042237612E0,4.686169124E-1,6.026514673E-1,1.291917118E0
1.603389671E1,7.501818345E-1,6.289551669E-1,7.286037084E-1,1.220336327E0
1.604388771E1,4.692380328E-1,7.809681559E-1,7.963667983E-1,1.210080852E0
1.605387871E1,3.064772037E-1,8.427393115E-1,6.997161242E-1,1.137427131E0
1.606386971E1,2.824326124E-1,8.398583883E-1,6.017887107E-1,1.071111547E0
1.607386071E1,3.671020127E-1,8.218179739E-1,6.500108443E-1,1.110253470E0
1.608385171E1,4.193234957E-1,7.100659883E-1,8.615389869E-1,1.192591853E0
1.609384171E1,3.480031791E-1,4.670638919E-1,1.166491164E0,1.303823810E0
1.610383271E1,2.921308409E-1,6.643489480E-2,1.459550396E0,1.489980330E0
1.611382371E1,2.316238350E-1,-4.741606575E-1,1.750989658E0,1.828781756E0
1.612381471E1,2.418362712E-1,-1.058234936E0,1.773184811E0,2.079069584E0
1.613380571E1,5.715017781E-1,-1.624447140E0,1.365876101E0,2.197967315E0
1.614379671E1,1.126869700E0,-2.004263558E0,6.683488820E-1,2.394493257E0
1.615378771E1,1.484385568E0,-2.095923926E0,8.281937778E-2,2.569660807E0
1.616377771E1,1.269605642E0,-1.707643663E0,2.606529401E-1,2.143801605E0
1.617376871E1,7.328096838E-1,-8.199158746E-1,1.186367896E0,1.617634340E0
1.618375971E1,7.082453115E-1,2.607027876E-1,2.297761624E0,2.418529687E0
1.619375071E1,1.148527128E0,1.178008717E0,3.193995942E0,3.592830246E0
1.620374171E1,1.896754312E0,1.658758017E0,3.799142416E0,4.558797887E0
1.621373271E1,2.218031330E0,1.651746621E0,3.853801603E0,4.743386625E0
1.622372371E1,1.871978197E0,1.459745108E0,2.995795212E0,3.822296051E0
1.623371371E1,1.653735843E0,1.109377023E0,1.960628126E0,2.794570140E0
1.624370471E1,1.831187436E0,6.202860850E-1,1.495515450E0,2.444293091E0
1.625369571E1,2.125055631E0,1.720315164E-1,1.399300540E0,2.550195733E0
1.626368671E1,2.101906504E0,-7.769195437E-2,1.119057966E0,2.382506605E0
1.627367771E1,1.946638224E0,-9.816247165E-2,5.430775492E-1,2.023355992E0
1.628366871E1,1.641586645E0,2.228783190E-2,4.085347250E-2,1.642246165E0
1.629365971E1,1.009431077E0,2.098425364E-1,-1.490285701E-1,1.041726694E0
1.630364971E1,1.590519402E-1,4.182291162E-1,-2.915556210E-1,5.340578559E-1
1.631364071E1,-8.516425013E-1,6.477855402E-1,-1.055347727E0,1.502890509E0
1.632363121E1,-1.718853507E0,9.309819818E-1,-1.466229086E0,2.443565542E0
1.633362221E1,-2.460509224E0,1.321194164E0,-2.519436001E0,3.761278695E0
1.634361321E1,-3.096136356E0,1.623013403E0,-4.415762589E0,5.631979411E0
1.635360421E1,-3.316386936E0,1.397702642E0,-5.804877718E0,6.829978061E0
1.636359521E1,-2.618945671E0,4.046302468E-1,-6.047531320E0,6.602668940E0
1.637358521E1,-2.010906579E0,-1.302501200E0,-5.169151475E0,5.697401305E0
1.638357621E1,-1.871802196E0,-3.214962888E0,-3.860330604E0,5.361136279E0
1.639356721E1,-1.652108563E0,-5.084875556E0,-2.589337125E0,5.940546177E0
1.640355821E1,-1.186176108E0,-7.043027971E0,-1.444751093E0,7.286876044E0
1.641354921E1,-5.679999903E-1,-8.879192850E0,-4.348135740E-1,8.907960064E0
1.642354021E1,2.344787563E-1,-1.020695110E1,-4.365273929E-1,1.021897192E1
1.643353121E1,9.936670572E-1,-8.710156862E0,-1.104375899E0,8.835940975E0
1.644352121E1,2.004020314E0,-5.274359257E0,-2.221902187E0,6.063976609E0
1.645351221E1,3.720485671E0,-1.992485511E0,-3.710651239E0,5.619692586E0
1.646350321E1,5.952347420E0,5.786375374E-1,-5.687820554E0,8.253275947E0
1.647349421E1,7.689657517E0,2.546202800E0,-7.073332921E0,1.075388395E1
1.648348521E1,8.255528829E0,3.704814548E0,-6.490683609E0,1.113590503E1
