"Time (s)","Linear Acceleration x (m/s^2)","Linear Acceleration y (m/s^2)","Linear Acceleration z (m/s^2)","Absolute acceleration (m/s^2)"
4.998208329E-3,-1.057445123E0,-2.334372211E-1,3.093060136E-2,1.083346587E0
1.498920834E-2,-9.578107613E-1,-6.996705160E-1,-5.652620316E-1,1.313948800E0
2.498020833E-2,-6.549295221E-1,-1.148967058E0,-1.392638953E0,1.920547119E0
3.497120833E-2,-5.319809957E-1,-1.393747293E0,-2.077742009E0,2.557840329E0
4.496220833E-2,-5.732557601E-1,-1.663193715E0,-2.200980849E0,2.817650120E0
5.495320833E-2,-4.236106011E-1,-2.032948244E0,-1.567366621E0,2.601723011E0
6.494420833E-2,2.155386016E-1,-2.235751317E0,-3.855893737E-1,2.278973454E0
7.493520833E-2,7.689714235E-1,-2.021035419E0,6.632865089E-1,2.261824531E0
8.492620834E-2,7.276190373E-1,-1.908630007E0,1.395104139E0,2.473583135E0
9.491620833E-2,6.732162505E-2,-1.999436097E0,1.938394089E0,2.785614573E0
1.049072083E-1,-7.722128275E-1,-2.561271075E0,8.344011819E-1,2.802257573E0
1.148982083E-1,-1.537439986E0,-3.692493880E0,-5.220604634E-1,4.033705480E0
1.248892083E-1,-2.771979292E0,-3.305229279E0,-9.954095274E-1,4.427104009E0
1.348802083E-1,-2.600416430E0,-2.759305744E0,-5.155490041E-1,3.826450649E0
1.448712083E-1,-1.936716523E0,-2.248024477E0,-4.261854225E-1,2.997685599E0
1.548622083E-1,-6.644656000E-1,-1.733712012E0,-9.460338843E-1,2.083807089E0
1.648532083E-1,-4.926878527E-2,-1.068508348E0,-1.361913589E0,1.731746554E0
1.748442083E-1,7.598936212E-1,-1.813903871E-1,-1.717426055E0,1.886767883E0
1.848352083E-1,3.637891996E-1,2.487734444E-2,-7.918118173E-1,8.717381591E-1
1.948252083E-1,-8.944456547E-2,4.564151255E-1,1.678174281E-1,4.944469499E-1
2.048162083E-1,-4.492601435E-1,6.933343269E-1,1.757891711E0,1.942351779E0
2.148072083E-1,-1.463501945E0,5.389148433E-1,4.048422668E0,4.338432119E0
2.247982083E-1,-2.040535737E0,1.440015726E-1,4.252611532E0,4.719028225E0
2.347892083E-1,-1.791613042E0,-7.742481702E-1,2.165232727E0,2.915059225E0
2.447802083E-1,-1.292066698E0,-1.319612492E0,3.759864914E-1,1.884722612E0
2.547712083E-1,-7.833805709E-1,-1.338675000E0,-4.360480966E0,4.628123824E0
2.647622083E-1,-5.481556367E-1,5.204787916E-1,-8.982260551E0,9.014010061E0
2.747532083E-1,-1.356045324E0,2.290184802E0,-7.056494694E0,7.541745336E0
2.847442083E-1,-2.144588255E0,3.561070692E0,-2.607497993E0,4.907089671E0
2.947342083E-1,-2.086357588E0,4.668404113E0,3.789054215E-1,5.127421795E0
3.047262917E-1,-1.207748825E0,5.202955983E0,2.273961117E0,5.805196582E0
3.147172917E-1,5.296048334E-1,4.434194475E0,1.929127421E0,4.864575473E0
3.247082917E-1,2.745199336E0,5.122259145E0,1.140104726E0,5.922288150E0
3.346992917E-1,4.665357129E0,2.714120216E0,-2.809735640E0,6.084950292E0
3.446902917E-1,3.129728318E0,2.284361706E0,-4.979009378E-1,3.906585861E0
3.546812917E-1,6.932415023E-1,2.600226395E0,7.124019510E-1,2.783752436E0
3.646722917E-1,1.081682563E0,1.216469362E0,4.702710897E-1,1.694399532E0
3.746632917E-1,1.577065982E0,-7.124249013E-1,5.564060141E0,5.826959036E0
3.846542917E-1,2.281818021E0,-1.343228227E0,-7.196753025E-2,2.648798761E0
3.946442917E-1,2.288058462E0,-2.033054371E0,-1.133275178E0,3.263867986E0
4.046352917E-1,1.236738443E0,-4.185955320E0,-8.278669184E-1,4.442646458E0
4.146262917E-1,8.269591382E-1,-6.440377674E0,6.376376975E-1,6.524485254E0
4.246172917E-1,4.580118173E-1,-6.104610085E0,4.209312900E0,7.429290290E0
4.346082917E-1,-1.468922898E0,-5.715639267E0,4.625189096E0,7.497909101E0
4.445992917E-1,-3.370434505E0,-5.114556608E0,3.249274349E0,6.933707655E0
4.545902917E-1,-3.541231089E0,-4.006844872E0,1.366943364E0,5.519389243E0
4.645812917E-1,-4.307323928E0,-2.640595572E0,-7.498445964E-1,5.107646358E0
4.745722917E-1,-5.113139243E0,-1.355108015E0,-2.062363247E0,5.677486487E0
4.845622917E-1,-4.522663432E0,-1.126731340E0,-2.679336299E0,5.376137186E0
4.945532917E-1,-2.949719152E0,-1.863975406E0,-2.614067924E0,4.359885148E0
5.045442917E-1,-9.897318810E-1,-2.075093512E0,-1.091892679E0,2.545154593E0
5.145352917E-1,1.606406726E0,-1.403521499E0,1.782779507E0,2.780057182E0
5.245262917E-1,2.868396662E0,-2.406854296E-1,3.711626262E0,4.696998871E0
5.345172917E-1,1.502020478E0,3.650089653E-1,3.687372889E0,3.998251603E0
5.445082917E-1,-2.567560340E0,-3.489393914E-1,1.659347416E0,3.076939819E0
5.544992917E-1,-7.431848516E0,-4.169035232E0,2.182108084E0,8.796295972E0
5.644902917E-1,-5.636747464E0,-2.625477888E0,7.676458597E-2,6.218677425E0
5.744802917E-1,-3.708836263E-1,2.289842009E0,-1.517393100E0,2.771896988E0
5.844712917E-1,1.673035163E0,4.050130055E0,-1.927432606E0,4.787232663E0
5.944622917E-1,3.124102419E0,5.098593124E0,-2.708794572E0,6.564543838E0
6.044532917E-1,-1.805403847E-1,3.446452109E0,-1.651394180E0,3.825928607E0
6.144442917E-1,-5.622926985E0,7.929855727E-1,9.176911875E-1,5.752242268E0
6.244352917E-1,-1.141827900E0,1.768149774E0,-4.568623717E0,5.030153799E0
6.344262917E-1,4.171682559E0,5.434370068E0,-9.297612585E0,1.154906547E1
6.444172917E-1,6.248076199E0,6.574398195E0,-1.055113458E1,1.391357642E1
6.544082917E-1,3.565666603E0,6.619626993E0,-7.646061262E0,1.072360446E1
6.643992917E-1,7.636761850E-1,5.570668665E0,-4.691785959E0,7.323141824E0
6.743892917E-1,-1.868775385E0,4.128421057E0,-2.503501754E0,5.177229268E0
6.843802917E-1,-3.989896717E0,2.146239655E0,-2.744477205E0,5.296959090E0
6.943712917E-1,-5.147150742E0,1.003063240E0,-4.043273610E0,6.621733769E0
7.043622917E-1,-6.354019561E0,1.126952291E0,-5.130584410E0,8.244178700E0
7.143532917E-1,-6.444791737E0,1.017288931E0,-4.061645561E0,7.685517677E0
7.243442917E-1,-4.740607871E0,7.099417350E-1,-1.242623227E0,4.951918087E0
7.343352917E-1,1.649879605E-1,1.423995232E0,1.434754840E0,2.028177728E0
7.443262917E-1,5.399973822E0,7.393345186E-1,6.350048132E0,8.368359701E0
7.543172917E-1,6.993825991E0,-6.255339611E-1,1.181386770E1,1.374308425E1
7.643072917E-1,4.120370902E0,-1.227122989E0,1.108256346E1,1.188724106E1
7.742982917E-1,4.633996173E0,-7.790695649E-1,4.827969950E0,6.737222258E0
7.842892917E-1,5.451509426E0,-7.074394190E-1,-1.045456431E0,5.595748806E0
7.942802917E-1,5.448584064E0,-2.253456101E0,-2.316884212E0,6.335067889E0
8.042712917E-1,4.516868257E0,-3.107572340E0,-8.348408926E-1,5.545815000E0
8.142622917E-1,1.323227241E0,-4.199035833E0,3.431988144E-1,4.415950372E0
8.242532917E-1,-5.742743450E-1,-5.571954467E0,-5.492853919E-1,5.628337414E0
8.342442917E-1,-2.860299438E0,-5.212750069E0,-1.198932978E0,6.065601079E0
8.442352917E-1,-4.111027052E0,-4.224925550E0,-3.742431441E-1,5.906826327E0
8.542252917E-1,-3.768835128E0,-2.309073647E0,1.239337823E-1,4.421685076E0
8.642162917E-1,-2.368791261E0,-6.333224523E-1,2.868301937E-1,2.468712402E0
8.742072917E-1,-1.288876019E0,-4.382394576E-1,4.437326244E-1,1.431835834E0
8.841982917E-1,-7.549252421E-1,-4.832811445E-1,-7.939173996E-2,8.998754548E-1
8.941892917E-1,-7.948161167E-1,-2.728445309E-1,-1.730719407E0,1.923945546E0
9.041802917E-1,-1.088760910E0,3.120939660E-1,-2.915624330E0,3.127885580E0
9.141712917E-1,-1.326653709E0,7.843513548E-1,-3.074079197E0,3.438775948E0
9.241622917E-1,-1.810840003E0,7.181357306E-1,-2.316203450E0,3.026492832E0
9.341532917E-1,-2.231434903E0,5.923650455E-1,-1.127835806E0,2.569476927E0
9.441442917E-1,-2.257698841E0,6.551805139E-2,-6.178939891E-1,2.341642512E0
9.541342917E-1,-1.713528301E0,2.174263752E-1,-1.417017165E-1,1.733070352E0
9.641252917E-1,-1.177835639E0,4.876168549E-1,8.009026296E-1,1.505493943E0
9.741162917E-1,-4.179542971E-1,3.942759973E-1,1.377867279E0,1.492868914E0
9.841072917E-1,-1.507529140E-2,9.632510108E-1,1.336557723E0,1.647563753E0
9.940982917E-1,-6.180740833E-2,1.194743448E0,1.269526412E0,1.744399431E0
1.004089292E0,1.770577830E-1,8.017748880E-1,1.143644192E0,1.407875871E0
1.014080292E0,7.622120422E-1,2.521214139E-1,3.469410324E-1,8.745858932E-1
1.024071292E0,1.180456654E0,1.518972141E-1,-9.008726218E-1,1.492689571E0
1.034062292E0,1.071029229E0,6.724221987E-1,-1.531457408E0,1.986105993E0
1.044052292E0,9.976150972E-1,1.241163324E0,-5.086165452E-1,1.671649804E0
1.054043292E0,1.158426976E0,1.595802215E0,8.191598296E-1,2.135312763E0
1.064034292E0,1.128790948E0,2.147283529E0,4.457347110E-1,2.466510692E0
1.074025292E0,7.512648851E-1,2.386272097E0,-4.253361145E-1,2.537637535E0
1.084016292E0,8.584355772E-2,2.374249637E0,-7.080793968E-1,2.479073796E0
1.094007292E0,-1.339222884E-1,1.935569884E0,-6.493555176E-1,2.045978627E0
1.103998292E0,-2.611998010E-1,1.277073998E0,-1.788765594E-2,1.303634650E0
1.113989292E0,-3.695753118E-1,-5.725535095E-2,5.673649827E-1,6.795344803E-1
1.123980292E0,-5.334408993E-1,-1.529532797E0,6.122558114E-1,1.731729467E0
1.133971292E0,-9.557358769E-1,-3.199067817E0,-2.713625541E-1,3.349791575E0
1.143961292E0,-1.373407169E0,-4.615369867E0,-1.488270604E0,5.040122583E0
1.153952292E0,-1.061355303E0,-4.529354401E0,-7.016343033E-1,4.704659081E0
1.163943292E0,-4.792930511E-1,-3.809958596E0,2.181524093E0,4.416396008E0
1.173934292E0,2.151545857E-1,-3.964073659E0,3.267242843E0,5.141502432E0
1.183925292E0,8.739258747E-1,-4.505365030E0,1.400948578E0,4.798407799E0
1.193916292E0,1.733289551E0,-5.006438082E0,-8.529753010E-1,5.366216712E0
1.203907292E0,2.417383231E0,-3.934858630E0,-8.860508072E-1,4.702333480E0
1.213898292E0,2.236199214E0,-8.923926973E-1,-5.755706728E-3,2.407692833E0
1.223889292E0,1.423057777E0,1.327313860E0,1.136982898E0,2.253793608E0
1.233879292E0,7.088877743E-1,3.475272743E0,2.143238718E0,4.144093956E0
1.243870292E0,-7.359304158E-1,4.925337201E0,1.595526519E0,5.229363727E0
1.253861292E0,-1.914795750E0,5.761233516E0,1.539566911E0,6.263267570E0
1.263852292E0,-3.009060790E0,6.027543783E0,1.012505032E0,6.812554391E0
1.273843292E0,-4.171527900E0,5.791900992E0,-1.993266115E-1,7.140552725E0
1.283834292E0,-5.189144860E0,5.389450588E0,-1.315494006E0,7.596310058E0
1.293825292E0,-6.329109253E0,4.807200640E0,-2.116470749E0,8.224734060E0
1.303815417E0,-4.935848740E0,5.622959729E0,-2.041515292E0,7.755518267E0
1.313806417E0,-1.868314917E0,6.411417584E0,-2.802102685E-1,6.683965429E0
1.323796417E0,-5.008052498E-2,5.264658142E0,2.136996815E0,5.682067299E0
1.333787417E0,6.593171266E-1,3.324368970E0,3.519440271E0,4.885958242E0
1.343778417E0,9.090315342E-2,1.321515761E0,2.961051933E0,3.243839676E0
1.353769417E0,6.790315989E-1,-4.231729370E-1,1.072760004E0,1.338272496E0
1.363760417E0,2.690318540E0,-2.027903266E0,4.705669588E-1,3.401711152E0
1.373751417E0,5.789015976E0,-3.658885839E0,7.216732961E-1,6.886288108E0
1.383742417E0,8.879329675E0,-6.203442063E0,-2.142494367E0,1.104153391E1
1.393733417E0,1.003613054E1,-9.857737838E0,-7.314860934E0,1.585579080E1
1.403724417E0,9.942846401E0,-9.839767005E0,-7.451883416E0,1.584966169E1
1.413714417E0,9.874497128E0,-9.800497690E0,-7.627525588E0,1.586614620E1
1.423705417E0,9.824808658E0,-9.737682222E0,-7.861901287E0,1.591096515E1
1.433696417E0,9.785212483E0,-9.661689468E0,-8.148574483E0,1.598430145E1
1.443687417E0,9.751360613E0,-9.587915148E0,-8.456119316E0,1.607865369E1
1.453678417E0,9.729874434E0,-9.525159321E0,-8.743309990E0,1.618161260E1
1.463669417E0,9.732309800E0,-9.473050690E0,-8.977465249E0,1.628040005E1
1.473660417E0,6.178424751E0,-1.144950080E1,-3.374579011E0,1.344067649E1
1.483651417E0,3.439515265E0,-6.093892139E0,-3.127737633E0,7.664758924E0
1.493642417E0,1.595044124E0,-2.386953882E0,-3.492166518E0,4.520723568E0
1.503633417E0,3.133686590E-1,4.244844675E-1,-3.525192761E0,3.564459424E0
1.513623417E0,-8.908867469E-1,2.585261031E0,-2.821368091E0,3.929042085E0
1.523614417E0,-1.944140732E0,4.213230534E0,-9.601395611E-1,4.738445177E0
1.533605417E0,-3.496355756E0,5.704690356E0,3.157193859E-1,6.698333700E0
1.543596417E0,-5.355753084E0,7.045613610E0,-1.000340484E0,8.906483219E0
1.553587417E0,-6.706941125E0,8.283856249E0,-2.465881938E0,1.094010545E1
1.563578417E0,-8.107798925E0,9.454876374E0,-2.050997429E0,1.262290304E1
1.573569417E0,-9.177496158E0,1.046863739E1,2.095478368E-1,1.392345915E1
1.583560417E0,-9.797879307E0,1.134610448E1,2.392806945E0,1.518084487E1
1.593551417E0,-8.711340923E0,1.196491882E1,2.289356982E0,1.497624447E1
1.603541417E0,-5.268969294E0,1.205796557E1,1.157892541E0,1.320974209E1
1.613532417E0,-2.523700668E0,1.188024880E1,7.027357726E-1,1.216565716E1
1.623523417E0,-9.694619232E-1,1.170686015E1,4.070913398E-1,1.175398461E1
1.633514417E0,4.378307372E-2,1.155985764E1,4.014768434E-1,1.156691010E1
1.643505417E0,5.211629158E-1,1.139244484E1,1.160493236E0,1.146325236E1
1.653496417E0,3.734566936E-1,1.113143332E1,2.499131545E0,1.141463692E1
1.663487417E0,-5.316928741E-1,1.057549408E1,3.664378713E0,1.120497406E1
1.673478417E0,-1.973068370E0,9.671864208E0,3.966127785E0,1.063805084E1
1.683469417E0,-2.837956350E0,9.216917501E0,3.693283839E0,1.032695066E1
1.693459417E0,-3.072702470E0,9.071144661E0,3.085958108E0,1.006232097E1
1.703450417E0,-3.035814725E0,9.012167889E0,2.409225926E0,9.810184029E0
1.713441417E0,-2.974161976E0,8.986123222E0,1.769351377E0,9.629468018E0
1.723432417E0,-3.077445146E0,8.930049593E0,1.309759934E0,9.535823270E0
1.733423417E0,-3.335209708E0,8.806973305E0,1.022342387E0,9.472675786E0
1.743414417E0,-3.794133399E0,8.628777654E0,7.554672790E-1,9.456319731E0
1.753405417E0,-4.313829248E0,8.481378703E0,2.968572915E-1,9.520033179E0
1.763396417E0,-4.697016293E0,8.460243357E0,-3.706237176E-1,9.683751425E0
1.773387417E0,-4.862332283E0,8.871953997E0,-3.203198290E-1,1.012207724E1
1.783377417E0,-4.814009723E0,9.414851013E0,1.208713031E-1,1.057490989E1
1.793368417E0,-4.296413024E0,8.968068189E0,-1.432715185E0,1.004679475E1
1.803359417E0,-3.360386649E0,6.838792330E0,-4.802342481E0,9.006873613E0
1.813350417E0,-2.168525294E0,3.449891149E0,-1.004612226E1,1.084107114E1
1.823341417E0,-1.157603981E0,-8.431217194E-2,-6.114505913E0,6.223691676E0
1.833332417E0,-1.189698763E0,-1.293285989E0,3.088791376E0,3.553674712E0
1.843323417E0,-1.909004229E0,-3.884146314E0,3.138014699E0,5.345841934E0
1.853314417E0,-2.130253513E0,-1.062846518E1,-5.346759481E0,1.208677331E1
1.863305417E0,-2.095850835E0,-1.062348803E1,-5.322571889E0,1.206568938E1
1.873296417E0,-2.098557804E0,-1.059431159E1,-5.408745815E0,1.207882090E1
1.883286417E0,-2.179386205E0,-1.054123174E1,-5.666647786E0,1.216462856E1
1.893277417E0,-2.305915566E0,-1.049600002E1,-5.994157351E0,1.230500651E1
1.903268417E0,-2.366057687E0,-1.046226860E1,-6.217979411E0,1.239840962E1
1.913259417E0,-2.326821409E0,-1.041500906E1,-6.347177149E0,1.241664888E1
1.923250417E0,6.326430058E0,-1.516167114E1,-1.167360060E-1,1.642904795E1
1.933241417E0,4.451447269E0,-8.128988065E0,-4.571034524E-1,9.279265775E0
1.943232417E0,3.171327456E0,-4.409877074E0,-1.683381665E0,5.686660485E0
1.953223417E0,1.721722297E0,-2.753483087E0,-2.690505066E0,4.217204558E0
1.963214417E0,4.264307132E-1,-1.900387187E0,-3.179933388E0,3.728979883E0
1.973204417E0,-3.978527391E-1,-1.336598069E0,-3.437121999E0,3.709257181E0
1.983195417E0,-8.719689578E-1,-4.528814703E-1,-3.765560102E0,3.891641604E0
1.993186417E0,-1.633068567E0,1.058255401E0,-4.201423252E0,4.630202455E0
2.003177417E0,-2.658918992E0,3.027566643E0,-4.451882887E0,6.004604168E0
2.013168417E0,-3.425598599E0,4.991851033E0,-3.188331159E0,6.842423407E0
2.023159417E0,-3.714535837E0,6.305887620E0,-1.247088161E0,7.424097524E0
2.033150417E0,-4.042051249E0,7.330557200E0,1.297705314E0,8.471085305E0
2.043141417E0,-4.473184294E0,8.391295329E0,3.319224590E0,1.007176583E1
2.053132417E0,-5.272225024E0,9.682061167E0,3.066371105E0,1.144295840E1
2.063122417E0,-6.111877005E0,1.103077233E1,6.259958911E-1,1.262635535E1
2.073113417E0,-5.604517611E0,1.202786059E1,-7.351366563E-1,1.328986358E1
2.083104417E0,-3.710418520E0,1.167915838E1,1.649285527E0,1.236487318E1
2.093095417E0,-2.599215119E0,1.087482475E1,4.286191506E0,1.197452171E1
2.103086417E0,-2.230866553E0,1.034683521E1,5.338859893E0,1.185483823E1
2.113077417E0,-1.934941016E0,1.019894275E1,5.138119133E0,1.158286226E1
2.123068417E0,-1.668223782E0,1.030115910E1,5.019026552E0,1.157961471E1
2.133059417E0,-1.659058564E0,1.038309028E1,5.223255762E0,1.174067459E1
2.143050417E0,-2.133099061E0,1.032343933E1,5.177655666E0,1.174442972E1
2.153040417E0,-2.868443147E0,1.015541140E1,4.708614246E0,1.155557852E1
2.163031417E0,-3.781952772E0,1.016952190E1,2.755510901E0,1.119442642E1
2.173022417E0,-5.216888144E0,1.068543343E1,-1.939364580E0,1.204805148E1
2.183013417E0,-5.609459678E0,1.119499021E1,-3.294430057E0,1.294786133E1
2.193004417E0,-4.992744488E0,1.160978467E1,-2.299733305E0,1.284536379E1
2.202995417E0,-3.727600271E0,1.210688454E1,-1.399194267E0,1.274477939E1
2.212986417E0,-2.132848215E0,1.203492403E1,-1.469814891E0,1.231051557E1
2.222977417E0,-1.313168276E0,1.085801049E1,-2.072266383E0,1.113171554E1
2.232968417E0,-1.048013711E0,9.736289999E0,-2.172511049E0,1.003062710E1
2.242958417E0,-6.770499775E-1,9.525674461E0,-1.476886221E0,9.663232561E0
2.252949417E0,-2.373870152E-1,9.331979011E0,-1.172623139E0,9.408359574E0
2.262940417E0,-1.680481008E-1,7.955818681E0,4.793181941E-1,7.972015866E0
2.272931417E0,3.813001487E-1,6.254964804E0,1.521519188E0,6.448642891E0
2.282922417E0,1.944863448E0,4.659204689E0,1.090237917E0,5.165200952E0
2.292913417E0,2.434551679E0,3.096791829E0,2.823419587E0,4.846530684E0
2.302903792E0,1.605883400E0,1.195391319E0,1.387122398E0,2.435555470E0
2.312894792E0,1.719852357E0,-2.698908684E0,-8.304116267E0,8.899457691E0
2.322885792E0,1.865893292E0,-7.718641580E0,-7.298717941E0,1.078565108E1
2.332875792E0,7.878137836E-1,-1.456383193E1,5.806576334E0,1.569847699E1
2.342866792E0,8.840341026E-1,-1.443830391E1,5.514448271E0,1.548080346E1
2.352857792E0,1.125655379E0,-1.426764239E1,5.238759069E0,1.524064684E1
2.362848792E0,1.412275658E0,-1.410451092E1,4.996210717E0,1.502976622E1
2.372839792E0,1.643640918E0,-1.399277297E1,4.838897227E0,1.489678413E1
2.382830792E0,1.787237717E0,-1.392984992E1,4.750337638E0,1.482567520E1
2.392821792E0,1.863461728E0,-1.388935210E1,4.648187950E0,1.476456036E1
2.402812792E0,2.476629412E0,-1.108325927E1,8.366150840E-1,1.138737258E1
2.412803792E0,6.351052684E-1,-4.540789801E0,1.430591476E0,4.802991015E0
2.422793792E0,-2.491644770E-1,-1.058170617E-1,6.187548454E-1,6.753797049E-1
2.432784792E0,-1.446979760E0,2.950209149E0,-1.548837379E0,3.632682435E0
2.442775792E0,-2.799178492E0,5.033737562E0,-4.046866139E0,7.039249934E0
2.452766792E0,-4.258289178E0,6.698805310E0,-5.206619264E0,9.492939664E0
2.462757792E0,-5.002601724E0,7.983794684E0,-4.748506290E0,1.055060726E1
2.472748792E0,-5.315007931E0,9.294049877E0,-3.801947325E0,1.136149092E1
2.482739792E0,-5.953633808E0,1.097365439E1,-3.756443124E0,1.303755004E1
2.492730792E0,-6.989110211E0,1.270445361E1,-4.187351342E0,1.509253837E1
2.502721792E0,-7.399091245E0,1.427064903E1,-4.350843000E0,1.665316216E1
2.512711792E0,-6.258053888E0,1.530351875E1,-2.573675358E0,1.673274423E1
2.522702792E0,-4.626079627E0,1.514035687E1,1.000937924E0,1.586294095E1
2.532693792E0,-2.893047061E0,1.404530202E1,4.915195205E0,1.515913500E1
2.542684792E0,-1.739482922E0,1.268460816E1,7.459641502E0,1.481793968E1
2.552675792E0,-1.148820293E0,1.149712988E1,7.829997125E0,1.395752981E1
2.562666792E0,-1.050798739E0,1.077931867E1,6.729882091E0,1.275104709E1
2.572657792E0,-1.072201011E0,1.047223459E1,5.354837995E0,1.181065631E1
2.582648792E0,-1.149841802E0,1.025408433E1,4.327454138E0,1.118906792E1
2.592639792E0,-1.098809642E0,1.014761823E1,3.519363087E0,1.079664091E1
2.602629792E0,-9.693297762E-1,1.002410983E1,1.805305613E0,1.023139807E1
2.612620792E0,-1.125888391E0,1.003457752E1,-3.267669690E0,1.061310680E1
2.622611792E0,-1.977854901E0,9.870179543E0,-4.978645681E0,1.123028348E1
2.632602792E0,-2.658105059E0,9.455694984E0,-1.994608051E0,1.002268185E1
2.642593792E0,-2.782129181E0,9.269082851E0,3.402132261E-1,9.683588421E0
2.652584792E0,-3.255902168E0,8.855228037E0,3.136738837E-1,9.440039927E0
2.662575792E0,-3.967701564E0,8.345114020E0,-7.850155985E-1,9.273609501E0
2.672566792E0,-4.314403737E0,8.087254733E0,-9.499701568E-1,9.215216331E0
2.682556792E0,-4.287116244E0,8.139604855E0,-2.195161700E-2,9.199620359E0
2.692547792E0,-3.957550212E0,8.169515702E0,1.151714226E0,9.150389945E0
2.702538792E0,-3.494094637E0,7.346072202E0,9.761505532E-1,8.193066827E0
2.712529792E0,-3.131412023E0,5.664260368E0,2.838808581E-2,6.472278784E0
2.722520792E0,-3.072296965E0,3.955626771E0,-2.639640137E0,5.661597994E0
2.732511792E0,-2.356098125E0,1.732946904E0,-1.000266576E1,1.042149824E1
2.742502792E0,-1.618978824E0,-9.026130456E-1,-9.997464073E0,1.016784592E1
2.752493792E0,-2.775477389E0,-4.384957995E0,-5.068730224E0,7.254182066E0
2.762484792E0,-4.584555333E0,-9.693980132E0,-1.386703591E0,1.081269371E1
2.772474792E0,-4.547788041E0,-9.644301018E0,-1.610308134E0,1.078369188E1
2.782465792E0,-4.547900892E0,-9.587548528E0,-2.028302046E0,1.080363358E1
2.792456792E0,-4.575363218E0,-9.549596005E0,-2.587099396E0,1.090054199E1
2.802447792E0,-4.606034787E0,-9.546212806E0,-3.157544984E0,1.105964854E1
2.812438792E0,-4.614709424E0,-9.561467022E0,-3.573744532E0,1.120218035E1
2.822429792E0,-4.580920119E0,-9.562298496E0,-3.755159660E0,1.124827123E1
2.832420792E0,-4.531332807E0,-9.548965675E0,-3.779280594E0,1.122491355E1
2.842411792E0,-4.514716482E0,-9.543924206E0,-3.778650849E0,1.121371287E1
2.852402792E0,6.889660767E0,-1.126094914E1,-3.128828723E0,1.356709144E1
2.862392792E0,-4.810124248E-2,-6.860787216E0,-1.162186224E0,6.958691815E0
2.872383792E0,-4.749911960E0,-4.869852971E0,-1.388897174E0,6.943066106E0
2.882374792E0,-8.087363491E0,-2.760165870E0,-3.418198655E0,9.203697404E0
2.892365792E0,-9.716986002E0,4.191208166E-1,-5.315540612E0,1.108379228E1
2.902356792E0,-1.094908790E1,4.186017008E0,-4.733137468E0,1.264151314E1
2.912347792E0,-1.103158860E1,7.388589646E0,-2.394606718E0,1.349152865E1
2.922338792E0,-9.782762500E0,9.912646701E0,-2.462467164E-1,1.392923703E1
2.932329792E0,-7.617035099E0,1.208079894E1,1.206792805E0,1.433252510E1
2.942320792E0,-5.060862211E0,1.432875165E1,7.799799764E-1,1.521623537E1
2.952310792E0,-1.648673616E0,1.578016389E1,-1.420845922E0,1.592954802E1
2.962301792E0,1.551155216E0,1.595165337E1,-2.793982657E0,1.626860986E1
2.972292792E0,3.130321518E0,1.558626788E1,-1.933087156E0,1.601460225E1
2.982283792E0,3.238163470E0,1.511683703E1,4.784846735E-1,1.546717208E1
2.992274792E0,2.800819221E0,1.467749128E1,2.666808640E0,1.517844547E1
3.002265792E0,2.126912414E0,1.413551052E1,3.612171264E0,1.474395454E1
3.012256792E0,1.280528241E0,1.351203010E1,3.267785465E0,1.396041303E1
3.022247792E0,1.607648090E-1,1.271338231E1,1.800813782E0,1.284129531E1
3.032238792E0,-1.703152563E0,1.142298952E1,-1.698604087E-1,1.155050955E1
3.042228792E0,-3.380623278E0,1.017652453E1,-1.860048416E0,1.088347579E1
3.052219792E0,-3.838963124E0,8.999004053E0,-2.339858068E0,1.005955504E1
3.062210792E0,-2.659923836E0,8.800568265E0,-1.356368090E0,9.293273427E0
3.072201792E0,-8.201287133E-1,8.953306893E0,6.361922657E-1,9.013271106E0
3.082192792E0,3.715113249E-1,8.842185822E0,2.298607131E0,9.143624310E0
3.092183792E0,7.075734664E-1,8.470937914E0,3.033832519E0,9.025607410E0
3.102174792E0,2.352808481E-1,8.242552688E0,2.721434498E0,8.683388602E0
3.112165792E0,-7.434353171E-1,8.405805194E0,1.720697572E0,8.612262024E0
3.122156792E0,-1.478258124E0,8.746984380E0,4.499408325E-1,8.882422507E0
3.132146792E0,-1.604860722E0,8.850291232E0,-1.752644420E0,9.163787170E0
3.142137792E0,-1.027784391E0,8.105424371E0,-4.219196448E0,9.195426236E0
3.152128792E0,1.040459400E-1,6.608993247E0,-5.255988475E0,8.444822801E0
3.162119792E0,7.975777566E-1,3.948205485E0,-6.685587094E0,7.805224636E0
3.172110792E0,-7.491838610E-1,5.258453661E-1,-4.813961191E0,4.900205318E0
3.182101792E0,-3.186290773E0,-8.582683468E-1,6.317749282E0,7.127624390E0
3.192092792E0,-5.207245501E0,-3.448766729E0,5.594525889E0,8.384993595E0
3.202083792E0,-7.893234762E0,-8.143107921E0,2.927045989E-1,1.134455982E1
3.212073792E0,-7.796600168E0,-8.076014630E0,1.131526861E-1,1.122594272E1
3.222064792E0,-7.685173287E0,-7.992442716E0,-1.612417956E-1,1.108904991E1
3.232055792E0,-7.559943470E0,-7.911159986E0,-4.650536191E-1,1.095241857E1
3.242046792E0,-7.457993172E0,-7.845653629E0,-7.842295866E-1,1.085315434E1
3.252037792E0,-7.453776745E0,-7.814520130E0,-1.105162277E0,1.085573103E1
3.262028792E0,-7.527429442E0,-7.818914312E0,-1.301840465E0,1.093125810E1
3.272019792E0,-7.554780378E0,-7.823705521E0,-1.335838516E0,1.095762471E1
3.282010792E0,-7.522031293E0,-7.816681260E0,-1.318632499E0,1.092795737E1
3.292001792E0,5.265139368E0,-1.119228412E1,-1.593463329E0,1.247108823E1
3.301991792E0,2.687868556E0,-5.695524845E0,-1.438040829E0,6.460000160E0
3.311983542E0,8.036562297E-1,-2.811592131E0,-2.136648613E0,3.621626837E0
3.321974542E0,-4.342525336E-1,-1.361934639E0,-3.324798156E0,3.619077783E0
3.331965542E0,-1.451205835E0,-1.981831884E-1,-4.306960816E0,4.549196239E0
3.341956542E0,-2.252921812E0,6.877237773E-1,-3.919606168E0,4.572956724E0
3.351947542E0,-2.974086254E0,2.222071756E0,-2.615319228E0,4.541220827E0
3.361938542E0,-3.705519138E0,4.505055712E0,-1.293011169E0,5.974803506E0
3.371929542E0,-4.802101284E0,7.651510282E0,1.392327662E-1,9.034665024E0
3.381920542E0,-6.139799799E0,1.056731968E1,1.379865711E0,1.229916323E1
3.391910542E0,-6.403162485E0,1.260923053E1,1.959836998E0,1.427704961E1
3.401901542E0,-5.095322776E0,1.427960814E1,1.919052669E0,1.528241754E1
3.411892542E0,-2.450920229E0,1.474580079E1,1.831347942E-3,1.494809869E1
3.421883542E0,-3.772506595E-2,1.430861851E1,-2.223503155E0,1.448039893E1
3.431874542E0,1.756182570E0,1.374032762E1,-2.297724202E0,1.404137874E1
3.441865542E0,2.917922871E0,1.321742750E1,-1.182264759E0,1.358721508E1
3.451856542E0,3.299625016E0,1.287627404E1,8.127021646E-1,1.331714846E1
3.461847542E0,3.191364987E0,1.274435969E1,2.897885925E0,1.345367077E1
3.471838542E0,2.770630047E0,1.292270327E1,3.704601710E0,1.372576863E1
3.481828542E0,1.731306322E0,1.321925885E1,3.742512717E0,1.384747730E1
3.491819542E0,-3.545311569E-1,1.316137843E1,3.051525024E0,1.351515370E1
3.501810542E0,-2.937190323E0,1.251162413E1,1.915869737E0,1.299378245E1
3.511801542E0,-5.114667120E0,1.148047584E1,9.822806279E-1,1.260658639E1
3.521792542E0,-6.304845647E0,1.030126435E1,3.727586822E-1,1.208329735E1
3.531783542E0,-5.659267430E0,8.866367567E0,1.580989172E-1,1.051973274E1
3.541774542E0,-3.951713522E0,7.849077759E0,6.192246692E-1,8.809511940E0
3.551765542E0,-2.793931201E0,7.423740767E0,1.433914887E0,8.060650745E0
3.561756542E0,-2.245800634E0,7.450202342E0,2.119856433E0,8.064919511E0
3.571746542E0,-2.373780982E0,7.676894215E0,2.892318206E0,8.540201727E0
3.581737542E0,-3.054887758E0,8.047273811E0,3.343564210E0,9.234196047E0
3.591728542E0,-3.946268010E0,8.371367433E0,2.138304106E0,9.498692981E0
3.601719542E0,-4.967552928E0,8.347655804E0,-9.045715705E-1,9.755930978E0
3.611710542E0,-4.733387144E0,7.585819153E0,-3.556531498E0,9.622812602E0
3.621701542E0,-2.820025278E0,5.317581291E0,-7.785489289E0,9.840886993E0
3.631692542E0,-6.027859533E-1,2.462870622E0,-3.676933855E0,4.466421966E0
3.641683542E0,-1.774435531E-1,5.783375752E-1,2.113169703E0,2.198055222E0
3.651673542E0,-1.444693498E-1,-3.597987088E0,-5.371261069E-1,3.640726155E0
3.661664542E0,-2.661753429E-1,-9.134596306E0,2.489183092E-1,9.141863011E0
3.671655542E0,-2.588869348E-1,-9.043349921E0,-8.367365599E-2,9.047441711E0
3.681646542E0,-2.749528907E-1,-8.944838371E0,-5.258471203E-1,8.964499304E0
3.691637542E0,-2.660298935E-1,-8.866846454E0,-9.517420824E-1,8.921745958E0
3.701628542E0,-2.539780511E-1,-8.821762083E0,-1.260046614E0,8.914914950E0
3.711619542E0,-2.748739533E-1,-8.802186774E0,-1.455486581E0,8.925944705E0
3.721610542E0,-2.816059989E-1,-8.794429273E0,-1.542398572E0,8.933100331E0
3.731601542E0,-2.454225513E-1,-8.787767540E0,-1.561912923E0,8.928866812E0
3.741591542E0,-1.882589286E-1,-8.778502627E0,-1.582817888E0,8.922043615E0
3.751582542E0,1.532592206E0,-1.098024303E1,-1.812849691E0,1.123392184E1
3.761573542E0,-8.180194764E-1,-5.833597487E0,-9.144331920E-1,5.961225006E0
3.771564542E0,-2.157415146E0,-2.663153545E0,-2.469386759E0,4.224298508E0
3.781555542E0,-2.936500937E0,-2.627867353E-1,-4.420238925E0,5.313248232E0
3.791546542E0,-2.961522342E0,1.963973903E0,-5.039407607E0,6.166314710E0
3.801537542E0,-2.323605440E0,4.390273114E0,-3.318228225E0,5.973631961E0
3.811528542E0,-1.861361116E0,7.171020598E0,2.395919637E-1,7.412530333E0
3.821519542E0,-2.379623228E0,1.049270687E1,3.111950151E0,1.120016687E1
3.831509542E0,-3.065592548E0,1.345014434E1,3.514242096E0,1.423566430E1
3.841500542E0,-3.074909209E0,1.616697591E1,2.456353315E0,1.663910600E1
3.851491542E0,-1.705296591E0,1.751775056E1,6.846235836E-1,1.761386756E1
3.861482542E0,-2.597083955E-1,1.736090017E1,-1.821414692E0,1.745811715E1
3.871473542E0,8.012552167E-1,1.671112482E1,-3.422456013E0,1.707679442E1
3.881464542E0,1.799261931E0,1.620425542E1,-4.148663825E0,1.682339588E1
3.891455542E0,2.768764200E0,1.598551108E1,-4.422978930E0,1.681562852E1
3.901446542E0,3.524204874E0,1.567808086E1,-3.347204686E0,1.641420173E1
3.911436542E0,3.366519209E0,1.445182384E1,-5.278584163E-1,1.484814124E1
3.921427542E0,1.977262285E0,1.196423353E1,2.269387718E0,1.233704060E1
3.931418542E0,5.026345512E-1,9.452245127E0,3.189037503E0,9.988370219E0
3.941409542E0,-9.367224857E-1,7.603861907E0,3.075017967E0,8.255416428E0
3.951400542E0,-2.018119559E0,6.485211200E0,2.388070700E0,7.199559190E0
3.961391542E0,-2.389911257E0,6.383522272E0,1.438881658E0,6.966449084E0
3.971382542E0,-2.348681370E0,6.811684054E0,7.681675044E-1,7.246062734E0
3.981373542E0,-2.105889189E0,7.646006883E0,8.511207104E-1,7.976252064E0
3.991364542E0,-2.044202087E0,8.646070794E0,1.699418385E0,9.045514092E0
4.001354542E0,-2.209609439E0,9.240281805E0,2.634501604E0,9.859299185E0
4.011345542E0,-2.730970137E0,9.563647449E0,3.031500649E0,1.039767025E1
4.021336542E0,-3.263633357E0,9.908598089E0,2.533143629E0,1.073538241E1
4.031327542E0,-2.881239779E0,1.039479641E1,2.209777400E0,1.101074254E1
4.041318542E0,-1.941410521E0,1.062425519E1,2.735905187E0,1.114132175E1
4.051309542E0,-1.213417847E0,1.052511447E1,3.509826279E0,1.116106169E1
4.061300542E0,-8.085534190E-1,1.003246083E1,3.229658110E0,1.057046453E1
4.071291542E0,-1.002303468E0,8.342127846E0,1.188410036E-1,8.402965693E0
4.081282542E0,-1.128960298E0,5.258132649E0,-9.096478307E0,1.056732832E1
4.091272542E0,-2.107497904E0,2.655291379E0,-5.909480313E0,6.812787777E0
4.101263542E0,-2.644491864E0,2.925784160E0,7.363356571E0,8.352997675E0
4.111254542E0,-1.953727973E0,-2.170661867E-1,9.828994095E-1,2.197785697E0
4.121245542E0,-1.962427899E0,-9.525180371E0,-1.335392958E1,1.651991585E1
4.131236542E0,-1.894596689E0,-9.481914484E0,-1.349340672E1,1.660024771E1
4.141227542E0,-1.890272527E0,-9.399494471E0,-1.384152538E1,1.683779830E1
4.151218542E0,-1.927531132E0,-9.316610774E0,-1.429142068E1,1.716855607E1
4.161209542E0,-1.991062153E0,-9.267122864E0,-1.466829712E1,1.746433036E1
4.171200542E0,-2.056411512E0,-9.250579922E0,-1.486692353E1,1.763029984E1
4.181190542E0,-2.056185956E0,-9.242481528E0,-1.494512887E1,1.769203895E1
4.191181542E0,-1.987014272E0,-9.234249818E0,-1.495564567E1,1.768872332E1
4.201172542E0,2.097105356E0,-1.708886898E1,5.680109538E-2,1.721715773E1
4.211163542E0,1.118775253E0,-9.434729792E0,-6.169970262E-1,9.520843957E0
4.221154542E0,1.402186433E-1,-4.827125028E0,-8.082699752E-1,4.896335125E0
4.231145542E0,4.360414892E-2,-1.819983294E0,-5.585155141E-1,1.904253159E0
4.241136542E0,5.295517334E-1,3.261606127E-1,-1.279099474E0,1.422287330E0
4.251127542E0,1.345632163E0,1.859237992E0,-2.073953598E0,3.093343717E0
4.261117542E0,2.312270466E0,3.166613431E0,-1.995143656E0,4.399390132E0
4.271108542E0,2.920459393E0,5.058399364E0,-9.726363766E-1,5.921360377E0
4.281099542E0,2.948534507E0,7.360165746E0,1.962115073E-1,7.931229066E0
4.291090542E0,2.263565060E0,1.033403682E1,4.009248297E-1,1.058663235E1
4.301081542E0,4.309942458E-1,1.324678520E1,4.000197172E-2,1.325385507E1
4.311071792E0,-1.435884960E0,1.529045256E1,-8.289387131E-1,1.538007947E1
4.321062792E0,-1.857119545E0,1.630499359E1,-1.806920614E0,1.650959331E1
4.331053792E0,-1.287262772E0,1.578704723E1,-3.614815375E0,1.624668569E1
4.341044792E0,-5.902990781E-1,1.490977894E1,-5.025984739E0,1.574517334E1
4.351034792E0,4.669880243E-1,1.436092303E1,-6.074771744E0,1.559990512E1
4.361025792E0,1.323697065E0,1.374993109E1,-6.552091652E0,1.528864559E1
4.371016792E0,1.210915677E0,1.263516410E1,-4.065144535E0,1.332813148E1
4.381007792E0,2.379106334E-1,1.129228905E1,1.388941613E0,1.137987488E1
4.390998792E0,-1.412045862E0,1.030699228E1,6.777196591E0,1.241605239E1
4.400989792E0,-3.091363859E0,9.612978069E0,8.721816795E0,1.334301188E1
4.410980792E0,-3.660598781E0,9.421694010E0,6.357679918E0,1.194103829E1
4.420971792E0,-3.354016985E0,9.958514600E0,2.384402303E0,1.077528734E1
4.430962792E0,-2.376695234E0,1.053745444E1,-5.114395809E-1,1.081425895E1
4.440952792E0,-8.411914073E-1,1.082480416E1,-1.369265878E0,1.094343991E1
4.450943792E0,3.042665908E-1,1.074130943E1,-6.297392786E-1,1.076405490E1
4.460934792E0,4.393211925E-1,1.017210169E1,8.584870327E-1,1.021771285E1
4.470925792E0,-2.814465161E-1,9.388239166E0,2.127331806E0,9.630357594E0
4.480916792E0,-1.202325825E0,8.950570396E0,2.425539658E0,9.351018150E0
4.490907792E0,-1.809668659E0,9.037800329E0,2.068192921E0,9.446383297E0
4.500898792E0,-1.891190248E0,9.467078344E0,1.522745934E0,9.773480859E0
4.510889792E0,-1.732097889E0,9.975576775E0,1.181938630E0,1.019358985E1
4.520880792E0,-1.895870359E0,9.963732655E0,1.034885688E0,1.019515970E1
4.530870792E0,-2.171256967E0,8.806109671E0,2.314466827E-1,9.072788542E0
4.540861792E0,-1.875203375E0,6.812481029E0,-3.850880334E0,8.047084243E0
4.550852792E0,-2.127943571E0,1.910184197E0,-1.674996553E1,1.699230099E1
4.560843792E0,-4.393045279E0,-2.670630965E0,-8.308025715E0,9.770077168E0
4.570834792E0,-3.125542004E0,-4.528812949E0,-4.352652714E-2,5.502822376E0
4.580825792E0,-3.011468089E0,-7.384044605E0,2.876770459E0,8.477550534E0
4.590816792E0,-2.547354702E0,-1.012634840E1,9.162495711E0,1.389184205E1
4.600807792E0,-2.460035014E0,-1.005995093E1,8.813743211E0,1.359913432E1
4.610797792E0,-2.414087301E0,-1.000553791E1,8.404580787E0,1.328817461E1
4.620788792E0,-2.421166525E0,-9.975768564E0,8.018485630E0,1.302590180E1
4.630779792E0,-2.493112713E0,-9.969850012E0,7.685126510E0,1.283256365E1
4.640770792E0,-2.590509492E0,-9.978643055E0,7.459837968E0,1.272529918E1
4.650761792E0,-2.633632708E0,-9.984321871E0,7.387649413E0,1.269645889E1
4.660752792E0,-2.617445861E0,-9.982104607E0,7.414807976E0,1.270719531E1
4.670743792E0,1.455182965E0,-1.476107606E1,-5.190683262E0,1.571464656E1
4.680734792E0,-9.311404413E-1,-9.398337307E0,-4.905877082E0,1.064252774E1
4.690725792E0,-2.835775630E0,-6.563238199E0,-2.975203657E0,7.744001284E0
4.700715792E0,-3.329062238E0,-5.022025005E0,-1.832400441E0,6.297704495E0
4.710706792E0,-2.745516840E0,-3.539477509E0,-2.507174975E0,5.133389729E0
4.720697792E0,-1.763727232E0,-1.534464338E0,-3.285225370E0,4.032123546E0
4.730688792E0,-2.793335516E-1,7.689340013E-1,-2.734621139E0,2.854371998E0
4.740679792E0,1.357263299E0,3.550079681E0,-9.753430527E-1,3.923840398E0
4.750670792E0,2.031978191E0,6.937729558E0,1.173746681E0,7.323845169E0
4.760661792E0,1.644418159E0,1.057927372E1,2.829505076E0,1.107389916E1
4.770652792E0,2.555709788E-1,1.366152587E1,3.569059743E0,1.412235083E1
4.780643792E0,-2.765529813E-1,1.637639862E1,3.491648455E0,1.674677647E1
4.790633792E0,8.954651899E-1,1.711639534E1,1.817614002E0,1.723590925E1
4.800624792E0,1.857622991E0,1.656324523E1,-8.820606673E-1,1.669041302E1
4.810615792E0,2.461522838E0,1.565834066E1,-2.407049593E0,1.603236148E1
4.820606792E0,2.955865746E0,1.477987369E1,-2.880372344E0,1.534530395E1
4.830597792E0,3.241000247E0,1.434950692E1,-3.132086792E0,1.504069145E1
4.840588792E0,3.190539068E0,1.429792746E1,-2.005849907E0,1.478626738E1
4.850579792E0,2.472896842E0,1.405356063E1,7.940027690E-1,1.429154384E1
4.860570792E0,8.393959466E-1,1.329496743E1,3.740166814E0,1.383653108E1
4.870560792E0,-1.503194306E0,1.168418815E1,5.116291476E0,1.284353084E1
4.880551792E0,-3.586030701E0,1.008782928E1,4.433027955E0,1.158773717E1
4.890542792E0,-4.970888180E0,9.202885938E0,2.932817191E0,1.086297637E1
4.900533792E0,-4.970336203E0,9.007537479E0,1.265501043E0,1.036539755E1
4.910524792E0,-4.095672264E0,9.139179354E0,-6.914917231E-2,1.001518408E1
4.920515792E0,-3.213021027E0,9.325682729E0,-6.010855830E-1,9.881961666E0
4.930506792E0,-2.514485164E0,9.254895751E0,-6.489603920E-1,9.612329614E0
4.940497792E0,-1.964191858E0,9.133546731E0,-2.899425204E-1,9.346860018E0
4.950488792E0,-1.709809326E0,9.073917995E0,3.569447413E-1,9.240500271E0
4.960478792E0,-1.722763247E0,9.151369629E0,1.154648652E0,9.383426496E0
4.970469792E0,-1.718457942E0,9.376869255E0,2.308628236E0,9.808595162E0
4.980460792E0,-1.573977921E0,9.704771753E0,3.931216400E0,1.058841176E1
4.990451792E0,-1.653222750E0,9.342148488E0,4.908080313E0,1.068167291E1
5.000442792E0,-2.014686658E0,7.727984846E0,3.889559666E0,8.883095548E0
5.010433792E0,-1.748335314E0,6.071608400E0,-1.604227468E-1,6.320351287E0
5.020424792E0,-2.978663016E-1,3.831219072E0,-9.932188096E0,1.064966311E1
5.030415792E0,9.030442777E-1,1.669504030E0,-8.253868804E0,8.469302386E0
5.040406792E0,1.331360133E0,-5.877533466E-1,-2.510294172E0,2.901646193E0
5.050396792E0,8.625944093E-1,-7.366276086E0,-7.672197146E0,1.067092787E1
5.060387792E0,8.126663505E-1,-7.337537606E0,-7.790360019E0,1.073264152E1
5.070378792E0,6.776418619E-1,-7.252463542E0,-8.177188418E0,1.095097422E1
5.080369792E0,5.230096127E-1,-7.159974039E0,-8.713626015E0,1.129008617E1
5.090360792E0,4.026490639E-1,-7.101905340E0,-9.198720381E0,1.162822611E1
5.100351792E0,3.145556438E-1,-7.085731357E0,-9.456472664E0,1.182080409E1
5.110342792E0,2.770035093E-1,-7.089989299E0,-9.476458447E0,1.183840969E1
5.120333792E0,3.407491234E-1,-7.091485602E0,-9.364381356E0,1.175146443E1
5.130323792E0,4.912605473E-1,-7.084774752E0,-9.226229192E0,1.164296677E1
5.140314792E0,1.107657576E0,-1.153687925E1,-2.395330457E0,1.183486781E1
5.150305792E0,-2.435367950E0,-6.667405761E0,3.204845743E-1,7.105492735E0
5.160296792E0,-4.176236955E0,-3.839151989E0,1.614611392E0,5.898051632E0
5.170287792E0,-4.182337063E0,-2.058775980E0,1.921588022E0,5.042122803E0
5.180278792E0,-3.278727652E0,2.480119908E-1,1.753502791E0,3.726437575E0
5.190269792E0,-1.846751847E0,2.989263872E0,1.835499612E0,3.964246423E0
5.200260792E0,-4.950010843E-1,6.130815552E0,1.827287928E0,6.416455920E0
5.210251792E0,1.256091740E-1,9.451464524E0,1.819154159E0,9.625761329E0
5.220241792E0,-2.232004823E-1,1.225021968E1,1.368958315E0,1.232849332E1
5.230232792E0,-1.035918014E0,1.450128895E1,5.346437446E-1,1.454807036E1
5.240223792E0,-1.519951257E0,1.625985309E1,-7.576237321E-2,1.633091590E1
5.250214792E0,-1.801707675E-1,1.682361589E1,-7.127896214E-1,1.683967287E1
5.260205792E0,2.163291305E0,1.672997624E1,-8.192264148E-1,1.688914048E1
5.270196792E0,4.472468010E0,1.644715227E1,-6.887201428E-2,1.704454550E1
5.280187792E0,6.189590009E0,1.580463098E1,2.017710400E-1,1.697463096E1
5.290178792E0,6.487034946E0,1.434473325E1,3.937631965E-2,1.574339687E1
5.300169792E0,4.843491677E0,1.171457379E1,-7.249480292E-2,1.267658891E1
5.310160417E0,2.740006424E0,9.294313002E0,2.479618509E-1,9.692954888E0
5.320151417E0,1.086578144E0,7.591761094E0,9.367308180E-1,7.726121485E0
5.330142417E0,-6.548728041E-2,6.269141963E0,1.407648171E0,6.425566349E0
5.340133417E0,-9.629688826E-1,5.265825246E0,1.549844416E0,5.572992222E0
5.350124417E0,-1.891475446E0,5.158184438E0,1.470033284E0,5.687314297E0
5.360115417E0,-2.118845596E0,6.055799868E0,1.314603767E0,6.549076406E0
5.370106417E0,-1.622817083E0,7.961436101E0,1.302599287E0,8.228898163E0
5.380097417E0,-1.246725195E0,9.585047089E0,1.413261352E0,9.768559723E0
5.390088417E0,-1.136601951E0,1.065525712E1,1.479900899E0,1.081741536E1
5.400078417E0,-1.009616946E0,1.151541412E1,1.400567193E0,1.164412630E1
5.410069417E0,-8.917008986E-1,1.167100970E1,1.317225659E0,1.177890832E1
5.420060417E0,-1.221260936E0,1.133344409E1,1.658822482E0,1.151911999E1
5.430051417E0,-1.705192803E0,1.051986484E1,2.223802532E0,1.088671376E1
5.440042417E0,-2.211133516E0,9.336065045E0,2.967150872E0,1.004266928E1
5.450033417E0,-2.719726819E0,7.730338351E0,3.270291581E0,8.823256315E0
5.460024417E0,-2.053768717E0,5.820542994E0,1.542497828E0,6.362074051E0
5.470015417E0,1.354776478E-1,3.372748248E0,-4.902580715E0,5.952233413E0
5.480005417E0,9.954469496E-1,1.205263174E-1,-7.697295735E0,7.762332308E0
5.489996417E0,6.135401158E-2,-3.130989854E0,-1.597450838E0,3.515495834E0
5.499987417E0,8.574846006E-1,-8.461910398E0,-1.433361887E0,8.625180214E0
5.509978417E0,8.495349455E-1,-8.426946972E0,-1.544701059E0,8.609369678E0
5.519969417E0,7.498622842E-1,-8.339812934E0,-1.851368516E0,8.575682982E0
5.529960417E0,6.158891981E-1,-8.228098955E0,-2.321399285E0,8.571454169E0
5.539951417E0,5.239265292E-1,-8.130573245E0,-2.849206685E0,8.631262888E0
5.549942417E0,5.036615416E-1,-8.070830489E0,-3.278278878E0,8.725771721E0
5.559933417E0,5.416528386E-1,-8.040610909E0,-3.548442460E0,8.805467363E0
5.569923417E0,6.247320885E-1,-8.023800749E0,-3.709350818E0,8.861769131E0
5.579914417E0,7.553856372E-1,-8.013578061E0,-3.797405208E0,8.899906018E0
5.589905417E0,9.313717718E-1,-8.008361176E0,-3.836830645E0,8.928749716E0
5.599896417E0,-2.686538680E-1,-1.173044548E1,-2.502548658E0,1.199742788E1
5.609887417E0,-2.626613418E0,-7.558195152E0,-2.233409507E0,8.307438235E0
5.619878417E0,-3.852795298E0,-3.794129013E0,-1.933772449E0,5.742727789E0
5.629869417E0,-3.590679238E0,-3.744638765E-1,-2.106966977E0,4.180013209E0
5.639860417E0,-2.314923202E0,2.322401206E0,-2.436061138E0,4.084949285E0
5.649851417E0,-7.939035125E-1,4.623420898E0,-2.141203594E0,5.156651668E0
5.659841417E0,3.865806229E-1,6.684017701E0,-9.181906128E-1,6.757855518E0
5.669832417E0,1.437215494E0,9.314285921E0,8.093704212E-1,9.459206683E0
5.679823417E0,1.785100852E0,1.222988423E1,1.459450994E0,1.244534654E1
5.689814417E0,5.795327461E-1,1.442349291E1,1.070504733E0,1.447477068E1
5.699805417E0,-4.268903044E-1,1.587360356E1,6.846025336E-1,1.589409343E1
5.709796417E0,1.064513384E-1,1.640620772E1,6.681046877E-3,1.640655444E1
5.719787417E0,1.348186812E0,1.616430490E1,-1.478838022E0,1.628770465E1
5.729778417E0,2.886264583E0,1.573781367E1,-2.365163648E0,1.617415536E1
5.739768417E0,4.602855364E0,1.510918653E1,-2.543485014E0,1.599822213E1
5.749759417E0,5.943921583E0,1.383492739E1,-2.483777926E0,1.526121137E1
5.759750417E0,5.586336864E0,1.157952533E1,-1.990664688E0,1.300981600E1
5.769741417E0,4.181034303E0,9.703245045E0,-7.878701361E-1,1.059503429E1
5.779732417E0,2.714733296E0,8.357970293E0,1.006682521E0,8.845272974E0
5.789723417E0,1.403491678E0,7.567553621E0,2.979320389E0,8.253121026E0
5.799714417E0,4.096366693E-1,7.313009706E0,4.358765978E0,8.523306518E0
5.809705417E0,-2.378788026E-1,7.641997447E0,4.473785387E0,8.858412216E0
5.819696417E0,-4.158590935E-1,8.444591530E0,3.377074603E0,9.104323026E0
5.829686417E0,-5.729757150E-1,9.120193444E0,1.780653752E0,9.310046048E0
5.839677417E0,-9.404380989E-1,9.734483210E0,4.960297557E-1,9.792376254E0
5.849668417E0,-1.397718722E0,1.025224129E1,-3.722945595E-1,1.035377575E1
5.859659417E0,-1.697385747E0,1.063905098E1,-7.182450736E-1,1.079751824E1
5.869650417E0,-1.828564814E0,1.087115971E1,-4.580660503E-1,1.103338512E1
5.879641417E0,-1.907104468E0,1.086415241E1,-1.168132623E-1,1.103088847E1
5.889632417E0,-1.897443991E0,1.057793705E1,-5.957576001E-1,1.076326963E1
5.899623417E0,-1.894713049E0,9.558073298E0,-1.361057557E0,9.838657448E0
5.909614417E0,-2.036283788E0,7.444591354E0,5.613750950E-1,7.738445198E0
5.919604417E0,-2.759859183E0,4.909288348E0,2.210644250E0,6.050196922E0
5.929595417E0,-3.474954946E0,6.626707971E-1,-9.091629796E0,9.755622831E0
5.939586417E0,-5.070683779E0,-4.176513528E0,-1.531929570E1,1.666841085E1
5.949577417E0,-5.420545496E0,-6.908836126E0,-1.034267082E1,1.356779900E1
5.959568417E0,-3.601285502E0,-8.235074683E0,-1.087796119E0,9.053673990E0
5.969559417E0,-4.519312247E-1,-1.064082386E1,1.056981293E1,1.500507646E1
5.979550417E0,-4.637942751E-1,-1.058895087E1,1.031499946E1,1.478986813E1
5.989541417E0,-6.694192149E-1,-1.051834457E1,9.963884683E0,1.450388543E1
5.999531417E0,-9.784726287E-1,-1.044843526E1,9.471883585E0,1.413661157E1
6.009522417E0,-1.226547039E0,-1.041709184E1,9.068195325E0,1.386551068E1
6.019513417E0,-1.270408026E0,-1.040961793E1,8.897709228E0,1.375293829E1
6.029504417E0,-1.136445173E0,-1.040670134E1,8.849777262E0,1.370800854E1
6.039495417E0,-9.301048994E-1,-1.040837598E1,8.847371718E0,1.369216462E1
6.049486417E0,1.892074201E-1,-1.129244458E1,-2.345554426E0,1.153502188E1
6.059477417E0,4.686300321E-1,-4.850237902E0,-5.888278309E0,7.643051960E0
6.069468417E0,3.392381298E-1,-1.540703902E0,-4.871442829E0,5.120527928E0
6.079459417E0,1.118585511E-1,-4.286184490E-2,-2.524970391E0,2.527810307E0
6.089449417E0,-7.653997249E-1,1.883540189E-1,-1.924966543E0,2.080098595E0
6.099440417E0,-1.346019103E0,2.946891439E-1,-1.756157427E0,2.232195786E0
6.109431417E0,-1.232855307E0,1.678697607E0,-1.305367506E0,2.458036246E0
6.119422417E0,-6.841433810E-1,4.310650994E0,-5.920212293E-1,4.404571863E0
6.129413417E0,6.508828104E-2,7.733970056E0,1.082127829E0,7.809579371E0
6.139404417E0,3.512517460E-1,1.160875907E1,3.211111912E0,1.204980932E1
6.149395417E0,9.262095574E-2,1.481730055E1,3.398392382E0,1.520230393E1
6.159386417E0,6.089393072E-1,1.638416372E1,1.629520769E0,1.647625461E1
6.169377417E0,6.612239036E-1,1.649742312E1,-7.257220544E-2,1.651082837E1
6.179367417E0,5.126966957E-1,1.606704817E1,4.371110181E-1,1.608116789E1
6.189358417E0,8.521629035E-1,1.536092554E1,2.109587699E0,1.552850847E1
6.199349417E0,1.431283786E0,1.475037799E1,3.316695085E0,1.518626651E1
6.209340417E0,1.917897405E0,1.421499523E1,4.010246197E0,1.489384082E1
6.219331417E0,2.300075952E0,1.366500613E1,4.187375901E0,1.447607885E1
6.229322417E0,2.097731885E0,1.310417044E1,3.994431818E0,1.385912146E1
6.239313417E0,1.084080726E0,1.235917786E1,3.479964548E0,1.288544379E1
6.249304417E0,-4.198255888E-1,1.143192407E1,2.749911608E0,1.176550701E1
6.259295417E0,-1.990366334E0,1.065062262E1,2.259562933E0,1.106810485E1
6.269285417E0,-3.099963359E0,9.887658041E0,1.939399517E0,1.054214517E1
6.279276417E0,-2.749067270E0,9.776248117E0,1.407538390E0,1.025249055E1
6.289267417E0,-1.488066390E0,1.000310781E1,7.846437156E-1,1.014357792E1
6.299258417E0,-6.070882615E-1,1.001191371E1,3.861165002E-1,1.003773173E1
6.309248833E0,-1.921882940E-2,9.787986403E0,2.743849799E-1,9.791850402E0
6.319239833E0,2.335387433E-1,9.442145816E0,6.968007025E-1,9.470701620E0
6.329230833E0,1.443728342E-1,9.113456283E0,1.594584825E0,9.253033540E0
6.339221833E0,-2.556139559E-2,9.201375602E0,2.675395568E0,9.582468774E0
6.349211833E0,-1.452556907E-1,9.483141230E0,2.943820774E0,9.930616675E0
6.359202833E0,3.626428530E-2,9.055810338E0,1.536671662E0,9.185334821E0
6.369193833E0,6.785626522E-1,7.795144796E0,-1.395814576E0,7.948146198E0
6.379184833E0,1.064305515E0,5.467020920E0,-6.613665172E0,8.646480843E0
6.389175833E0,-8.830310127E-1,2.738180923E0,-1.873769784E0,3.433422745E0
6.399166833E0,-2.694480880E0,1.444659292E0,1.092826771E0,3.246773481E0
6.409157833E0,-4.873328264E0,-2.287772825E0,-7.571741982E0,9.290560236E0
6.419148833E0,-6.176209241E0,-6.100982473E0,-7.143129380E0,1.124241278E1
6.429139833E0,-6.076549298E0,-1.012512867E1,3.649675305E0,1.235972539E1
6.439129833E0,-5.955053512E0,-1.008072375E1,3.491988763E0,1.221792286E1
6.449120833E0,-5.907538453E0,-1.001837489E1,3.243341764E0,1.207419197E1
6.459111833E0,-5.945064713E0,-9.947068090E0,2.916976207E0,1.194975766E1
6.469102833E0,-6.062698998E0,-9.884709874E0,2.568597636E0,1.187693152E1
6.479093833E0,-6.183871433E0,-9.851169076E0,2.329024347E0,1.186213103E1
6.489084833E0,-6.220668545E0,-9.837626925E0,2.218635786E0,1.184896474E1
6.499075833E0,-6.180088869E0,-9.830516710E0,2.171065325E0,1.181296245E1
6.509066833E0,8.021894556E-1,-1.205997467E1,-9.525466593E-1,1.212410170E1
6.519057833E0,1.883309078E0,-6.795840438E0,-4.276674578E0,8.247438741E0
6.529047833E0,2.840624434E0,-3.920954536E0,-4.470080591E0,6.589738397E0
6.539038833E0,3.466292296E0,-2.215014752E0,-2.914641413E0,5.041488590E0
6.549029833E0,3.603349862E0,-9.352352464E-1,-1.766460221E0,4.120579681E0
6.559020833E0,3.497424919E0,7.760179031E-1,-1.409949635E0,3.849953613E0
6.569011833E0,3.110960217E0,2.695940638E0,-1.190854392E0,4.285359212E0
6.579002833E0,2.316693593E0,4.800460555E0,-1.235265237E0,5.471505364E0
6.588993833E0,1.509086838E0,7.295059338E0,-9.929694112E-1,7.515398997E0
6.598984833E0,6.117213393E-1,1.026340246E1,-5.234496157E-1,1.029493237E1
6.608975833E0,-7.318000889E-1,1.312011580E1,-3.998934174E-1,1.314659213E1
6.618965833E0,-2.018045153E0,1.525314732E1,-4.836758316E-1,1.539366596E1
6.628956833E0,-2.262886929E0,1.649981580E1,-1.129541804E0,1.669252657E1
6.638947833E0,-1.393568368E0,1.615495872E1,-2.583363025E0,1.641945457E1
6.648938833E0,-4.214576929E-1,1.566044565E1,-3.210502632E0,1.599170134E1
6.658929833E0,6.434025405E-1,1.515696764E1,-2.220255611E0,1.533222652E1
6.668920833E0,1.521392157E0,1.457033755E1,-6.459769964E-2,1.464969430E1
6.678911833E0,2.121019298E0,1.342011655E1,2.690583419E0,1.385054115E1
6.688902833E0,1.839082785E0,1.119681922E1,5.316681404E0,1.253068583E1
6.698892833E0,1.303405911E0,9.242047665E0,6.558832322E0,1.140756738E1
6.708883833E0,1.046891045E0,7.913352107E0,6.202981303E0,1.010910973E1
6.718874833E0,1.118540487E0,7.408567243E0,4.730032597E0,8.860655155E0
6.728865833E0,1.168945752E0,7.444791913E0,3.204316278E0,8.188956198E0
6.738856833E0,1.024154878E0,8.142583426E0,2.209382421E0,8.498936919E0
6.748847833E0,8.453228306E-1,9.240580598E0,1.561926956E0,9.409703305E0
6.758838833E0,5.069533047E-1,1.003433428E1,9.857551897E-1,1.009537415E1
6.768829833E0,-3.528597303E-2,1.031499244E1,5.906928881E-1,1.033195201E1
6.778820833E0,-6.241571610E-1,1.021204051E1,5.723501725E-1,1.024709365E1
6.788810833E0,-1.164112370E0,1.007994724E1,1.087230109E0,1.020502637E1
6.798801833E0,-1.695181639E0,1.004729755E1,1.798843417E0,1.034686747E1
6.808792833E0,-2.071458444E0,1.013134894E1,2.113128481E0,1.055464274E1
6.818783833E0,-2.228939603E0,1.030327579E1,1.949105165E0,1.072029266E1
6.828774833E0,-2.154974226E0,1.033149679E1,2.294209002E0,1.080033031E1
6.838765833E0,-2.338279905E0,9.741856549E0,2.908883368E0,1.043230197E1
6.848756833E0,-2.743374713E0,8.091506243E0,-7.559341791E-1,8.577296461E0
6.858747833E0,-2.298710773E0,4.534651979E0,-1.336388388E1,1.429827025E1
6.868737833E0,-2.885790667E0,-2.542311478E0,-1.649140400E1,1.693391689E1
6.878728833E0,-3.272007739E0,-4.755054587E0,1.399667014E0,5.939330477E0
6.888719833E0,-1.890276182E0,-5.085812280E0,8.310127205E0,9.924557660E0
6.898710833E0,-8.349511126E-1,-1.201743150E1,-4.681374407E-1,1.205549484E1
6.908701833E0,-8.491219859E-1,-1.195768231E1,-6.825194630E-1,1.200720647E1
6.918692833E0,-9.717646299E-1,-1.189384826E1,-9.228754020E-1,1.196911241E1
6.928683833E0,-1.147753907E0,-1.182511657E1,-1.223586886E0,1.194352904E1
6.938674833E0,-1.286302220E0,-1.177617772E1,-1.482944960E0,1.193867919E1
6.948665833E0,-1.303600916E0,-1.175258771E1,-1.623817395E0,1.193563891E1
6.958655833E0,-1.218280537E0,-1.173960338E1,-1.702502060E0,1.192480643E1
6.968646833E0,-1.234985302E0,-1.730710110E1,2.542121444E0,1.753634280E1
6.978637833E0,-8.602189048E-1,-9.585234784E0,-6.114034335E-1,9.643159057E0
6.988628833E0,-1.128540249E0,-4.917581454E0,-2.187638819E0,5.499270320E0
6.998619833E0,-7.098553424E-1,-2.357221375E0,-8.740591912E-1,2.612348883E0
7.008610833E0,1.017144140E0,-6.230062097E-1,3.546431310E-1,1.244383658E0
7.018601833E0,3.158675543E0,9.736052603E-1,-1.818927725E-1,3.310320735E0
7.028592833E0,4.782556673E0,3.260560060E0,-1.488608719E0,5.976625817E0
7.038583833E0,5.474749185E0,5.906984137E0,-2.231423793E0,8.357307723E0
7.048573833E0,4.290715205E0,8.468840518E0,-1.579428842E0,9.624245017E0
7.058564833E0,1.873319987E0,1.070501459E1,-9.054998159E-2,1.086806627E1
7.068555833E0,-1.180715320E0,1.290309522E1,7.202448213E-1,1.297700688E1
7.078546833E0,-3.544811339E0,1.471525260E1,1.216934581E-1,1.513668246E1
7.088537833E0,-4.401304471E0,1.593496307E1,-1.007146643E0,1.656227260E1
7.098528833E0,-3.787095105E0,1.618127586E1,-2.761685561E0,1.684644429E1
7.108519833E0,-2.193703989E0,1.583407054E1,-3.935870783E0,1.646272170E1
7.118510833E0,-2.209698609E-1,1.508122047E1,-3.814370320E0,1.555768169E1
7.128501833E0,1.027626370E0,1.343548187E1,-3.408234415E0,1.389907374E1
7.138491833E0,7.897740626E-1,1.142927177E1,-2.399928854E0,1.170519777E1
7.148482833E0,4.029842556E-2,9.794832907E0,5.462819695E-2,9.795068141E0
7.158473833E0,-7.231241365E-1,8.550137281E0,3.927056690E0,9.436605867E0
7.168464833E0,-1.625196022E0,7.639547464E0,7.353919165E0,1.072772458E1
7.178455833E0,-2.337635834E0,7.245419401E0,7.954066855E0,1.101035073E1
7.188446833E0,-2.572484865E0,7.773109564E0,5.061202519E0,9.625730186E0
7.198437833E0,-2.636470654E0,8.838942956E0,4.545311160E-1,9.234960131E0
7.208428833E0,-2.319476867E0,9.905045321E0,-2.697478455E0,1.052455632E1
7.218419833E0,-1.207709210E0,1.089897141E1,-2.775637017E0,1.131151184E1
7.228409833E0,2.347617616E-1,1.156254502E1,-1.274058005E0,1.163489511E1
7.238400833E0,1.589910268E0,1.166196289E1,5.407402709E-2,1.176996674E1
7.248391833E0,2.645917708E0,1.102303529E1,8.742486410E-1,1.136980643E1
7.258382833E0,3.585031705E0,1.011543048E1,1.488111560E0,1.083461407E1
7.268373833E0,4.319006373E0,9.476484175E0,2.112132261E0,1.062631973E1
7.278364833E0,4.520122232E0,9.140337687E0,2.170858333E0,1.042544502E1
7.288355833E0,3.880932684E0,8.638818492E0,4.004360390E-1,9.478985835E0
7.298346833E0,2.836456831E0,7.259980137E0,-1.042142229E0,7.863768777E0
7.308337792E0,2.381020420E0,5.319002749E0,-5.059979281E0,7.717800128E0
7.318327792E0,2.105431791E0,1.276102776E0,-1.343969186E1,1.366333044E1
7.328318792E0,-2.668446153E0,-1.623498137E0,-5.380858104E0,6.221734887E0
7.338309792E0,-6.893405909E0,-4.050672677E0,-1.331375921E0,8.105526263E0
7.348300792E0,-1.174550089E1,-8.329086801E0,-5.949290496E0,1.557961923E1
7.358291792E0,-1.149509622E1,-8.312322249E0,-5.960111353E0,1.538684066E1
7.368282792E0,-1.125660934E1,-8.266698180E0,-6.119126383E0,1.524772968E1
7.378273792E0,-1.105684389E1,-8.213067518E0,-6.356794649E0,1.516961150E1
7.388264792E0,-1.094729280E1,-8.160482338E0,-6.636437738E0,1.518153475E1
7.398254792E0,-1.099400738E1,-8.110258264E0,-6.946736609E0,1.532650113E1
7.408245792E0,-1.113860317E1,-8.080153874E0,-7.172751374E0,1.551791640E1
7.418236792E0,-1.121923861E1,-8.071158518E0,-7.257100968E0,1.561026679E1
7.428227792E0,-1.121684593E1,-8.070510646E0,-7.262648807E0,1.561079250E1
7.438218792E0,-1.395919241E0,-1.541406504E1,-2.022349581E0,1.560871197E1
7.448209792E0,2.215390691E-1,-8.719772608E0,-3.652960271E0,9.456618457E0
7.458200792E0,1.222859200E0,-4.567805691E0,-3.832979668E0,6.087032659E0
7.468191792E0,1.317277991E0,-2.110225046E0,-3.082829847E0,3.961326914E0
7.478182792E0,8.747794220E-1,-5.656608117E-1,-2.646846246E0,2.844469412E0
7.488172792E0,5.562277545E-1,4.235962754E-1,-2.292690918E0,2.396926108E0
7.498163792E0,5.306256842E-1,1.365983836E0,-1.960141053E0,2.447371734E0
7.508154792E0,6.542219359E-1,3.131517858E0,-1.421123664E0,3.500571797E0
7.518145792E0,6.089672277E-1,5.547849905E0,-2.946797518E-1,5.588945859E0
7.528136792E0,8.174156052E-1,8.907006885E0,1.262909703E0,9.033154535E0
7.538127792E0,1.440988556E-1,1.222004220E1,1.680110879E0,1.233584080E1
7.548118792E0,-9.214359637E-1,1.479342753E1,3.495524355E-1,1.482621763E1
7.558109792E0,-7.217439743E-1,1.655923170E1,-1.679232627E0,1.665979865E1
7.568100792E0,3.165797306E-1,1.669095426E1,-3.312945850E0,1.701951195E1
7.578090792E0,1.424692805E0,1.624195359E1,-4.106068028E0,1.681340539E1
7.588081792E0,2.684478341E0,1.549782757E1,-4.015344969E0,1.623305512E1
7.598072792E0,3.721386727E0,1.467725739E1,-3.454930279E0,1.553084502E1
7.608063792E0,3.824982724E0,1.397304798E1,-1.871043520E0,1.460744216E1
7.618054792E0,2.686121993E0,1.290132819E1,5.648843014E-1,1.319009533E1
7.628045792E0,6.794281863E-1,1.113058196E1,2.436511520E0,1.141437978E1
7.638036792E0,-1.275564686E0,9.918323178E0,3.356294768E0,1.054821855E1
7.648027792E0,-2.861824391E0,9.315437822E0,4.000386622E0,1.053425431E1
7.658018792E0,-3.072349006E0,9.179540344E0,3.623724192E0,1.033608564E1
7.668008792E0,-2.237151433E0,9.547401545E0,2.521798861E0,1.012507740E1
7.677999792E0,-1.496578913E0,9.649398621E0,1.788326468E0,9.927172495E0
7.687990792E0,-1.076622967E0,9.357388671E0,1.391410453E0,9.521337238E0
7.697981792E0,-9.587202226E-1,9.065410296E0,1.284899912E0,9.206072783E0
7.707972792E0,-9.492436402E-1,8.805675808E0,1.291227622E0,8.950321709E0
7.717963792E0,-1.121409423E0,8.686887283E0,1.455646941E0,8.879103433E0
7.727954792E0,-1.658096697E0,8.686450496E0,1.753107373E0,9.015380876E0
7.737945792E0,-2.420651971E0,8.886531106E0,2.687645777E0,9.594447919E0
7.747936792E0,-2.672054469E0,9.351250849E0,4.331217406E0,1.064637082E1
7.757926792E0,-2.431384535E0,9.843701012E0,5.274462168E0,1.142934957E1
7.767917792E0,-2.432384555E0,9.877504935E0,3.408748970E0,1.072852124E1
7.777908792E0,-2.371587399E0,8.805596285E0,-1.218980742E0,9.200481878E0
7.787899792E0,-2.000680092E0,6.197753892E0,-8.097965662E0,1.039191619E1
7.797890792E0,-5.021619500E-1,3.990114818E0,-1.418243326E0,4.264340162E0
7.807881792E0,-3.191238541E-1,3.508403066E0,8.565824776E0,9.261969888E0
7.817872792E0,-5.716016559E-1,7.861259848E-1,7.598912823E-1,1.233757382E0
7.827863792E0,-8.654275315E-1,-7.446307511E0,-1.634005116E1,1.797758972E1
7.837853792E0,-7.861340978E-1,-7.426540999E0,-1.641511771E1,1.803406797E1
7.847844792E0,-8.348688861E-1,-7.353416305E0,-1.670921395E1,1.827477957E1
7.857835792E0,-1.050495561E0,-7.260906921E0,-1.716524765E1,1.866735217E1
7.867826792E0,-1.370432982E0,-7.201259474E0,-1.761368232E1,1.907820823E1
7.877817792E0,-1.584146960E0,-7.185744472E0,-1.784978470E1,1.930697436E1
7.887808792E0,-1.548237455E0,-7.180149271E0,-1.787767592E1,1.932777481E1
7.897799792E0,-1.333928815E0,-7.171545094E0,-1.784133313E1,1.927494729E1
7.907790792E0,-5.391925129E0,-1.530584711E1,3.204654247E0,1.654120978E1
7.917781792E0,-4.040386255E0,-9.032034389E0,-1.208114422E-1,9.895299980E0
7.927772792E0,-3.291336587E0,-4.731716010E0,-1.668410454E0,6.000468846E0
7.937762792E0,-1.680479838E0,-1.651008702E0,-4.382926673E-2,2.356217992E0
7.947753792E0,9.123903210E-1,1.037287286E0,6.814065917E-1,1.540368772E0
7.957744792E0,2.945429927E0,3.102795750E0,-4.333147864E-1,4.300076816E0
7.967735792E0,5.096599224E0,4.077920117E0,-1.473014049E0,6.691377027E0
7.977726792E0,6.591722326E0,5.386190180E0,-1.686926394E0,8.677993347E0
7.987717792E0,6.856732757E0,7.251888176E0,-6.866701821E-1,1.000380838E1
7.997708792E0,5.222558774E0,8.961672505E0,1.213396651E0,1.044313294E1
8.007699792E0,2.652460742E0,1.074842432E1,2.830164642E0,1.142689832E1
8.017689792E0,1.068270859E-1,1.290378987E1,3.197444630E0,1.329446716E1
8.027680792E0,-1.917042542E0,1.496777045E1,5.082423234E-1,1.509859314E1
8.037671792E0,-2.496526318E0,1.608237606E1,-3.690258490E0,1.668812365E1
8.047662792E0,-2.187548041E0,1.623442939E1,-5.828375924E0,1.738712254E1
8.057653792E0,-1.245348760E0,1.564973356E1,-5.871428972E0,1.676122705E1
8.067644792E0,1.464212418E-1,1.444818336E1,-5.913459928E0,1.561218915E1
8.077635792E0,1.239345424E0,1.267591686E1,-6.144186380E0,1.414092895E1
8.087626792E0,1.892076539E0,1.124313501E1,-4.091786789E0,1.211324720E1
8.097617792E0,1.867623191E0,1.024072929E1,5.229049475E-1,1.042276271E1
8.107608792E0,9.056950399E-1,9.081027040E0,4.964096639E0,1.038882048E1
8.117598792E0,-1.296138407E-1,8.059348896E0,6.958569034E0,1.064854860E1
8.127589792E0,-5.369582553E-1,7.626828600E0,6.009802161E0,9.724945279E0
8.137580792E0,-3.576394271E-1,7.965984065E0,3.919316146E0,8.885147559E0
8.147571792E0,-6.781131109E-2,8.546317295E0,1.964715915E0,8.769506617E0
8.157562792E0,3.646143879E-1,9.108310148E0,6.194129495E-1,9.136625734E0
8.167553792E0,7.656194340E-1,9.476656668E0,3.866447961E-1,9.515392210E0
8.177544792E0,7.825869575E-1,9.625879365E0,1.061875266E0,9.715841445E0
8.187535792E0,2.938676101E-1,9.602146686E0,2.269159238E0,9.871001104E0
8.197526792E0,-2.667306457E-1,9.548910127E0,2.969772763E0,1.000361835E1
8.207516792E0,-6.171698114E-1,9.651594250E0,2.932067578E0,1.010599775E1
8.217507792E0,-9.295524837E-1,9.824552550E0,3.138041596E0,1.035534672E1
8.227498792E0,-9.753779899E-1,1.000904039E1,4.296741053E0,1.093591493E1
8.237489792E0,-1.100900022E0,9.591832783E0,4.107414057E0,1.049219173E1
8.247480792E0,-1.164969645E0,8.160893982E0,-1.904006613E0,8.460649268E0
8.257471792E0,-1.221586334E0,4.284176556E0,-1.805200363E1,1.859358161E1
8.267462792E0,-3.328857878E0,-1.248238454E0,-1.272317522E1,1.321054813E1
8.277453792E0,-4.056978606E0,-3.182165855E0,5.340740358E0,7.423527632E0
8.287444792E0,-4.003930327E0,-8.890959202E0,5.399321857E-1,9.765866084E0
8.297434792E0,-3.798168270E0,-8.827985274E0,3.330272904E-1,9.616148573E0
8.307425792E0,-3.678616683E0,-8.749503946E0,4.451806873E-2,9.491471006E0
8.317417167E0,-3.664890052E0,-8.680451837E0,-2.338017949E-1,9.425302461E0
8.327408167E0,-3.730148195E0,-8.615395131E0,-5.239733800E-1,9.402849936E0
8.337399167E0,-3.857071951E0,-8.558339170E0,-8.185832942E-1,9.422964077E0
8.347390167E0,-4.020434678E0,-8.521485924E0,-1.049455926E0,9.480557742E0
8.357381167E0,-4.131598726E0,-8.502104743E0,-1.199528078E0,9.528628480E0
8.367372167E0,-4.150417405E0,-8.489963000E0,-1.299299411E0,9.539057361E0
8.377363167E0,-4.100087204E0,-8.480944839E0,-1.369193519E0,9.519024705E0
8.387353167E0,-1.183958990E0,-1.030056151E1,-3.796723423E0,1.104166813E1
8.397344167E0,-2.511984894E0,-6.417013954E0,-4.545848812E0,8.255475614E0
8.407335167E0,-3.835025024E0,-4.280126190E0,-3.061383430E0,6.511448813E0
8.417326167E0,-4.124394372E0,-2.348942887E0,-1.784785248E0,5.070859888E0
8.427317167E0,-3.162347595E0,-1.374317873E-1,-8.733868345E-1,3.283616051E0
8.437308167E0,-1.440289083E0,2.420299968E0,1.294842517E-1,2.819406099E0
8.447299167E0,1.253099610E-1,5.156512719E0,6.790981109E-1,5.202547477E0
8.457290167E0,1.118683451E0,8.265636325E0,1.542221839E0,8.482372589E0
8.467281167E0,1.300743527E0,1.108296458E1,2.537693932E0,1.144394722E1
8.477271167E0,-1.449060638E-2,1.350134958E1,2.860216992E0,1.380099604E1
8.487262167E0,-1.686165671E0,1.573297101E1,1.475957683E0,1.589175832E1
8.497253167E0,-1.907728659E0,1.680170053E1,-6.986170670E-1,1.692408447E1
8.507244167E0,-1.098584817E0,1.630754064E1,-2.028355840E0,1.646988153E1
8.517235167E0,1.741406802E-2,1.575515535E1,-1.659489942E0,1.584232085E1
8.527226167E0,1.193556829E0,1.509994560E1,-3.257740387E-1,1.515054664E1
8.537217167E0,2.462480320E0,1.462001315E1,7.880798319E-1,1.484687387E1
8.547208167E0,3.717754729E0,1.412989720E1,1.537034190E0,1.469143183E1
8.557199167E0,4.455571603E0,1.335065514E1,2.258255496E0,1.425453713E1
8.567189167E0,4.103554310E0,1.190878438E1,2.711066215E0,1.288441630E1
8.577180167E0,2.866853582E0,1.022955643E1,2.791214000E0,1.098424098E1
8.587171167E0,1.468254561E0,8.897653679E0,2.776868733E0,9.435836604E0
8.597162167E0,1.711985806E-1,7.721384509E0,2.366160306E0,8.077611175E0
8.607153167E0,-8.715160909E-1,7.415503795E0,1.808936588E0,7.682544396E0
8.617144167E0,-1.060291036E0,7.639911160E0,1.177720449E0,7.802530684E0
8.627135167E0,-1.951878791E-1,8.660081307E0,6.741794331E-1,8.688476533E0
8.637126167E0,5.040872554E-1,9.534226599E0,1.767123587E-1,9.549178397E0
8.647117167E0,6.368348017E-1,9.951423097E0,-3.123968518E-1,9.976671389E0
8.657107167E0,2.821326868E-1,1.015985528E1,-3.620079915E-1,1.017021672E1
8.667098167E0,-5.288950911E-1,1.018434108E1,2.966172633E-1,1.020237792E1
8.677089167E0,-1.410041729E0,1.009784673E1,1.771394248E0,1.034855371E1
8.687080167E0,-2.035008218E0,9.996009285E0,3.888534064E0,1.091705809E1
8.697071167E0,-2.495387280E0,9.674062176E0,5.128064260E0,1.122993676E1
8.707062167E0,-2.953080424E0,8.582810937E0,3.975111448E0,9.908927217E0
8.717053167E0,-3.108617823E0,6.988046018E0,4.032558587E-1,7.658910314E0
8.727044167E0,-2.703049975E0,4.274883576E0,-9.088176430E0,1.040077207E1
8.737035167E0,-2.144473796E0,1.167912914E0,-9.209613744E0,9.527842030E0
8.747026167E0,-2.030961360E0,4.089449072E-1,7.335229710E-1,2.197747922E0
8.757016167E0,-1.617879401E0,-4.190850316E0,-5.382608761E0,7.010936970E0
8.767007167E0,-1.323579097E0,-1.778947768E1,-1.482757177E1,2.319642779E1
8.776998167E0,-1.337005912E0,-1.772201134E1,-1.503446497E1,2.327858259E1
8.786989167E0,-1.519442403E0,-1.758393636E1,-1.549848363E1,2.348843370E1
8.796980167E0,-1.795716180E0,-1.745419366E1,-1.605924330E1,2.378597840E1
8.806971167E0,-2.045707599E0,-1.738668405E1,-1.647287885E1,2.403824951E1
8.816962167E0,-2.151094598E0,-1.735822682E1,-1.670346146E1,2.418555087E1
8.826953167E0,-2.108301166E0,-1.734066646E1,-1.683511853E1,2.426035579E1
8.836944167E0,-1.978803319E0,-1.733038238E1,-1.689300480E1,2.428232747E1
8.846934167E0,3.844790240E-1,-1.155640193E1,-4.408291894E0,1.237462271E1
8.856925167E0,1.944364096E0,-7.068539958E0,-7.017196727E0,1.014819485E1
8.866916167E0,2.332770220E0,-4.524670781E0,-4.793619897E0,6.992371150E0
8.876907167E0,2.413401423E0,-2.656636239E0,-1.512413903E0,3.894819424E0
8.886898167E0,1.835948385E0,-1.484797504E0,-2.190858150E-1,2.371355877E0
8.896889167E0,4.908581127E-1,-9.695034385E-1,-1.235899075E0,1.645698979E0
8.906880167E0,-7.463484000E-1,9.662933171E-2,-2.286146715E0,2.406831935E0
8.916871167E0,-1.242428661E0,2.123215805E0,-2.204709034E0,3.303394656E0
8.926862167E0,-9.987151046E-1,5.177956213E0,-5.310909033E-2,5.273659354E0
8.936853167E0,-5.234724198E-1,8.831909925E0,2.853725413E0,9.296257582E0
8.946843167E0,-7.437741633E-1,1.221953934E1,3.728301644E0,1.279728779E1
8.956834167E0,-1.541437874E0,1.488641580E1,2.020563841E0,1.510179077E1
8.966825167E0,-1.070450939E0,1.659854487E1,-8.186919793E-1,1.665316227E1
8.976816167E0,1.663185309E-1,1.651293695E1,-3.599413809E0,1.690149486E1
8.986807167E0,1.267907026E0,1.608685503E1,-4.237198564E0,1.668377489E1
8.996798167E0,2.453779663E0,1.554988650E1,-3.478455674E0,1.612202403E1
9.006789167E0,3.811659258E0,1.514918968E1,-2.035396911E0,1.575339756E1
9.016780167E0,4.808644318E0,1.461551430E1,7.962682727E-1,1.540682841E1
9.026771167E0,4.821856394E0,1.367760454E1,4.669908017E0,1.523598392E1
9.036761167E0,3.643843584E0,1.218424554E1,7.479533730E0,1.475387611E1
9.046752167E0,2.151469551E0,1.018942232E1,7.126258993E0,1.261890311E1
9.056743167E0,1.310625907E0,8.976580566E0,5.005655140E0,1.036114484E1
9.066734167E0,9.475285788E-1,8.207524357E0,2.853806105E0,8.741022581E0
9.076725167E0,9.423910689E-1,8.426721269E0,1.127734941E0,8.553918306E0
9.086716167E0,9.600169889E-1,8.703461215E0,2.260371311E-1,8.759164488E0
9.096707167E0,7.184681448E-1,8.820796707E0,1.065887479E-1,8.850650382E0
9.106698167E0,2.861110593E-1,8.656028602E0,1.153737509E-1,8.661524219E0
9.116689167E0,-3.766026418E-1,8.373974707E0,1.443478739E-1,8.383681664E0
9.126679167E0,-1.167799332E0,8.172341076E0,3.638242829E-1,8.263369897E0
9.136670167E0,-2.040087255E0,8.230375861E0,6.973051710E-1,8.508071305E0
9.146661167E0,-3.013383929E0,8.651575363E0,1.080973442E0,9.224897969E0
9.156652167E0,-3.889673102E0,9.224909475E0,2.023666520E0,1.021389925E1
9.166643167E0,-5.109902224E0,9.497223664E0,2.553212442E0,1.108274568E1
9.176634167E0,-6.873706639E0,8.913418357E0,1.325914475E0,1.133379544E1
9.186625167E0,-8.963612611E0,7.300246988E0,-7.301461455E0,1.367301344E1
9.196616167E0,-1.038939241E1,4.229279387E0,-1.593955548E1,1.949091346E1
9.206607167E0,-5.498794105E0,2.415429237E0,1.632689083E0,6.223882121E0
9.216598167E0,-1.907962986E0,7.754910690E-1,7.055504175E0,7.349955668E0
9.226588167E0,1.161432445E-1,-2.777807504E0,1.676404914E0,3.246542348E0
9.236579167E0,2.458227348E0,-8.504740668E0,1.427080223E-1,8.854030783E0
9.246570167E0,2.432772664E0,-8.402258273E0,-2.219930506E-1,8.750177589E0
9.256561167E0,2.231739835E0,-8.274345168E0,-7.258464539E-1,8.600715304E0
9.266552167E0,1.907776606E0,-8.161955252E0,-1.320709430E0,8.485363782E0
9.276543167E0,1.533406139E0,-8.107593103E0,-1.798167332E0,8.444987038E0
9.286534167E0,1.251268189E0,-8.100925523E0,-1.995329597E0,8.436350313E0
9.296525167E0,1.195806326E0,-8.104547873E0,-1.979491829E0,8.428050599E0
9.306516167E0,1.327570260E0,-8.107428796E0,-1.863314670E0,8.424059950E0
9.316505833E0,1.556264366E0,-8.113722739E0,-1.726096891E0,8.440015755E0
9.326496833E0,-5.236407465E-1,-1.005425457E1,-3.632968640E-1,1.007443394E1
9.336487833E0,-3.606697831E-2,-4.656700326E0,1.891973044E0,5.026501841E0
9.346478833E0,1.137641733E0,-1.131450847E0,3.710391623E0,4.042451697E0
9.356469833E0,2.549209439E0,2.272715076E0,3.854931285E0,5.150164831E0
9.366460833E0,4.112043883E0,5.772746099E0,3.388691851E0,7.855999928E0
9.376451833E0,5.039871876E0,9.131121306E0,2.613807138E0,1.075219385E1
9.386442833E0,4.276281353E0,1.168206561E1,4.462454653E-1,1.244814742E1
9.396433833E0,2.456241341E0,1.407577069E1,-2.092539557E0,1.444088515E1
9.406423833E0,6.790370806E-1,1.623567368E1,-3.061708535E0,1.653578696E1
9.416414833E0,-1.003629434E-1,1.707902578E1,-2.964104472E0,1.733462170E1
9.426405833E0,1.363704537E-1,1.670496887E1,-2.971916353E0,1.696781862E1
9.436396833E0,4.855514356E-1,1.624652611E1,-3.588450279E0,1.664518989E1
9.446387833E0,9.259900676E-1,1.572960418E1,-4.369957548E0,1.635158813E1
9.456378833E0,1.633234628E0,1.540119648E1,-4.989963552E0,1.627157167E1
9.466369833E0,2.670002389E0,1.512647090E1,-4.585910425E0,1.603027165E1
9.476360833E0,2.969444734E0,1.366707254E1,-2.254820695E0,1.416653416E1
9.486351833E0,1.891665480E0,1.118530254E1,1.537104356E0,1.144779809E1
9.496342833E0,5.764830577E-1,9.011556271E0,4.947157255E0,1.029635101E1
9.506332833E0,-5.523826255E-1,7.295983783E0,6.868361700E0,1.003548197E1
9.516323833E0,-1.297011834E0,6.088038492E0,6.662190045E0,9.117632838E0
9.526314833E0,-1.542911957E0,5.966370213E0,4.764748685E0,7.789799796E0
9.536305833E0,-1.402239497E0,6.748196155E0,2.283211705E0,7.260680591E0
9.546296833E0,-1.270826102E0,7.817043788E0,1.576736784E-1,7.921239395E0
9.556287833E0,-1.282275389E0,9.079611429E0,-9.663015032E-1,9.220483310E0
9.566278833E0,-1.475082063E0,1.014861226E1,-1.259594332E0,1.033231706E1
9.576269833E0,-1.644113227E0,1.094755709E1,-1.067659478E0,1.112169103E1
9.586260833E0,-1.716883287E0,1.097191893E1,-6.837581956E-1,1.112646478E1
9.596251833E0,-1.992604064E0,1.064000758E1,-2.043822603E-1,1.082691112E1
9.606241833E0,-1.981931872E0,1.012904280E1,5.621220767E-1,1.033641829E1
9.616232833E0,-1.706780176E0,9.578928562E0,2.617359906E0,1.007569074E1
9.626223833E0,-1.249641201E0,9.387101297E0,5.671515008E0,1.103835841E1
9.636214833E0,-6.377177312E-1,9.518427422E0,7.930453459E0,1.240561311E1
9.646205833E0,-5.218915520E-1,9.263444381E0,7.520267773E0,1.194312354E1
9.656196833E0,-1.075258812E0,8.338394399E0,2.854990751E0,8.878962488E0
9.666187833E0,-1.724629532E0,5.547100877E0,-1.192143893E1,1.326142456E1
9.676178833E0,-1.602850157E0,1.268673304E0,-1.455916118E1,1.470196704E1
9.686169833E0,-1.457769627E0,2.123898759E0,6.942834762E0,7.405335425E0
9.696159833E0,-1.820094391E0,-8.730425066E-1,3.681808094E0,4.198887668E0
9.706150833E0,-3.219373150E0,-1.274322299E1,-1.096674532E1,1.711793207E1
9.716141833E0,-3.164199993E0,-1.266867099E1,-1.126982288E1,1.724866064E1
9.726132833E0,-3.182321391E0,-1.256435432E1,-1.179871055E1,1.752711441E1
9.736123833E0,-3.290882843E0,-1.248148758E1,-1.242138873E1,1.791391471E1
9.746114833E0,-3.510899243E0,-1.245655155E1,-1.281466661E1,1.821284630E1
9.756105833E0,-3.676336562E0,-1.246036042E1,-1.290751221E1,1.831338046E1
9.766096833E0,-3.671811694E0,-1.246312265E1,-1.285378799E1,1.827652847E1
9.776087833E0,-3.532566685E0,-1.246202571E1,-1.274862231E1,1.817439085E1
9.786077833E0,-4.628445995E0,-1.348717827E1,-2.275557407E0,1.443969015E1
9.796068833E0,-6.012659111E0,-6.886018537E0,-4.004180295E0,9.980119273E0
9.806059833E0,-5.986450721E0,-2.947770275E0,-1.944648271E0,6.950438744E0
9.816050833E0,-3.312154137E0,-8.296672761E-2,9.009927821E-1,3.433516637E0
9.826041833E0,1.503681672E-1,2.550129790E0,2.358860350E0,3.477066965E0
9.836032833E0,2.265112087E0,4.843549272E0,2.541661853E0,5.920367158E0
9.846023833E0,3.915117846E0,7.335956519E0,2.351304578E0,8.641356317E0
9.856014833E0,4.763491534E0,9.976201258E0,1.653480320E0,1.117807856E1
9.866005833E0,4.684568741E0,1.243113604E1,3.494015408E-1,1.328910866E1
9.875996833E0,3.906359594E0,1.502452587E1,-1.510459764E0,1.559735592E1
9.885986833E0,2.934827171E0,1.693719221E1,-3.021770883E0,1.745315988E1
9.895977833E0,2.613791643E0,1.710422611E1,-3.543666455E0,1.766193731E1
9.905968833E0,2.522853991E0,1.658995414E1,-3.875610548E0,1.722241933E1
9.915959833E0,2.723855245E0,1.584626198E1,-4.145677067E0,1.660451880E1
9.925950833E0,3.474474013E0,1.533342024E1,-3.683294456E0,1.614782970E1
9.935941833E0,4.279281267E0,1.482193154E1,-2.445669429E0,1.561996164E1
9.945932833E0,4.170642631E0,1.387721562E1,1.598361249E-1,1.449127051E1
9.955923833E0,2.371868212E0,1.228535910E1,3.972874303E0,1.312781541E1
9.965914833E0,-8.110088110E-2,1.034226970E1,6.864368051E0,1.241324570E1
9.975904833E0,-1.988944730E0,8.612273887E0,7.639329947E0,1.168274474E1
9.985895833E0,-3.067249064E0,7.351342882E0,6.305760151E0,1.015937351E1
9.995886833E0,-3.341140247E0,7.094479376E0,3.353714976E0,8.528907310E0
1.000587783E1,-3.038546544E0,7.477057434E0,3.027805209E-1,8.076560469E0
1.001586883E1,-2.243175234E0,8.278704268E0,-1.560658257E0,8.718052172E0
1.002585983E1,-1.253939928E0,9.130274629E0,-2.262333344E0,9.489596003E0
1.003585083E1,-6.899908890E-1,9.673824779E0,-1.624081689E0,9.833443681E0
1.004584183E1,-8.391735332E-1,1.011169762E1,-7.474963546E-2,1.014673486E1
1.005583283E1,-1.332348313E0,1.013760078E1,1.421838340E0,1.032316453E1
1.006582383E1,-1.989334008E0,1.010113755E1,2.384908526E0,1.056779155E1
1.007581383E1,-2.458778740E0,1.002265154E1,2.864663215E0,1.071006219E1
1.008580483E1,-2.381132979E0,1.001899469E1,3.213665975E0,1.078784955E1
1.009579583E1,-1.808905452E0,1.010169654E1,3.715096585E0,1.091413554E1
1.010578683E1,-1.210774613E0,1.020539340E1,4.473178446E0,1.120827172E1
1.011577783E1,-1.177730828E0,9.947174510E0,4.030393948E0,1.079710174E1
1.012576883E1,-1.893439525E0,8.366707202E0,5.981818557E-2,8.578489428E0
1.013575983E1,-2.433381798E0,4.657797264E0,-1.103474610E1,1.222219472E1
1.014575083E1,-2.248102391E0,-8.931282771E-1,-1.609302852E1,1.627381975E1
1.015574183E1,8.239920417E-1,-3.212088981E0,-1.604938197E0,3.684060956E0
1.016573183E1,1.268937890E0,-8.426233612E0,3.481891206E-1,8.528355757E0
1.017572283E1,1.280556892E0,-8.366053483E0,1.121753240E-1,8.464234174E0
1.018571383E1,1.231271589E0,-8.266005285E0,-3.579478312E-1,8.364866989E0
1.019570483E1,1.145194289E0,-8.173670148E0,-9.592952963E-1,8.309067404E0
1.020569583E1,1.004276099E0,-8.129150618E0,-1.460746737E0,8.320182767E0
1.021568683E1,8.518678384E-1,-8.124627796E0,-1.662302745E0,8.336576399E0
1.022567783E1,8.244153801E-1,-8.127313423E0,-1.645088396E0,8.333018662E0
1.023566883E1,9.229508311E-1,-8.126699465E0,-1.556101960E0,8.325655274E0
1.024565983E1,-4.702117039E-1,-1.700160163E1,-3.922301296E-1,1.701262477E1
1.025565083E1,-1.500772097E0,-9.117140028E0,-2.340544531E0,9.531668683E0
1.026564083E1,-2.630329615E0,-4.069885458E0,-2.206119382E0,5.324430886E0
1.027563183E1,-2.720795397E0,-1.019406500E0,-5.183907509E-2,2.905960168E0
1.028562283E1,-2.057139198E0,1.240153509E0,1.582353619E0,2.876394511E0
1.029561383E1,-7.211297974E-1,3.615836298E0,2.272553108E0,4.331142799E0
1.030560483E1,7.572878096E-1,6.383214124E0,2.326635175E0,6.836090887E0
1.031559679E1,1.858904116E0,9.781369693E0,1.440516686E0,1.006010964E1
1.032558779E1,1.688948361E0,1.324828793E1,3.130997236E-1,1.335918078E1
1.033557879E1,5.284012572E-1,1.616142807E1,-2.064300648E-1,1.617138147E1
1.034556979E1,-3.374818820E-1,1.795699106E1,-8.020087767E-1,1.797805996E1
1.035556079E1,-3.963892907E-1,1.780197903E1,-1.482628187E0,1.786800963E1
1.036555079E1,-3.560164958E-2,1.726864397E1,-2.158162858E0,1.740301695E1
1.037554179E1,9.463708301E-1,1.644395852E1,-2.368452122E0,1.664058157E1
1.038553279E1,2.746070864E0,1.571042298E1,-2.989744513E0,1.622642498E1
1.039552379E1,5.034702938E0,1.493762689E1,-4.311859614E0,1.634237021E1
1.040551479E1,5.826310687E0,1.315146389E1,-4.397168151E0,1.504134257E1
1.041550579E1,4.525692290E0,1.087846172E1,-2.330034746E0,1.201049050E1
1.042549679E1,2.495973171E0,9.426315064E0,9.598134327E-1,9.798292688E0
1.043548779E1,4.045307345E-1,8.364333233E0,3.623230687E0,9.124336478E0
1.044547879E1,-1.405251105E0,7.372222704E0,4.192260665E0,8.596478800E0
1.045546879E1,-2.178449919E0,7.337990765E0,3.499717612E0,8.416636851E0
1.046545979E1,-2.178275380E0,7.778135830E0,2.510930057E0,8.458667175E0
1.047545079E1,-1.711724874E0,8.229476559E0,1.442513949E0,8.528489490E0
1.048544179E1,-1.275207567E0,8.787465824E0,1.166367495E-1,8.880276689E0
1.049543279E1,-1.260845344E0,9.166380601E0,-1.070096598E0,9.314363694E0
1.050542379E1,-1.423211559E0,9.770242442E0,-8.319944680E-1,9.908349172E0
1.051541479E1,-1.695277972E0,9.873283246E0,1.011908616E0,1.006874612E1
1.052540579E1,-2.267316049E0,9.878031185E0,3.122800244E0,1.060509800E1
1.053539679E1,-2.476748988E0,9.977265451E0,4.334038103E0,1.115634338E1
1.054538779E1,-1.735881037E0,1.021267903E1,4.676178571E0,1.136568265E1
1.055537779E1,-9.021791822E-1,1.024611458E1,4.446611037E0,1.120576374E1
1.056536879E1,-7.529362386E-1,9.971755035E0,3.751149055E0,1.068053981E1
1.057535979E1,-1.010945652E0,9.313002457E0,1.885592416E0,9.555599648E0
1.058535079E1,-1.418897483E0,7.557300528E0,-4.052293525E0,8.691786016E0
1.059534179E1,-2.086242252E0,2.598986201E0,-1.845351673E1,1.875205097E1
1.060533279E1,-3.499519684E0,1.479515129E-1,-4.370245524E0,5.600676174E0
1.061532379E1,-2.476742848E0,5.921054292E-1,9.846013001E0,1.016999587E1
1.062531479E1,-1.617003488E0,-5.519765144E0,-8.664664355E-1,5.816637483E0
1.063530579E1,-1.504584482E0,-5.471013399E0,-1.045018474E0,5.769560268E0
1.064529679E1,-1.481082475E0,-5.363754414E0,-1.477802480E0,5.757374999E0
1.065528679E1,-1.550916503E0,-5.247724020E0,-2.071664997E0,5.851131964E0
1.066527779E1,-1.719954391E0,-5.169915707E0,-2.657660086E0,6.062130702E0
1.067526879E1,-1.958621216E0,-5.143810812E0,-3.014610382E0,6.275576666E0
1.068525979E1,-2.122063026E0,-5.142916188E0,-3.123630549E0,6.380423670E0
1.069525079E1,-2.123894520E0,-5.144511893E0,-3.095146422E0,6.368426959E0
1.070524179E1,-1.995024665E0,-5.143864607E0,-3.029147730E0,6.294060889E0
1.071523279E1,-1.789613441E0,-5.142750712E0,-2.989377308E0,6.211841743E0
1.072522379E1,-2.740030690E0,-9.858237190E0,-5.620017411E0,1.167378278E1
1.073521479E1,-4.088876045E0,-6.388009425E0,-2.822118874E0,8.092584671E0
1.074520479E1,-3.633938986E0,-3.895481726E0,-1.600200491E0,5.562457374E0
1.075519579E1,-1.517524224E0,-1.255870240E0,-1.719129349E0,2.614478064E0
1.076518679E1,1.123559518E0,1.267966960E0,-9.429453850E-1,1.938884267E0
1.077517779E1,3.266851664E0,3.935047495E0,6.642600703E-1,5.157340403E0
1.078516879E1,4.963594363E0,7.586353589E0,3.204036781E0,9.615398144E0
1.079515979E1,5.353071551E0,1.136381102E1,5.336954870E0,1.364824762E1
1.080515079E1,3.836495892E0,1.475694208E1,5.364533848E0,1.616367111E1
1.081514179E1,2.094785619E0,1.716183756E1,2.973462356E0,1.754304060E1
1.082513279E1,1.387605378E0,1.707500173E1,8.577117649E-1,1.715274911E1
1.083512379E1,1.011654116E0,1.657092496E1,-3.477724699E-1,1.660541911E1
1.084511379E1,1.012294751E0,1.577943182E1,-8.629437073E-1,1.583539961E1
1.085510479E1,1.357959848E0,1.503976605E1,-1.351608456E0,1.516131469E1
1.086509579E1,1.963886633E0,1.478838957E1,-2.048532243E0,1.505821375E1
1.087508679E1,2.523852403E0,1.473608623E1,-2.171702525E0,1.510755970E1
1.088507779E1,2.556578684E0,1.455164984E1,-1.202183007E0,1.482335494E1
1.089506879E1,1.694493421E0,1.392959030E1,8.069825645E-1,1.405546210E1
1.090505979E1,-2.682890018E-1,1.280942049E1,2.540473698E0,1.306167060E1
1.091505079E1,-2.482804949E0,1.154041798E1,2.833815644E0,1.213985497E1
1.092504179E1,-4.643049709E0,1.016862962E1,1.956080747E0,1.134835630E1
1.093503179E1,-5.636235833E0,8.639952852E0,5.715723467E-1,1.033163272E1
1.094502279E1,-4.665234630E0,7.534857160E0,-6.224185646E-1,8.884024507E0
1.095501379E1,-2.677024895E0,7.350264655E0,-7.098028636E-1,7.854722968E0
1.096500479E1,-9.142855498E-1,7.521246597E0,-3.238819528E-1,7.583532683E0
1.097499579E1,3.250393726E-1,7.733467780E0,-1.211004408E-1,7.741242783E0
1.098498679E1,1.209947817E0,8.424629136E0,2.114062281E-1,8.513697339E0
1.099497779E1,1.828893866E0,9.239662001E0,9.743998969E-1,9.469195415E0
1.100496879E1,1.752048150E0,9.990646219E0,1.808585755E0,1.030309017E1
1.101495979E1,1.395162612E0,1.006428138E1,2.323084745E0,1.042271371E1
1.102495079E1,1.571440815E0,1.002969860E1,2.501221340E0,1.045563908E1
1.103494079E1,2.101942757E0,1.003836067E1,2.796021581E0,1.063036147E1
1.104493179E1,2.545932659E0,9.893423395E0,3.686842839E0,1.086068182E1
1.105492279E1,2.082770760E0,9.438211225E0,5.834970413E0,1.129002413E1
1.106491379E1,1.008872595E0,8.345906902E0,6.654467043E0,1.072165647E1
1.107490479E1,1.200745176E0,6.308890166E0,8.465104732E-1,6.477689718E0
1.108489579E1,2.186110941E0,2.494499381E0,-1.145474341E1,1.192529894E1
1.109488679E1,1.403481445E0,-2.548272715E0,-1.564537972E1,1.591355902E1
1.110487779E1,-3.834007609E-1,-7.867613432E0,-1.117123180E1,1.366904376E1
1.111486879E1,-4.333330590E-1,-7.850594527E0,-1.123781522E1,1.371525074E1
1.112485979E1,-5.386504029E-1,-7.746014151E0,-1.161857070E1,1.397433593E1
1.113484979E1,-6.662832800E-1,-7.618546604E0,-1.218806027E1,1.438871081E1
1.114484079E1,-7.643339968E-1,-7.525933725E0,-1.274639101E1,1.482209056E1
1.115483179E1,-8.218331766E-1,-7.485207283E0,-1.309263739E1,1.510367147E1
1.116482279E1,-8.087519319E-1,-7.471352305E0,-1.319600096E1,1.518583637E1
1.117481379E1,-7.069003057E-1,-7.461056528E0,-1.316799631E1,1.515134315E1
1.118480479E1,2.434482097E0,-2.176185380E1,-3.530168742E0,2.218033082E1
1.119479579E1,1.371604764E0,-9.867712018E0,-2.993177267E-1,9.967077366E0
1.120478679E1,4.559409528E-1,-3.440540866E0,1.276774621E0,3.698020692E0
1.121477779E1,4.861631640E-1,6.869425893E-2,7.720290057E-1,9.149329532E-1
1.122476779E1,4.458148178E-1,2.633936763E0,-8.465737693E-1,2.802331328E0
1.123475879E1,5.292477878E-1,4.800536569E0,-1.321808707E0,5.007238044E0
1.124474979E1,1.387026065E-1,7.331260035E0,-1.412203152E0,7.467324143E0
1.125474079E1,-7.890881111E-1,1.004625792E1,-1.530887597E0,1.019281978E1
1.126473179E1,-2.137792621E0,1.240570650E1,-1.570069789E0,1.268608805E1
1.127472279E1,-3.489261621E0,1.416004895E1,-2.372160426E0,1.477528605E1
1.128471379E1,-3.903930953E0,1.582288481E1,-3.489641690E0,1.666679213E1
1.129470479E1,-2.687861832E0,1.690758776E1,-4.583262806E0,1.772279388E1
1.130469579E1,-5.326153089E-1,1.733214122E1,-5.717965289E0,1.825874928E1
1.131468617E1,2.321203550E0,1.713499182E1,-6.093931900E0,1.833390129E1
1.132467617E1,4.455426007E0,1.640600541E1,-3.907977226E0,1.744362693E1
1.133466717E1,4.444178011E0,1.519634513E1,1.103118236E0,1.587124738E1
1.134465817E1,2.496949072E0,1.356413698E1,6.276567342E0,1.515308102E1
1.135464917E1,2.914845043E-1,1.172161618E1,8.188120372E0,1.430127842E1
1.136464017E1,-5.644365509E-1,1.045652780E1,6.461365085E0,1.230474710E1
1.137463117E1,-1.869264943E-1,9.825216794E0,3.700192909E0,1.050053590E1
1.138462217E1,7.266940809E-1,9.500364788E0,1.526403952E0,9.649607475E0
1.139461317E1,1.367743848E0,8.966926228E0,6.852363718E-1,9.096484931E0
1.140460417E1,1.341396002E0,8.316752100E0,8.183190000E-1,8.463885320E0
1.141459517E1,6.873046781E-1,7.670259379E0,9.488744617E-1,7.759228661E0
1.142458517E1,-4.878222384E-1,7.283371924E0,7.322631884E-1,7.336326498E0
1.143457617E1,-1.847777157E0,7.435572023E0,2.084602181E-1,7.664559178E0
1.144456717E1,-3.042648658E0,7.867594137E0,-5.416077054E-1,8.452815345E0
1.145455817E1,-4.022036230E0,8.356876279E0,-1.343297224E0,9.371158093E0
1.146454917E1,-4.551345779E0,8.854138700E0,-2.089689624E0,1.017238041E1
1.147454017E1,-4.632519458E0,9.266772031E0,-2.774396238E0,1.072523076E1
1.148453117E1,-4.530435844E0,9.264296320E0,-3.715761706E0,1.096170244E1
1.149452217E1,-4.361900085E0,8.368716890E0,-4.326398131E0,1.038168173E1
1.150451317E1,-4.011834593E0,6.475083237E0,-2.792400985E0,8.112892394E0
1.151450417E1,-2.926307778E0,3.155225394E0,-1.218305388E1,1.292074016E1
1.152449417E1,-4.500732865E0,-3.658814503E0,-1.811640136E1,1.902229003E1
1.153448517E1,-5.189257126E0,-5.783896739E0,2.290881790E0,8.101233880E0
1.154447617E1,-3.823423564E0,-5.933700065E0,6.243604249E0,9.423903556E0
1.155446717E1,-2.480817773E0,-6.291981187E0,6.087314606E0,9.099389166E0
1.156445817E1,8.994067249E-1,-6.596682519E0,9.262725173E0,1.140715698E1
1.157444917E1,3.989057642E0,-1.105284440E1,7.929447738E0,1.417582772E1
1.158444017E1,3.926330174E0,-1.102362820E1,7.737735078E0,1.402886280E1
1.159443117E1,3.833942997E0,-1.099541071E1,7.511046714E0,1.385691157E1
1.160442217E1,3.714606881E0,-1.097115646E1,7.247867045E0,1.366368014E1
1.161441217E1,3.593431522E0,-1.095998594E1,7.040527117E0,1.351307011E1
1.162440317E1,3.538398113E0,-1.095577126E1,6.930715238E0,1.343815459E1
1.163439417E1,3.552491072E0,-1.095075201E1,6.870942661E0,1.340705096E1
1.164438517E1,3.601041089E0,-1.094431774E1,6.822394398E0,1.338994597E1
1.165437617E1,1.454767812E0,-1.029995223E1,-2.896653332E0,1.079796119E1
1.166436717E1,-2.303785425E0,-7.148070862E0,-4.509277986E0,8.759904810E0
1.167435817E1,-5.480199375E0,-5.492890756E0,-5.400186660E0,9.453382993E0
1.168434917E1,-6.555911638E0,-3.930531691E0,-5.780606511E0,9.583551973E0
1.169434017E1,-6.102926672E0,-2.010057564E0,-5.418753909E0,8.405292339E0
1.170433117E1,-4.751642736E0,2.565588659E-1,-4.438976912E0,6.507568453E0
1.171432117E1,-2.938076761E0,2.607064714E0,-2.911229271E0,4.889206208E0
1.172431217E1,-1.044949039E0,6.117090967E0,-9.994692492E-1,6.285670941E0
1.173430317E1,1.990889587E-1,1.001335330E1,1.814718826E-1,1.001697623E1
1.174429417E1,2.920666129E-1,1.327270825E1,9.956475091E-1,1.331320401E1
1.175428517E1,6.848571067E-1,1.567522274E1,2.058349718E0,1.582461503E1
1.176427617E1,1.430606825E0,1.719571398E1,2.071504784E0,1.737902032E1
1.177426717E1,2.514193388E0,1.732414457E1,5.206711650E-2,1.750570948E1
1.178425817E1,3.757012935E0,1.693477263E1,-2.697959096E0,1.755507487E1
1.179424917E1,4.948371137E0,1.619059048E1,-4.228328630E0,1.744993868E1
1.180424017E1,5.498480694E0,1.484222138E1,-4.524773108E0,1.646202895E1
1.181423017E1,4.218515832E0,1.284797703E1,-2.822063910E0,1.381413892E1
1.182422117E1,2.419027906E0,1.097011565E1,4.562291475E-1,1.124292126E1
1.183421217E1,1.344898192E0,1.016045872E1,3.013582442E0,1.068294677E1
1.184420317E1,5.568065192E-1,1.014748141E1,4.230896727E0,1.100826505E1
1.185419417E1,-1.141255531E-1,1.058421579E1,4.057184136E0,1.133575722E1
1.186418517E1,-9.231993377E-1,1.104705565E1,3.233902019E0,1.154763430E1
1.187417617E1,-1.840368880E0,1.106568839E1,2.568049167E0,1.150787964E1
1.188416717E1,-2.474564176E0,1.058050281E1,2.111657760E0,1.106930919E1
1.189415817E1,-2.842134477E0,9.838225679E0,1.729737368E0,1.038558637E1
1.190414917E1,-2.702238089E0,9.235888792E0,1.442409868E0,9.730584705E0
1.191413917E1,-2.057564875E0,8.940299177E0,1.359581720E0,9.274210751E0
1.192413017E1,-1.291440169E0,8.867011346E0,1.507539811E0,9.086494604E0
1.193412117E1,-5.497831361E-1,9.072014726E0,1.655864815E0,9.238268289E0
1.194411217E1,1.901569531E-1,9.257399529E0,2.061914181E0,9.486152845E0
1.195410317E1,7.172244421E-1,9.420706415E0,2.762174388E0,9.843461160E0
1.196409417E1,1.111374870E0,9.692631179E0,4.131235614E0,1.059477989E1
1.197408517E1,1.212534917E0,9.897032297E0,5.668758631E0,1.146980007E1
1.198407617E1,4.002616823E-1,9.582467297E0,6.034373331E0,1.133126429E1
1.199406717E1,-1.247630929E0,8.394395522E0,3.920030676E0,9.348213713E0
1.200405817E1,-2.573172498E0,6.122759843E0,-2.307957121E0,7.031078927E0
1.201404817E1,-2.303298645E0,2.392973590E0,-1.444256770E1,1.481955698E1
1.202403917E1,-1.142206288E0,1.111684334E-1,-7.300361009E0,7.390011129E0
1.203403017E1,-4.377791721E-1,6.580339551E-2,6.496681098E0,6.511746768E0
1.204402117E1,6.303881002E-1,-5.043314717E0,4.733291835E-2,5.082780036E0
1.205401217E1,2.006730060E-1,-1.761633578E1,-8.931274585E0,1.975204348E1
1.206400317E1,1.601327249E-1,-1.753436834E1,-9.320578694E0,1.985832075E1
1.207399417E1,5.940301498E-2,-1.745266871E1,-9.816865801E0,2.002423601E1
1.208398517E1,-7.537521444E-2,-1.739763237E1,-1.031311665E1,2.022482803E1
1.209397617E1,-2.265882677E-1,-1.737897040E1,-1.059643998E1,2.035594495E1
1.210396617E1,-2.816738631E-1,-1.737748053E1,-1.064062739E1,2.037839839E1
1.211395717E1,-2.156484744E-1,-1.737915751E1,-1.059083133E1,2.035306681E1
1.212394817E1,-6.540128980E-2,-1.738272081E1,-1.052293463E1,2.031982808E1
1.213393917E1,-3.733996540E0,-1.128982035E1,-3.989579359E-1,1.189798055E1
1.214393017E1,-4.108078886E0,-5.747266856E0,-7.572343075E-1,7.104983620E0
1.215392117E1,-2.565190756E0,-1.852608418E0,1.304241332E0,3.422485503E0
1.216391217E1,-6.670649797E-2,1.096377493E0,2.879160801E0,3.081567829E0
1.217390317E1,1.897426449E0,3.821503338E0,2.755701520E0,5.079173729E0
1.218389417E1,3.343692264E0,6.427050115E0,1.881034073E0,7.485021063E0
1.219388517E1,2.994934502E0,9.187879643E0,4.583269823E-1,9.674545397E0
1.220387517E1,1.519713275E0,1.188320048E1,-8.132985806E-1,1.200755748E1
1.221386617E1,-4.290204450E-1,1.437980485E1,-1.355927210E0,1.444996141E1
1.222385717E1,-1.773561372E0,1.635016450E1,-1.510328786E0,1.651528057E1
1.223384817E1,-1.379849923E0,1.722957638E1,-1.969176171E0,1.739654974E1
1.224383917E1,9.311583119E-2,1.709489395E1,-3.178228340E0,1.738807652E1
1.225383017E1,1.761761398E0,1.671948166E1,-4.165867503E0,1.732048851E1
1.226382117E1,3.085632125E0,1.608231525E1,-3.993948838E0,1.685567016E1
1.227381217E1,3.683050042E0,1.514591173E1,-1.903660458E0,1.570310233E1
1.228380317E1,2.718338690E0,1.311322076E1,1.833323132E0,1.351691524E1
1.229379417E1,7.090916960E-1,1.053959218E1,5.091906248E0,1.172660751E1
1.230378417E1,-1.010494028E0,8.726013342E0,6.840001534E0,1.113328469E1
1.231377542E1,-2.104371983E0,7.753440115E0,6.762697835E0,1.050134739E1
1.232376642E1,-2.763185664E0,7.298109246E0,4.863082480E0,9.194953224E0
1.233375742E1,-3.600121322E0,7.374824715E0,1.849873091E0,8.412546794E0
1.234374842E1,-4.296195800E0,7.928825009E0,-1.162757424E0,9.092610693E0
1.235373942E1,-4.237407601E0,8.701300669E0,-2.874912214E0,1.009620606E1
1.236373042E1,-3.362869962E0,9.518309893E0,-2.895318997E0,1.050190410E1
1.237372142E1,-2.070108469E0,1.009638493E1,-1.802657994E0,1.046288266E1
1.238371242E1,-1.063215594E0,1.026095130E1,-4.167228734E-1,1.032430177E1
1.239370342E1,-3.784188966E-1,1.021477584E1,5.535348558E-1,1.023675960E1
1.240369342E1,-1.705288186E-1,9.774023252E0,9.654490522E-1,9.823069911E0
1.241368442E1,-2.891548274E-1,9.061877409E0,9.918374634E-1,9.120579709E0
1.242367542E1,-3.571363107E-1,8.669013514E0,1.184982691E0,8.756913019E0
1.243366642E1,-3.857994349E-1,8.678018811E0,9.889596100E-1,8.742705119E0
1.244365742E1,-4.070186151E-1,8.783024864E0,3.501768816E-1,8.799421217E0
1.245364842E1,-3.429215833E-1,8.372600611E0,-1.296192055E0,8.479277684E0
1.246363942E1,7.187857948E-2,6.804314223E0,-6.219762812E0,9.218964584E0
1.247363042E1,1.054364225E0,2.603684438E0,-1.672315020E1,1.695743522E1
1.248362142E1,1.136896578E0,-1.402114951E0,-5.305520239E0,5.604195319E0
1.249361242E1,1.695342876E0,-1.989781759E0,7.728112316E0,8.158255872E0
1.250360242E1,1.034274874E-1,-5.345912805E0,-1.249703474E0,5.491014454E0
1.251359342E1,-1.585261440E0,-8.579458144E0,-1.763879552E0,8.901203680E0
1.252358442E1,1.398205941E0,-1.000375100E1,1.058283819E1,1.462964381E1
1.253357542E1,1.301773222E0,-9.926711594E0,1.016883544E1,1.427022883E1
1.254356642E1,1.181016963E0,-9.867873402E0,9.735060915E0,1.391190632E1
1.255355742E1,1.049874806E0,-9.835103266E0,9.348599721E0,1.360984240E1
1.256354842E1,9.522152683E-1,-9.821893237E0,9.061430097E0,1.339723166E1
1.257353942E1,9.702818491E-1,-9.812633586E0,8.914864959E0,1.329300726E1
1.258353042E1,1.081742863E0,-9.802167070E0,8.882649139E0,1.327230585E1
1.259352142E1,1.231453437E0,-9.793431330E0,8.916166549E0,1.330134582E1
1.260351142E1,-7.138264789E-1,-1.281816324E1,-5.820298580E0,1.409577003E1
1.261350242E1,-2.702414382E0,-7.652342341E0,-5.774034240E0,9.959962761E0
1.262349342E1,-3.256573429E0,-4.579663845E0,-3.622220289E0,6.685736403E0
1.263348442E1,-2.353268950E0,-2.468465238E0,-2.007298847E0,3.957327892E0
1.264347542E1,-9.199988642E-1,-4.466383982E-1,-1.248344289E0,1.613768023E0
1.265346642E1,3.733825070E-1,1.680284541E0,-8.697967172E-1,1.928553076E0
1.266345742E1,1.210520478E0,3.970005074E0,-2.431038380E-1,4.157571358E0
1.267344842E1,2.009602066E0,6.919259958E0,8.330259168E-1,7.253177993E0
1.268343942E1,2.445536259E0,1.021183703E1,1.776329151E0,1.064977035E1
1.269343042E1,1.378113154E0,1.351784808E1,2.002167331E0,1.373463093E1
1.270342042E1,3.461086082E-1,1.591801083E1,1.421942275E0,1.598514247E1
1.271341142E1,7.692322093E-1,1.684588911E1,-4.076094031E-2,1.686349191E1
1.272340242E1,1.211396464E0,1.672086160E1,-1.574850472E0,1.683849305E1
1.273339342E1,2.027730919E0,1.620825492E1,-2.746427836E0,1.656387895E1
1.274338442E1,3.325208046E0,1.550499158E1,-3.489359854E0,1.623691487E1
1.275337542E1,4.502063692E0,1.459115831E1,-4.166960932E0,1.582826717E1
1.276336642E1,4.657400823E0,1.330579764E1,-4.251268426E0,1.472443264E1
1.277335742E1,3.267692786E0,1.137264733E1,-1.860684447E0,1.197819144E1
1.278334842E1,1.660493178E0,9.730081426E0,1.937673712E0,1.005914020E1
1.279333942E1,2.027485482E-2,9.013985789E0,5.120330733E0,1.036678049E1
1.280332942E1,-1.625749023E0,8.773515537E0,6.800708245E0,1.121905822E1
1.281332042E1,-2.499848998E0,8.672731174E0,5.958829644E0,1.081541316E1
1.282331142E1,-2.430624397E0,9.191894342E0,3.521590877E0,1.013905611E1
1.283330242E1,-2.337163087E0,9.661447978E0,1.401380979E0,1.003841506E1
1.284329342E1,-2.295124237E0,9.916867222E0,5.264949918E-2,1.017912682E1
1.285328442E1,-2.130104702E0,1.008839178E1,-5.241292083E-1,1.032413223E1
1.286327542E1,-1.874043434E0,1.016679710E1,-3.494996278E-1,1.034398144E1
1.287326642E1,-1.887849880E0,1.001258497E1,6.458578594E-1,1.020945480E1
1.288325742E1,-2.121582385E0,9.661909323E0,1.936162791E0,1.007979811E1
1.289324842E1,-2.276190076E0,9.431248945E0,2.750861195E0,1.008447992E1
1.290323842E1,-2.052789454E0,9.303882555E0,3.233512595E0,1.006140044E1
1.291322942E1,-1.390715950E0,9.314833805E0,4.387705017E0,1.039000361E1
1.292322042E1,-4.272374463E-1,9.508908155E0,5.903698586E0,1.120069298E1
1.293321142E1,-6.832493417E-2,9.571786773E0,6.628548675E0,1.164308498E1
1.294320242E1,-1.912901983E-1,8.508012185E0,2.013087591E0,8.745020579E0
1.295319342E1,1.132585645E0,5.795535037E0,-1.036548783E1,1.192955634E1
1.296318442E1,2.562787258E0,2.707439772E0,-4.912838777E0,6.167178731E0
1.297317542E1,5.650054850E-2,1.427010641E0,6.562549982E0,6.716145766E0
1.298316642E1,-1.843120288E0,-3.918415675E0,-3.625706106E0,5.647726850E0
1.299315742E1,-3.519284735E0,-1.267407382E1,-1.093669998E1,1.710639993E1
1.300314742E1,-3.513638371E0,-1.260299974E1,-1.117581368E1,1.720697732E1
1.301313842E1,-3.587071506E0,-1.250149441E1,-1.159059762E1,1.742114800E1
1.302312942E1,-3.709250539E0,-1.241251383E1,-1.206629200E1,1.770379738E1
1.303312042E1,-3.829947887E0,-1.235927610E1,-1.246768932E1,1.796840236E1
1.304311142E1,-3.887383332E0,-1.233685787E1,-1.268852112E1,1.811928198E1
1.305310242E1,-3.824615226E0,-1.232353324E1,-1.274645884E1,1.813751267E1
1.306309342E1,-3.657835387E0,-1.230859243E1,-1.273925858E1,1.808783891E1
1.307308442E1,-1.690557807E0,-1.309563000E1,1.881737931E0,1.333770776E1
1.308307542E1,-5.497329962E-1,-7.119855123E0,-9.394382250E-1,7.202575061E0
1.309306642E1,9.475994032E-1,-3.363651150E0,-1.547595431E0,3.821929526E0
1.310305642E1,2.864973409E0,-1.205050335E0,-8.645905025E-1,3.226102243E0
1.311304742E1,4.678814496E0,2.295920920E-1,-1.120487902E0,4.816587044E0
1.312303842E1,5.824132015E0,2.253005866E0,-1.530417480E0,6.429519952E0
1.313302942E1,5.979494873E0,4.819050608E0,-1.523999577E0,7.829443301E0
1.314302042E1,5.408322476E0,8.163814082E0,-1.087793781E0,9.852974560E0
1.315301142E1,3.990195802E0,1.128463972E1,6.358145356E-2,1.196949451E1
1.316300242E1,1.712618767E0,1.385852675E1,4.538246262E-1,1.397132003E1
1.317299342E1,-9.669806573E-1,1.571473471E1,-5.368065566E-1,1.575360594E1
1.318298442E1,-1.875027520E0,1.674690276E1,-1.689996766E0,1.693607302E1
1.319297542E1,-1.827400195E0,1.645630784E1,-2.816979171E0,1.679538123E1
1.320296542E1,-2.073346949E0,1.574368428E1,-5.415075426E0,1.677752676E1
1.321295642E1,-1.588893584E0,1.479399588E1,-9.275967947E0,1.753369551E1
1.322294742E1,-2.001710042E-1,1.350096600E1,-1.223682838E1,1.822240710E1
1.323293842E1,1.238874285E0,1.280714709E1,-9.818741587E0,1.618534870E1
1.324292942E1,1.702989864E0,1.299860598E1,-7.122539433E-1,1.312902272E1
1.325292042E1,5.829741979E-1,1.290387056E1,9.913876956E0,1.628295706E1
1.326291142E1,-1.337793240E0,1.155423963E1,1.531989914E1,1.923510992E1
1.327290242E1,-2.019240616E0,9.944504671E0,1.208790799E1,1.578252278E1
1.328289342E1,-1.601593444E0,8.947442721E0,5.791609801E0,1.077796720E1
1.329288442E1,-1.630322715E0,8.257857774E0,1.137047729E-2,8.417261815E0
1.330287442E1,-1.138185085E0,8.009152889E0,-2.395156356E0,8.436751108E0
1.331286542E1,-1.574271817E-1,8.117970741E0,-2.199997348E0,8.412266080E0
1.332285604E1,9.151845592E-1,8.297923481E0,-1.231793160E0,8.438626148E0
1.333284704E1,1.855226655E0,8.406458328E0,2.408468127E-1,8.612108613E0
1.334283804E1,1.949521340E0,8.338092683E0,1.323277527E0,8.664611155E0
1.335282904E1,1.675136653E0,8.387891080E0,1.277632992E0,8.648418678E0
1.336282004E1,1.349054977E0,8.657495669E0,5.249443833E-1,8.777684614E0
1.337281104E1,1.018058425E0,9.002101323E0,-1.993982399E-1,9.061679251E0
1.338280204E1,5.402727860E-1,9.203328572E0,-6.182517656E-1,9.239880234E0
1.339279304E1,-1.790709794E-1,8.904257525E0,1.461932552E-1,8.907257768E0
1.340278404E1,-7.547834471E-1,7.548678809E0,6.908251405E-1,7.617708920E0
1.341277404E1,-8.817372432E-1,3.635349627E0,-1.015032081E1,1.081768183E1
1.342276504E1,-2.425647101E0,-3.778799368E0,-2.293431410E1,2.336976362E1
1.343275604E1,-3.551745552E0,-6.940324552E0,-8.666295143E0,1.165708681E1
1.344274704E1,-4.246400327E0,-6.723626155E0,5.629770566E0,9.743376265E0
1.345273804E1,-3.944341937E0,-7.576448405E0,1.059051207E1,1.360585718E1
1.346272904E1,-3.854761716E0,-7.526102709E0,1.030671746E1,1.333153535E1
1.347272004E1,-3.795306350E0,-7.485847553E0,1.001413098E1,1.306618089E1
1.348271104E1,-3.775349511E0,-7.454881868E0,9.694280094E0,1.279873408E1
1.349270204E1,-3.803615244E0,-7.436878876E0,9.366669956E0,1.255026543E1
1.350269304E1,-3.835857083E0,-7.431961368E0,9.153519065E0,1.239898224E1
1.351268304E1,-3.804822986E0,-7.428826675E0,9.082176018E0,1.233491244E1
1.352267404E1,-3.717785135E0,-7.424049500E0,9.078888713E0,1.230303449E1
1.353266504E1,-3.601353915E0,-7.419080536E0,9.089396160E0,1.227312628E1
1.354265604E1,1.063220491E0,-9.750991069E0,-4.732605371E0,1.089081348E1
1.355264704E1,4.703369439E-1,-6.177523111E0,-4.541603733E0,7.681742842E0
1.356263804E1,2.094731386E-1,-3.844370044E0,-3.120731499E0,4.956008992E0
1.357262904E1,4.453088144E-1,-1.527909610E0,-2.432621806E0,2.906966901E0
1.358262004E1,9.655722823E-1,1.012366453E0,-2.147076538E0,2.562645767E0
1.359261104E1,1.374120090E0,3.797795218E0,-1.155761815E0,4.200861806E0
1.360260204E1,1.669110512E0,6.956333644E0,2.784081566E-1,7.159191209E0
1.361259304E1,1.319834540E0,1.041393669E1,1.380625849E0,1.058764224E1
1.362258304E1,-5.495561910E-1,1.385482312E1,1.792703694E0,1.398112736E1
1.363257404E1,-1.966976594E0,1.660002304E1,6.756264728E-1,1.672980075E1
1.364256504E1,-1.921768116E0,1.723713215E1,-7.307592845E-1,1.735931815E1
1.365255604E1,-1.515150693E0,1.688765226E1,-1.060279707E0,1.698860422E1
1.366254704E1,-6.930602387E-1,1.628951484E1,-5.276504016E-1,1.631278766E1
1.367253804E1,3.753554672E-1,1.550983073E1,-3.014099518E-1,1.551729967E1
1.368252904E1,1.586513182E0,1.490612677E1,-9.602402794E-1,1.502104193E1
1.369252004E1,2.837996695E0,1.462556801E1,-2.615608081E0,1.512623120E1
1.370251104E1,4.043306647E0,1.440611966E1,-3.377453502E0,1.533922438E1
1.371250204E1,4.555537356E0,1.365658848E1,-1.618614542E0,1.448707156E1
1.372249204E1,3.293287803E0,1.206806605E1,1.336018610E0,1.258049714E1
1.373248304E1,1.298574210E0,1.053112775E1,3.421778905E0,1.114896935E1
1.374247404E1,-2.862165650E-1,9.339578052E0,4.169857643E0,1.023217234E1
1.375246504E1,-1.330416393E0,8.459988418E0,3.581166987E0,9.282573394E0
1.376245604E1,-1.964748513E0,7.958010217E0,2.289292663E0,8.510641822E0
1.377244704E1,-2.235018222E0,7.732031704E0,7.641585803E-1,8.084773285E0
1.378243804E1,-2.088363183E0,7.893670964E0,-5.033142900E-1,8.180747359E0
1.379242904E1,-1.859684426E0,8.268503800E0,-1.464186215E0,8.600605940E0
1.380242004E1,-1.819360566E0,8.654139367E0,-1.428357840E0,8.957924267E0
1.381241104E1,-2.111221850E0,8.944060691E0,4.692858338E-1,9.201831803E0
1.382240204E1,-1.995426368E0,9.434784172E0,2.742537099E0,1.002588592E1
1.383239204E1,-1.302417878E0,9.830600910E0,4.392055638E0,1.084560553E1
1.384238304E1,-3.424752215E-1,1.029256135E1,5.626931158E0,1.173526577E1
1.385237404E1,4.478118247E-1,1.040838300E1,5.343582104E0,1.170849443E1
1.386236504E1,9.295096529E-1,9.652881222E0,2.424036924E0,9.995902115E0
1.387235604E1,1.354251836E0,7.180465606E0,-7.941508205E0,1.079169296E1
1.388234704E1,-2.233462425E-1,3.836405552E0,-8.519535878E0,9.346142663E0
1.389233804E1,-3.424167493E0,3.677819708E0,5.883070779E0,7.737040947E0
1.390232904E1,-4.674562401E0,7.637258863E-1,-5.396254992E-1,4.767180146E0
1.391232004E1,-5.004972770E0,-5.269010224E0,-9.026187758E0,1.158810971E1
1.392231104E1,-4.517899706E0,-1.336595379E1,-6.178544619E0,1.540242033E1
1.393230204E1,-4.478299145E0,-1.327110494E1,-6.525519565E0,1.545185410E1
1.394229204E1,-4.516178578E0,-1.315071077E1,-7.084575362E0,1.560539236E1
1.395228304E1,-4.613761006E0,-1.305300496E1,-7.758058830E0,1.586994663E1
1.396227404E1,-4.810661315E0,-1.301651951E1,-8.313962978E0,1.617696581E1
1.397226504E1,-5.070682025E0,-1.302794029E1,-8.546553522E0,1.638543931E1
1.398225604E1,-5.230863574E0,-1.304554509E1,-8.538381454E0,1.644542910E1
1.399224704E1,-5.237748671E0,-1.305106486E1,-8.426716007E0,1.639432364E1
1.400223804E1,1.882544701E-1,-1.806159541E1,-1.035283328E1,2.081916966E1
1.401222904E1,-2.930420125E0,-9.776572053E0,-7.107861314E0,1.243746018E1
1.402222004E1,-4.710684745E0,-6.389233248E0,-1.940221928E0,8.171738700E0
1.403221104E1,-4.112004999E0,-4.957037296E0,9.996892507E-1,6.517682292E0
1.404220104E1,-2.361168538E0,-2.330391426E0,2.078410345E0,3.914796371E0
1.405219204E1,-4.725041413E-1,8.788505459E-1,3.310574219E0,3.457678427E0
1.406218304E1,1.241713547E0,4.967431306E0,4.678292924E0,6.935679563E0
1.407217404E1,1.611996810E0,9.408213254E0,5.447068466E0,1.099015765E1
1.408216504E1,5.721512941E-1,1.343360608E1,4.736192054E0,1.425554785E1
1.409215604E1,-5.052659079E-1,1.718503112E1,2.853852882E0,1.742770968E1
1.410214704E1,-3.240039768E-1,1.844790925E1,1.926904310E0,1.855109955E1
1.411213804E1,2.930917211E-1,1.820294132E1,1.637140861E0,1.827876379E1
1.412212904E1,1.697354903E0,1.796144547E1,8.542489707E-1,1.806167983E1
1.413212004E1,3.624545434E0,1.751609579E1,-3.948284130E-1,1.789152959E1
1.414211104E1,5.419547376E0,1.710983008E1,-1.328798468E0,1.799676317E1
1.415210104E1,6.395861067E0,1.632279018E1,-1.461386422E0,1.759193475E1
1.416209204E1,6.227602174E0,1.471373700E1,-7.687063985E-1,1.599587431E1
1.417208304E1,4.683037647E0,1.211040340E1,-3.806572473E-1,1.298990423E1
1.418207404E1,3.140847383E0,1.019225237E1,-8.594937770E-1,1.069979720E1
1.419206504E1,1.518779475E0,8.848742890E0,-1.772569538E0,9.151444945E0
1.420205604E1,-9.225915927E-1,7.885482523E0,-2.034422765E0,8.195784640E0
1.421204704E1,-3.340867182E0,7.425713618E0,-5.362539947E-1,8.160280915E0
1.422203804E1,-4.330220456E0,7.817016306E0,1.629649408E0,9.083628697E0
1.423202904E1,-3.532210882E0,8.869509276E0,2.846058544E0,9.962166318E0
1.424202004E1,-2.686572229E0,9.554173205E0,2.392709881E0,1.020906247E1
1.425201104E1,-2.229621242E0,9.943898900E0,4.818924308E-2,1.019091058E1
1.426200104E1,-1.915938296E0,1.002191479E1,-1.926136132E0,1.038362153E1
1.427199204E1,-1.723935468E0,1.015933839E1,-5.418999200E-1,1.031880640E1
1.428198304E1,-1.385964649E0,1.058964669E1,3.273211681E0,1.117029228E1
1.429197404E1,-5.830257265E-1,1.110305093E1,7.006686941E0,1.314196792E1
1.430196504E1,1.635430587E-1,1.105459038E1,8.705239938E0,1.407167073E1
1.431195604E1,1.213062720E-1,1.023230696E1,7.470959373E0,1.267004558E1
1.432194754E1,-6.661346146E-1,9.329382847E0,4.653406005E0,1.044678453E1
1.433193854E1,-1.474143731E0,8.635347000E0,1.246787760E0,8.848547749E0
1.434192954E1,-2.043165522E0,7.725465281E0,-1.315210416E0,8.098587383E0
1.435192054E1,-2.191817385E0,5.351315632E0,-4.602616797E0,7.390854066E0
1.436191154E1,-1.804144502E0,3.834297631E0,-3.583151240E0,5.549391725E0
1.437190154E1,-1.245642583E0,5.135657455E0,7.558890971E0,9.222984097E0
1.438189254E1,-1.104032814E0,5.250280423E0,7.702354161E0,9.386724274E0
1.439188354E1,-1.959379600E0,9.722159618E-1,-2.938694520E0,3.663372459E0
1.440187454E1,-2.089202405E0,-7.757368274E0,-1.096916022E1,1.359647032E1
1.441186554E1,-2.082192032E0,-7.716720185E0,-1.110655107E1,1.368352187E1
1.442185654E1,-2.210540462E0,-7.608959509E0,-1.150299230E1,1.396787692E1
1.443184754E1,-2.471131568E0,-7.485899593E0,-1.208814655E1,1.443150966E1
1.444183854E1,-2.814057317E0,-7.419940662E0,-1.259613043E1,1.488747594E1
1.445182954E1,-3.061377290E0,-7.411011379E0,-1.281314399E1,1.511528298E1
1.446182054E1,-3.076419252E0,-7.410338949E0,-1.283108910E1,1.513321929E1
1.447181154E1,-2.915767879E0,-7.406655203E0,-1.275788897E1,1.503741915E1
1.448180154E1,-4.225021737E0,-1.517156346E1,-6.711111360E0,1.711917528E1
1.449179254E1,-4.190896802E0,-8.707640805E0,-3.676917483E0,1.033955253E1
1.450178354E1,-3.937757095E0,-5.030915111E0,2.105147324E0,6.726639804E0
1.451177454E1,-2.937707217E0,-2.624154956E0,4.743456634E0,6.165767898E0
1.452176554E1,-1.481704327E0,-3.734254110E-1,2.842067235E0,3.226800337E0
1.453175654E1,3.978973241E-1,1.536571675E0,1.745873344E-1,1.596826706E0
1.454174754E1,2.069904401E0,3.288409179E0,-9.795383569E-1,4.007197842E0
1.455173854E1,3.284704675E0,5.411725556E0,-8.989123428E-1,6.394067695E0
1.456172954E1,4.317698643E0,8.064570460E0,4.815848672E-1,9.160335270E0
1.457172054E1,4.835508766E0,1.088607245E1,1.799485295E0,1.204686124E1
1.458171154E1,4.524221131E0,1.369343529E1,1.969798315E0,1.455537194E1
1.459170154E1,3.111975294E0,1.592451176E1,2.423741055E-1,1.622754480E1
1.460169254E1,1.358637833E0,1.690968925E1,-2.083557065E0,1.709165578E1
1.461168354E1,3.232137256E-1,1.693599704E1,-3.908039206E0,1.738405112E1
1.462167454E1,-1.930634578E-2,1.633792511E1,-4.654828925E0,1.698810178E1
1.463166554E1,3.004449785E-1,1.551062829E1,-3.701233714E0,1.594894944E1
1.464165654E1,9.785667689E-1,1.463470954E1,-1.779518515E0,1.477494509E1
1.465164754E1,1.296536894E0,1.329273028E1,6.726088710E-1,1.337273678E1
1.466163854E1,7.501243857E-1,1.160800361E1,2.911615187E0,1.199107741E1
1.467162954E1,-4.348678434E-2,1.023070015E1,4.000139869E0,1.098500048E1
1.468162054E1,-6.220670007E-1,9.269968119E0,3.633183818E0,9.975936093E0
1.469161154E1,-1.037595361E0,8.491235354E0,2.651348602E0,8.955854587E0
1.470160154E1,-1.177809838E0,8.127889958E0,1.502699193E0,8.349127862E0
1.471159254E1,-1.040020786E0,8.146675892E0,4.510435443E-1,8.225169397E0
1.472158354E1,-7.434404334E-1,8.341866476E0,5.854583144E-2,8.375133885E0
1.473157454E1,-1.845886496E-1,8.685371684E0,1.620613559E-1,8.688844466E0
1.474156554E1,4.419775095E-1,9.048751579E0,2.232489594E-1,9.062289410E0
1.475155654E1,7.050289775E-1,9.239225214E0,2.830286264E-2,9.266129152E0
1.476154754E1,4.116503408E-1,9.406821617E0,-2.661619674E-1,9.419585507E0
1.477153854E1,-3.750800999E-1,9.660605979E0,-7.398043424E-2,9.668167669E0
1.478152954E1,-1.213439554E0,9.830251247E0,5.253955691E-1,9.918785996E0
1.479152054E1,-1.672366827E0,9.882344091E0,1.373665469E0,1.011654548E1
1.480151154E1,-1.637926873E0,9.912880590E0,2.881554651E0,1.045233769E1
1.481150154E1,-1.643078854E0,9.912550807E0,4.521202798E0,1.101815077E1
1.482149254E1,-2.147813872E0,9.686117966E0,5.135470344E0,1.117170718E1
1.483148354E1,-3.370207633E0,8.450727598E0,3.124836537E0,9.619651751E0
1.484147454E1,-4.163855476E0,6.087644389E0,-2.935272729E0,7.938068570E0
1.485146554E1,-4.007389540E0,1.678906353E0,-1.185481575E1,1.262594765E1
1.486145654E1,-2.177570498E0,-1.452518535E0,-4.801017795E0,5.468216824E0
1.487144754E1,-3.020278381E-1,-2.644508529E0,2.370442807E0,3.564217344E0
1.488143854E1,1.206639535E0,-1.080898276E1,-1.139026382E1,1.574891099E1
1.489142954E1,1.192258747E0,-1.079762864E1,-1.143390510E1,1.577163438E1
1.490142054E1,1.035803263E0,-1.074635908E1,-1.164307404E1,1.587823337E1
1.491141154E1,7.506689807E-1,-1.067695263E1,-1.199725159E1,1.607777556E1
1.492140254E1,4.344185214E-1,-1.063717285E1,-1.231421394E1,1.627814581E1
1.493139254E1,2.753403419E-1,-1.062891191E1,-1.244656450E1,1.636968383E1
1.494138354E1,3.524255014E-1,-1.061821384E1,-1.247957671E1,1.638934117E1
1.495137454E1,5.930507047E-1,-1.060081954E1,-1.249844451E1,1.639939631E1
1.496136554E1,-5.497615306E0,-1.229018540E1,4.192080863E-1,1.347026973E1
1.497135654E1,-4.389522624E0,-7.608944306E0,-2.195980310E0,9.054627096E0
1.498134754E1,-2.590298408E0,-5.072273637E0,1.559980126E-1,5.697538159E0
1.499133854E1,4.574952158E-1,-2.735798768E0,1.734647859E0,3.271528690E0
1.500132954E1,3.352895489E0,-2.964631891E-1,2.853523099E-1,3.378050403E0
1.501132054E1,4.439572744E0,1.785359007E0,-2.300954204E0,5.309585970E0
1.502131154E1,4.142163475E0,3.145240688E0,-4.023621118E0,6.575681268E0
1.503130254E1,3.278064285E0,4.112747887E0,-4.066925597E0,6.648329448E0
1.504129254E1,2.134087533E0,5.584082177E0,-2.482958146E0,6.473127877E0
1.505128354E1,1.326292205E0,8.044968839E0,-4.521640901E-1,8.166090068E0
1.506127454E1,8.307354163E-1,1.113696946E1,6.916308868E-1,1.118930576E1
1.507126554E1,6.215110767E-1,1.406662798E1,6.218607402E-1,1.409407711E1
1.508125654E1,7.935788459E-1,1.629405228E1,-1.459912924E0,1.637856077E1
1.509124754E1,1.229461583E0,1.743083520E1,-3.955532631E0,1.791624487E1
1.510123854E1,1.542525602E0,1.725180048E1,-4.441266682E0,1.788096347E1
1.511122954E1,1.929013693E0,1.623244602E1,-2.442915098E0,1.652819505E1
1.512122054E1,1.967002761E0,1.493199485E1,1.045478723E0,1.509723802E1
1.513121154E1,9.528337575E-1,1.312261607E1,4.404792920E0,1.387491064E1
1.514120254E1,-7.327442680E-1,1.071738964E1,5.831629314E0,1.222322606E1
1.515119254E1,-1.865871073E0,8.805074714E0,5.082256004E0,1.033635050E1
1.516118354E1,-2.286198609E0,7.626716334E0,2.632905314E0,8.386041766E0
1.517117454E1,-2.316575625E0,6.971921151E0,5.715404794E-2,7.346936351E0
1.518116554E1,-1.955217113E0,7.368403303E0,-9.573295355E-2,7.624001967E0
1.519115654E1,-1.328891293E0,8.192227457E0,1.519302947E0,8.437228467E0
1.520114754E1,-7.426351257E-1,8.971794035E0,2.610305825E0,9.373275395E0
1.521113854E1,-4.948352061E-1,9.688890131E0,2.428117111E0,1.000076030E1
1.522112954E1,-6.495121499E-1,1.004263498E1,1.695916926E0,1.020551408E1
1.523112054E1,-8.936630049E-1,1.060169897E1,1.724146260E0,1.077809514E1
1.524111154E1,-8.218260138E-1,1.122417834E1,2.316311185E0,1.149012075E1
1.525110254E1,-5.771880491E-1,1.144882837E1,2.968301604E0,1.184143705E1
1.526109254E1,-5.411466524E-1,1.114456031E1,3.653134518E0,1.174050493E1
1.527108354E1,-5.066385052E-1,1.044504036E1,2.203966438E0,1.068704912E1
1.528107454E1,-2.721333451E-1,8.671003321E0,-2.056303192E0,8.915645685E0
1.529106554E1,-2.672892695E-2,4.843366839E0,-1.276237028E1,1.365053156E1
1.530105654E1,-2.293340836E0,-8.966997564E-2,-9.064670624E0,9.350706198E0
1.531104754E1,-3.678405014E0,-1.222380313E0,3.561961223E0,5.264261091E0
1.532103771E1,-6.548399720E0,-8.271934361E0,-7.084967126E0,1.270839078E1
1.533102871E1,-6.308239955E0,-8.268095080E0,-7.190868387E0,1.264372871E1
1.534101971E1,-6.056056561E0,-8.256298907E0,-7.443907814E0,1.265914911E1
1.535101071E1,-5.857384545E0,-8.245300879E0,-7.793390046E0,1.276835419E1
1.536100171E1,-5.814611578E0,-8.232805379E0,-8.157311393E0,1.296651539E1
1.537099171E1,-5.979922889E0,-8.213048807E0,-8.428977125E0,1.320080694E1
1.538098271E1,-6.218957065E0,-8.195428222E0,-8.529670272E0,1.336397193E1
1.539097371E1,-6.399441901E0,-8.185456966E0,-8.513526694E0,1.343259838E1
1.540096471E1,-6.504678335E0,-8.180963965E0,-8.463765135E0,1.344895282E1
1.541095571E1,9.384298727E-1,-1.370162139E1,-6.789196247E0,1.532019142E1
1.542094671E1,-2.950457363E0,-7.623983930E0,-4.884457562E0,9.523038133E0
1.543093771E1,-4.818627854E0,-5.371445256E0,-2.535114141E0,7.648424821E0
1.544092871E1,-5.062713439E0,-3.273067254E0,-6.199405146E-1,6.060392963E0
1.545091971E1,-4.215570590E0,-5.854220617E-1,4.901451910E-1,4.284156474E0
1.546091071E1,-2.227582757E0,2.559446159E0,2.196529949E0,4.041983844E0
1.547090171E1,-3.780064121E-1,6.378008932E0,4.090388135E0,7.586380025E0
1.548089271E1,5.285082612E-1,1.025915153E1,4.938786381E0,1.139829470E1
1.549088271E1,3.096376969E-1,1.373807644E1,4.640417000E0,1.450393360E1
1.550087371E1,1.453629506E-1,1.617643905E1,3.343888146E0,1.651907681E1
1.551086471E1,3.152411567E-1,1.753109156E1,2.045492860E0,1.765283517E1
1.552085571E1,8.224412140E-1,1.726389369E1,8.404249835E-1,1.730389404E1
1.553084671E1,1.323497675E0,1.655627301E1,2.984278901E-1,1.661176936E1
1.554083771E1,1.612287124E0,1.566555027E1,6.157001869E-1,1.576033064E1
1.555082871E1,1.772555943E0,1.479136698E1,8.927107859E-1,1.492392120E1
1.556081971E1,1.994256779E0,1.403038343E1,7.745465975E-1,1.419255586E1
1.557081071E1,2.207425943E0,1.328797065E1,7.233670883E-1,1.348948306E1
1.558080171E1,1.868594852E0,1.200391507E1,8.591172163E-1,1.217882204E1
1.559079271E1,1.033382223E0,1.047769589E1,1.212651569E0,1.059813728E1
1.560078271E1,4.842352639E-1,9.630329096E0,1.746067472E0,9.799309869E0
1.561077371E1,5.325950995E-2,9.223048307E0,2.562217155E0,9.572482091E0
1.562076471E1,-6.112149705E-1,9.108555146E0,3.341593698E0,9.721399541E0
1.563075571E1,-1.489924343E0,9.160460295E0,3.473699841E0,9.909616438E0
1.564074671E1,-1.906090854E0,9.690109275E0,2.757591341E0,1.025357060E1
1.565073771E1,-1.837381977E0,1.039021687E1,1.545182723E0,1.066396590E1
1.566072871E1,-1.720023973E0,1.062991763E1,5.611305352E-1,1.078278715E1
1.567071971E1,-1.496622913E0,1.051706754E1,1.132630523E-1,1.062362547E1
1.568071071E1,-1.285301616E0,1.014239316E1,9.248310032E-1,1.026525458E1
1.569070171E1,-1.096052607E0,9.770386868E0,2.561516950E0,1.015987992E1
1.570069271E1,-9.121964858E-1,9.473273469E0,2.583289350E0,9.861460161E0
1.571068371E1,-1.140114885E0,8.227154630E0,-5.899711955E-1,8.326704106E0
1.572067371E1,-2.238717902E0,5.573877032E0,-9.169486057E0,1.096172603E1
1.573066471E1,-3.822593844E0,1.034266030E0,-1.209694661E1,1.272863101E1
1.574065571E1,-4.764574731E0,-4.030409735E-1,3.351822817E0,5.839377586E0
1.575064671E1,-4.133551111E0,-1.219192411E0,6.292460074E0,7.626777085E0
1.576063771E1,-4.566029600E0,-6.118891325E0,6.603137845E-1,7.663254638E0
1.577062871E1,-6.205821880E0,-1.389361355E1,1.760345203E0,1.531807879E1
1.578061971E1,-6.076530586E0,-1.383077586E1,1.460795561E0,1.517723653E1
1.579061071E1,-6.031218174E0,-1.375930768E1,1.078674317E0,1.506179534E1
1.580060171E1,-6.117016708E0,-1.368981353E1,6.485263824E-1,1.500831351E1
1.581059271E1,-6.357557711E0,-1.364279724E1,3.043043053E-1,1.505446969E1
1.582058371E1,-6.585125497E0,-1.362534330E1,1.330897180E-1,1.513378904E1
1.583057371E1,-6.710554705E0,-1.362197998E1,7.922392488E-2,1.518539296E1
1.584056471E1,1.280792681E0,-1.933166444E1,-3.603971128E0,1.970640220E1
1.585055571E1,4.377867735E-1,-9.932082846E0,-3.037869437E0,1.039550757E1
1.586054671E1,-2.029316026E-1,-3.997264209E0,-4.159886971E0,5.772691053E0
1.587053771E1,-1.350754178E0,-3.661023581E-1,-3.646612533E0,3.905937884E0
1.588052871E1,-2.040448467E0,1.829959813E0,-1.404877760E0,3.079913049E0
1.589051971E1,-1.759650846E0,3.839284721E0,6.383896494E-1,4.271301864E0
1.590051071E1,-1.007376000E0,6.048365133E0,1.544477695E0,6.323206350E0
1.591050171E1,-1.437866691E-1,8.708590978E0,1.523952799E0,8.842096107E0
1.592049271E1,8.994859546E-2,1.156172407E1,7.258640686E-1,1.158483633E1
1.593048371E1,-5.453604118E-1,1.425358335E1,-8.134717313E-1,1.428718980E1
1.594047371E1,-6.858241631E-1,1.624664540E1,-1.981509118E0,1.638139859E1
1.595046471E1,-1.204599515E-2,1.734849471E1,-2.451508312E0,1.752085349E1
1.596045571E1,1.237057993E0,1.709754508E1,-2.464999008E0,1.731856173E1
1.597044671E1,2.388880832E0,1.637656000E1,-1.562571319E0,1.662348033E1
1.598043771E1,3.396598164E0,1.558173745E1,-1.159233892E-1,1.594806758E1
1.599042871E1,3.956424039E0,1.491296099E1,1.035987596E0,1.546360136E1
1.600041971E1,3.602156737E0,1.421997706E1,2.230205233E0,1.483769174E1
1.601041071E1,2.152203522E0,1.314775208E1,3.866819844E0,1.387255061E1
1.602040171E1,-1.556526614E-1,1.147938709E1,4.735260007E0,1.241866510E1
1.603039271E1,-2.383481513E0,9.852704555E0,4.322210355E0,1.101990352E1
1.604038371E1,-3.634064993E0,8.313109285E0,2.854568582E0,9.511192151E0
1.605037471E1,-3.807527323E0,7.357357328E0,1.005834601E0,8.345038910E0
1.606036571E1,-3.147551800E0,6.772710022E0,-2.085057899E-1,7.471288915E0
1.607035571E1,-1.850252575E0,7.004531073E0,-5.861996683E-1,7.268460648E0
1.608034671E1,-6.021293110E-1,7.595943607E0,-5.681061172E-1,7.640920334E0
1.609033771E1,6.935116620E-2,8.343686714E0,-3.506317949E-1,8.351338828E0
1.610032871E1,1.465546131E-1,9.389991576E0,4.752149105E-2,9.391255419E0
1.611031971E1,-3.918635457E-1,1.009569379E1,3.998022008E-1,1.011120329E1
1.612031071E1,-1.007639783E0,1.053255096E1,5.580021286E-1,1.059534493E1
1.613030171E1,-1.038631561E0,1.099341681E1,6.878044689E-1,1.106377167E1
1.614029271E1,-4.405445031E-1,1.150047215E1,7.160535371E-1,1.153116090E1
1.615028371E1,2.655178601E-1,1.151057379E1,8.330187540E-1,1.154373116E1
1.616027471E1,2.236225234E-1,9.957167401E0,8.717673750E-1,9.997758151E0
1.617026571E1,-1.330287242E-1,6.889584169E0,-3.371853039E0,7.671600849E0
1.618025571E1,-3.269762262E-1,1.826395935E0,-9.789835292E0,9.964111130E0
1.619024671E1,-2.245630627E0,-4.087163980E0,-7.449694219E0,8.788953878E0
1.620023771E1,-2.662658578E0,-9.866417445E0,-7.478143262E0,1.266327645E1
1.621022871E1,-2.559040070E0,-9.835238922E0,-7.590874071E0,1.268471442E1
1.622021971E1,-2.531292985E0,-9.774008633E0,-7.852413011E0,1.279058556E1
1.623021071E1,-2.551084933E0,-9.704501027E0,-8.204062221E0,1.296117323E1
1.624020171E1,-2.570725146E0,-9.643802251E0,-8.587324988E0,1.316638523E1
1.625019271E1,-2.589389750E0,-9.598461186E0,-8.971349062E0,1.339106047E1
1.626018371E1,-2.625988643E0,-9.573378970E0,-9.284256960E0,1.359201341E1
1.627017471E1,-2.642394176E0,-9.563061558E0,-9.472068357E0,1.371694107E1
1.628016571E1,-2.617146483E0,-9.558248130E0,-9.568771949E0,1.377573808E1
1.629015671E1,-5.393897468E-2,-1.526641232E1,-2.658583946E0,1.549626804E1
1.630014671E1,-5.151266889E-1,-9.178951530E0,-4.719264364E0,1.033392292E1
1.631013771E1,-8.087585101E-1,-5.142410404E0,-5.731694552E0,7.742790035E0
1.632012892E1,-3.738671681E-1,-2.389483972E0,-4.363584083E0,4.989015571E0
1.633011992E1,9.017961165E-1,-1.385521138E-1,-2.434391173E0,2.599748701E0
1.634011092E1,2.161110732E0,1.827630283E0,-5.644480991E-1,2.886041182E0
1.635010192E1,2.504000814E0,3.468293506E0,7.218340945E-1,4.338216728E0
1.636009292E1,2.505446538E0,5.999179525E0,1.618905734E0,6.699871126E0
1.637008392E1,1.722377770E0,9.485992332E0,1.361666837E0,9.736774224E0
1.638007492E1,-1.239125496E-2,1.291765011E1,8.830463251E-2,1.291795787E1
1.639006592E1,-1.737709461E0,1.555809482E1,-8.222401428E-1,1.567641628E1
1.640005692E1,-2.343901418E0,1.726445853E1,-1.265392431E0,1.746873264E1
1.641004692E1,-1.586391122E0,1.751577186E1,-1.813364246E0,1.768070107E1
1.642003792E1,3.086397965E-1,1.713701379E1,-2.645283870E0,1.734272259E1
1.643002892E1,3.098153645E0,1.619754165E1,-2.555020401E0,1.668793099E1
1.644001992E1,5.384944723E0,1.484486432E1,-1.346003315E0,1.584863878E1
1.645001092E1,5.029567913E0,1.270310875E1,8.753808812E-1,1.369057402E1
1.646000192E1,2.351504260E0,1.001927185E1,2.957003614E0,1.070790601E1
1.646999292E1,1.919165447E-1,8.274079705E0,3.826440142E0,9.118051935E0
1.647998392E1,-1.131078525E0,7.307655410E0,3.491345569E0,8.177448264E0
1.648997492E1,-2.408004151E0,7.177670052E0,2.281770658E0,7.907206125E0
1.649996592E1,-2.603359333E0,8.524114832E0,8.312952872E-1,8.951483975E0
1.650995692E1,-1.846351459E0,1.024349970E1,9.639259256E-2,1.040901491E1
1.651994792E1,-1.274220119E0,1.103393567E1,5.030301154E-1,1.111865156E1
1.652993792E1,-9.458698699E-1,1.116455662E1,1.316961219E0,1.128168344E1
1.653992892E1,-7.559660465E-1,1.100146141E1,2.034046205E0,1.121342863E1
1.654991992E1,-6.545251872E-1,1.084963962E1,2.486847714E0,1.115022397E1
1.655991092E1,-6.901674018E-1,1.065150204E1,2.654045337E0,1.099885373E1
1.656990192E1,-1.013603139E0,1.046516180E1,2.580912749E0,1.082626960E1
1.657989292E1,-1.331076251E0,1.023963353E1,2.049764690E0,1.052726907E1
1.658988392E1,-1.203148820E0,1.017483585E1,1.147058673E0,1.030973304E1
1.659987492E1,-8.252932665E-1,1.003578672E1,-3.541825166E-1,1.007589050E1
