"Time (s)","Linear Acceleration x (m/s^2)","Linear Acceleration y (m/s^2)","Linear Acceleration z (m/s^2)","Absolute acceleration (m/s^2)"
7.837416670E-3,-4.859939602E-1,3.891102746E-1,3.617263019E-2,6.236227981E-1
1.782941667E-2,-2.983147100E-1,2.240375295E-1,-2.076667875E-1,4.269777224E-1
2.782041667E-2,-2.831303680E-1,7.221282095E-2,1.640412962E-1,3.350925897E-1
3.781141667E-2,-6.167830181E-1,1.070300665E-1,1.220895120E0,1.372028287E0
4.780241667E-2,-8.610448971E-1,-2.245935997E-1,2.098504302E0,2.279377306E0
5.779441667E-2,-7.680586731E-1,-7.259435177E-1,2.522355516E0,2.734809950E0
6.778541666E-2,1.560528302E-1,-1.745009125E0,1.772242532E0,2.492037906E0
7.777641667E-2,-3.213337362E-2,-1.771476109E0,8.059965777E-1,1.946481605E0
8.776741667E-2,-3.989181018E-1,-1.660549165E0,3.926300061E-1,1.752346285E0
9.775941667E-2,-2.194822562E-1,-1.587806733E0,-7.101911187E-2,1.604476985E0
1.077504167E-1,-3.702059340E-1,-1.165287076E0,-1.529473740E-1,1.232209114E0
1.177414167E-1,-6.539508444E-1,-5.234363133E-1,-2.991751277E-1,8.894622184E-1
1.277324167E-1,-9.363023633E-1,-3.801070243E-2,-8.526936114E-1,1.266962242E0
1.377244167E-1,-8.175962842E-1,-2.850039621E-1,-1.829298493E0,2.023863612E0
1.477154167E-1,-3.426421595E-1,-6.784217343E-1,-2.387857862E0,2.505898016E0
1.577064167E-1,-6.200428408E-1,-5.412722214E-1,-2.247382014E0,2.393356358E0
1.676974167E-1,-7.858184212E-1,-1.107742507E0,-2.406203501E0,2.763045302E0
1.776894167E-1,-1.097982554E0,-1.605125893E0,-1.371104828E0,2.379479622E0
1.876804167E-1,-9.851032251E-1,-1.251542570E0,-6.711059904E-1,1.728343258E0
1.976714167E-1,-4.941300684E-1,4.054642059E-1,-1.811172709E0,1.920654141E0
2.076624167E-1,3.853549004E-1,1.568170175E0,-3.476340444E0,3.833092613E0
2.176534167E-1,8.718853426E-1,1.673487884E0,-3.530868654E0,4.003470894E0
2.276454167E-1,5.913505536E-1,1.275167368E0,-2.989590731E0,3.303543557E0
2.376364167E-1,-5.886684358E-3,5.926218845E-1,-3.725908964E0,3.772748727E0
2.476274167E-1,2.642099476E-1,-2.045872052E-1,-6.052078700E0,6.061296842E0
2.576184167E-1,3.614304328E-1,-3.654376759E-1,-6.609156384E0,6.629111913E0
2.676104167E-1,-9.177899323E-1,6.490760207E-2,-3.540612454E0,3.658208292E0
2.776014167E-1,-2.255178691E0,8.388593915E-1,3.411861443E0,4.174962816E0
2.875924167E-1,-2.925533022E-1,7.559375413E-1,8.719800675E-1,1.190536954E0
2.975834167E-1,3.331061547E-1,4.908664450E-2,9.863048279E-1,1.042193083E0
3.075754167E-1,7.530705053E-1,-1.793938041E0,-1.613067874E0,2.527314157E0
3.175664167E-1,2.130136862E0,-2.589448807E0,-2.711520544E0,4.312200347E0
3.275574167E-1,4.826986156E0,-2.834841538E0,-4.265209358E0,7.037622664E0
3.375484167E-1,5.094428737E0,-2.618711198E0,-3.485373808E0,6.705123644E0
3.475404167E-1,4.848790131E0,-2.364812815E0,-8.650704128E-1,5.463648251E0
3.575314167E-1,6.555246810E0,-3.291985921E0,3.207098383E-1,7.342430581E0
3.675224167E-1,4.634074818E0,-4.267348854E0,4.540713787E-2,6.299760112E0
3.775134167E-1,-6.987806867E0,-4.648375061E0,-8.640430570E-1,8.437025893E0
3.875054167E-1,-9.474706621E0,-4.604866514E0,-1.039908008E0,1.058566341E1
3.974964167E-1,-6.764095320E0,-6.373916466E0,-1.927459211E0,9.491833101E0
4.074874167E-1,-3.606431052E0,-9.056101529E0,-3.391202645E0,1.032083210E1
4.174784167E-1,-2.351229149E0,-1.020158102E1,-4.670402107E0,1.146355920E1
4.274694167E-1,-8.798825794E-1,-9.642840968E0,-5.911474214E0,1.134478306E1
4.374614167E-1,-2.725048077E-1,-7.582704926E0,-5.892750260E0,9.607090012E0
4.474524167E-1,-5.866575783E-1,-5.734738027E0,-4.719411714E0,7.450116394E0
4.574434167E-1,-1.489665311E0,-4.942937320E0,-2.332335625E0,5.664937913E0
4.674344167E-1,-1.721941860E0,-4.907653466E0,-6.279582167E-1,5.238747736E0
4.774264167E-1,-1.362331080E-1,-4.430545228E0,1.143898399E0,4.577859109E0
4.874174167E-1,2.296651238E0,-3.246858280E0,4.218713468E0,5.797778792E0
4.974084167E-1,4.683027415E0,-2.329054899E0,7.328382035E0,9.003356360E0
5.073994167E-1,5.301145937E0,-2.577795306E0,8.999982292E0,1.075857138E1
5.173914167E-1,4.309266374E0,-3.127643200E0,8.888031501E0,1.036093783E1
5.273824167E-1,3.561274175E0,-3.290622642E0,8.366877356E0,9.670341660E0
5.373734167E-1,3.855835265E0,-3.828299849E0,8.515265071E0,1.010114274E1
5.473644167E-1,5.086946640E0,-4.078646341E0,9.162791580E0,1.124584953E1
5.573564167E-1,5.945307373E0,-3.297137318E0,9.173061630E0,1.141765536E1
5.673474167E-1,6.405008451E0,-1.648129533E0,9.398944248E0,1.149263317E1
5.773384167E-1,7.238990972E0,-1.422861457E-1,8.947747945E0,1.151023149E1
5.873294167E-1,7.355386232E0,1.290962305E0,8.087096273E0,1.100769805E1
5.973214167E-1,7.451593394E0,2.136629317E0,6.536575481E0,1.013993333E1
6.073124167E-1,7.831239073E0,2.612041279E0,5.049157839E0,9.677037768E0
6.173034167E-1,8.072866489E0,3.147175532E0,3.856917000E0,9.484286791E0
6.272944167E-1,8.343817692E0,3.820195316E0,1.272538898E0,9.264585321E0
6.372854167E-1,1.042817466E1,6.302285151E0,-8.639401460E0,1.493669583E1
6.472774167E-1,1.035440384E1,8.300120865E0,-1.150240874E1,1.756163695E1
6.572684167E-1,9.203250219E0,7.853035154E0,-5.672811921E0,1.336228913E1
6.672594167E-1,9.962972517E0,7.132200349E0,-3.242705587E0,1.267455099E1
6.772504167E-1,1.028324674E1,6.458239748E0,-2.533831261E0,1.240460902E1
6.872424167E-1,8.047826958E0,5.574593316E0,-1.989146751E0,9.990010719E0
6.972334167E-1,4.658074130E0,4.813674678E0,-4.307894617E0,7.964111660E0
7.072244167E-1,2.675602267E0,4.120160403E0,-4.251591777E0,6.496968668E0
7.172154167E-1,1.097804214E0,5.041673403E0,-5.450154626E0,7.505186890E0
7.272074167E-1,-1.242884159E0,6.500269534E0,-4.432771263E0,7.965408095E0
7.371984167E-1,-2.443856938E0,5.820203855E0,-6.826966336E-1,6.349274316E0
7.471894167E-1,-1.633631362E0,4.113042587E0,-1.929104617E-1,4.429795164E0
7.571804167E-1,-7.404256091E-1,1.612292533E0,-2.770036554E-1,1.795674892E0
7.671724167E-1,-1.267980116E0,-4.758300376E-1,4.950922278E-1,1.441979235E0
7.771634167E-1,-2.626314917E0,-9.491568822E-1,5.921694562E-1,2.854661713E0
7.871544167E-1,-3.797990515E0,-1.034797541E0,-1.543226391E-1,3.939461052E0
7.971454167E-1,-3.572287113E0,-1.190936911E0,-8.523550576E-1,3.860838651E0
8.071364167E-1,-3.171198525E0,-1.274853811E0,-1.442614521E0,3.709836786E0
8.171284167E-1,-2.370578462E0,-1.076556602E0,-1.811905073E0,3.172005100E0
8.271194167E-1,-1.646077160E0,-3.623507845E-1,-1.397629260E0,2.189574309E0
8.371104167E-1,-7.292664903E-1,3.086803615E-1,-1.101702260E0,1.356783347E0
8.471014167E-1,3.236118114E-1,7.523618227E-1,-5.690773398E-1,9.973073425E-1
8.570934167E-1,6.558114284E-1,9.986646724E-1,-1.200620484E0,1.693785496E0
8.670844167E-1,-1.216396272E-2,7.446189398E-1,-4.457078138E-1,8.679059757E-1
8.770754167E-1,-1.697934946E-1,6.264706850E-3,3.658067814E-1,4.033406484E-1
8.870658333E-1,8.633533779E-1,-8.348063940E-1,-3.281419417E-1,1.244973054E0
8.970578333E-1,1.659493012E0,-7.390249085E-1,-6.770838913E-1,1.938689626E0
9.070488333E-1,1.139325584E0,4.138951600E-1,-1.018531465E0,1.583280877E0
9.170398333E-1,6.856480157E-1,8.896035755E-1,-1.651566234E0,1.997292855E0
9.270308333E-1,3.956287506E-1,1.635290802E-1,-1.446542388E0,1.508558500E0
9.370228333E-1,2.037295648E-1,7.386927867E-1,-7.307543144E-1,1.058855343E0
9.470138333E-1,3.755160829E-1,-7.464689988E-1,1.678839402E-1,8.522988397E-1
9.570048333E-1,1.528567714E0,-1.294962385E0,1.287887839E0,2.381617501E0
9.669958333E-1,2.511029752E0,-1.435814794E0,2.140093793E0,3.598171199E0
9.769878333E-1,2.169145099E0,-1.889262859E0,1.883358633E0,3.438247279E0
9.869788333E-1,2.591230161E0,-2.219730531E0,7.501217544E-1,3.493473920E0
9.969698333E-1,1.778568927E0,-2.505340118E0,-8.160172436E-1,3.178981076E0
1.006960833E0,1.200545640E0,-2.911350893E0,-1.651218032E0,3.555811419E0
1.016952833E0,4.676509523E-1,-3.119452713E0,-1.128523146E0,3.350111511E0
1.026943833E0,1.138816000E0,-3.731374941E0,-4.125570247E-1,3.923042713E0
1.036934833E0,2.797789779E0,-4.633938870E0,-1.244676331E-1,5.414472208E0
1.046925833E0,2.423629957E-1,-5.913912503E0,-4.813749522E-2,5.919072404E0
1.056916833E0,-1.878231502E0,-6.747696218E0,3.928191635E-1,7.015230911E0
1.066908833E0,-8.915869510E-1,-7.945100150E0,4.246764316E0,9.052875280E0
1.076899833E0,-3.176684675E0,-6.172715530E0,-1.820425344E-1,6.944557727E0
1.086890833E0,4.524920458E-1,4.420992631E0,-4.360249124E0,6.225889279E0
1.096881833E0,-4.771240264E0,-4.180355149E0,8.579634730E0,1.067006255E1
1.106873833E0,-2.574167694E0,3.961717231E0,-4.326237625E0,6.406081073E0
1.116864833E0,-6.601064422E0,8.950313119E0,-9.517249793E-1,1.116189665E1
1.126855833E0,-8.947114107E0,9.404594997E0,1.667482355E0,1.308731276E1
1.136846833E0,-4.616411841E0,4.981828905E0,-1.800117964E-1,6.794283021E0
1.146838833E0,-1.934334952E-1,1.938859527E0,-2.474739300E0,3.149750369E0
1.156829833E0,2.260434169E-1,3.124372560E0,-2.251172179E0,3.857534926E0
1.166820833E0,1.844916406E0,5.548409484E0,-2.563732168E0,6.384456671E0
1.176811833E0,2.236663483E0,4.728230485E0,-1.694895271E0,5.498317655E0
1.186803833E0,1.214862548E0,3.918285282E0,-7.861008418E-1,4.176937287E0
1.196794833E0,6.090401351E-2,2.349360963E0,-1.385650946E0,2.728229238E0
1.206785833E0,-1.574593195E0,6.918571740E-1,-5.856319767E-1,1.816858522E0
1.216776833E0,1.030122108E0,-8.283639318E-1,9.646590203E-1,1.636430685E0
1.226767833E0,1.610966384E0,-9.651244587E-1,5.892628053E-1,1.968224724E0
1.236759833E0,2.986307520E-1,-1.046691363E0,3.787250349E-1,1.152465092E0
1.246750833E0,-7.099630773E-2,-1.320532844E0,-5.811405842E-1,1.444497091E0
1.256741833E0,-9.743344080E-1,-1.394108359E0,3.446113555E-1,1.735402732E0
1.266732833E0,-2.456842142E-1,-2.654346469E0,2.829612665E0,3.887495819E0
1.276724833E0,-9.232174641E-1,-2.450345301E0,1.810556413E0,3.183494480E0
1.286715833E0,-1.848856845E0,-1.360012075E0,4.362075502E-1,2.336275134E0
1.296706833E0,-1.677950917E0,-1.029870678E0,7.365664467E-3,1.968808560E0
1.306697833E0,-3.582132947E-1,-5.818043894E-1,-1.397045269E-1,6.973739792E-1
1.316689833E0,2.176928912E0,3.886644244E-2,-4.034672356E-1,2.214343221E0
1.326680833E0,3.280225416E0,-5.218628275E-1,-2.863699594E0,4.385543860E0
1.336671833E0,8.825185043E-1,-9.548754591E-1,-2.775517734E0,3.064983645E0
1.346662833E0,-6.608990908E-1,-1.092584404E0,-1.872001294E0,2.266035554E0
1.356654833E0,-1.024647360E0,-1.067419742E0,-1.300244175E0,1.969751770E0
1.366645833E0,-2.371887946E-1,-8.019456267E-3,-2.145046384E0,2.158135034E0
1.376636833E0,1.959618312E0,3.355506563E-1,-1.157910082E0,2.300750732E0
1.386627833E0,8.181973779E-1,-3.343145549E-1,2.064821416E-1,9.076607547E-1
1.396618833E0,-2.204787971E0,-4.632807434E-1,1.331352166E-1,2.256865976E0
1.406610833E0,-4.012984156E0,-1.983036411E-1,3.175937840E-1,4.030413376E0
1.416601833E0,-3.494602760E0,-1.159093559E0,5.931964465E-1,3.729293278E0
1.426592833E0,-2.482124626E0,-1.558715665E0,3.849928846E-1,2.956138817E0
1.436583833E0,2.699825235E0,-1.309925410E0,-1.334329349E0,3.284112619E0
1.446575833E0,5.182274382E0,-2.458251321E-1,-7.297541481E-1,5.239173492E0
1.456566833E0,4.908406003E0,1.018855108E0,1.802449833E0,5.327226354E0
1.466557833E0,7.352590093E0,2.944641430E0,1.852729894E0,8.134131932E0
1.476548833E0,5.874897541E0,3.826448328E0,4.816152728E-1,7.027665416E0
1.486540833E0,2.238997545E0,3.387061647E0,-5.249793935E-1,4.094007813E0
1.496531833E0,7.347137564E-1,2.703372449E0,4.865935922E-1,2.843378312E0
1.506522833E0,1.051838082E-1,1.610526674E0,3.199987438E-1,1.645375032E0
1.516513833E0,-8.584377699E-1,1.402969814E0,-6.054755994E-1,1.752666655E0
1.526505833E0,-6.637949974E-1,1.503956491E0,-1.105114987E0,1.980855386E0
1.536496833E0,-6.295965334E-1,1.079653872E0,-1.570350455E0,2.006998961E0
1.546487833E0,-9.321923554E-2,2.539779049E-1,-1.245708364E0,1.274748576E0
1.556478833E0,-4.628749466E-1,-2.413409024E-1,1.230546169E-1,5.363218121E-1
1.566469833E0,-9.112117416E-1,-8.504196292E-1,1.499716894E-1,1.255393122E0
1.576461833E0,7.596297656E-1,-1.159902229E0,6.652546817E-1,1.537847311E0
1.586452833E0,1.630462171E0,-1.974410014E0,1.815243541E0,3.138759453E0
1.596443833E0,3.933443896E-1,-1.879998531E0,1.048225088E0,2.188124795E0
1.606434833E0,1.095346483E-1,-1.761860801E0,-4.647554111E-1,1.825417463E0
1.616426833E0,-3.870820948E-1,-1.719124086E0,-1.030285245E0,2.041251542E0
1.626417833E0,-1.490585370E-1,-1.165655304E0,-1.572984041E0,1.963478935E0
1.636408833E0,-2.987487195E-1,-9.196348751E-1,-1.161411395E0,1.511243041E0
1.646399833E0,-5.776381020E-1,-1.083300195E0,-5.825814843E-2,1.229064320E0
1.656391833E0,-1.892783906E-1,-5.650983095E-1,6.652447414E-1,8.931477899E-1
1.666382833E0,-5.397514337E-1,-1.024764304E0,7.822966433E-1,1.397662880E0
1.676373833E0,8.504454301E-1,-4.728760242E-2,8.725975335E-1,1.219393293E0
1.686364833E0,1.570010878E0,1.681501347E-1,1.114464101E0,1.932676604E0
1.696356833E0,2.080197254E0,-6.699184209E-1,1.591620287E0,2.703565506E0
1.706347833E0,1.836936126E0,-1.844182581E-1,1.199417127E0,2.201578041E0
1.716338833E0,6.989417336E-1,4.894803625E-1,-4.423213989E-1,9.611237133E-1
1.726329833E0,6.385609728E-1,5.055812556E-1,2.211744769E-1,8.439731460E-1
1.736321833E0,-1.984311981E0,-5.296706146E-1,-2.792506235E0,3.466429874E0
1.746312833E0,-3.886377904E0,-1.256910460E0,-4.932955538E0,6.404514615E0
1.756303833E0,-4.506493835E0,-1.020869474E0,-1.689809071E0,4.919971124E0
1.766294833E0,-6.061914886E0,-1.231045886E0,-3.129068459E0,6.932052761E0
1.776285833E0,-3.220999553E0,1.425645316E0,-2.355414732E0,4.237367254E0
1.786277833E0,5.010075635E-1,2.719784414E0,1.845313286E0,3.324667947E0
1.796268833E0,2.449620246E0,2.047339411E0,5.324535969E0,6.208294556E0
1.806259833E0,2.363196206E0,9.397457886E-1,4.566308219E0,5.226757045E0
1.816250833E0,2.895832382E0,5.582886422E-1,1.857134748E0,3.485180177E0
1.826242833E0,1.801695542E0,1.801206715E0,6.514996916E-1,2.629620563E0
1.836233833E0,2.743614741E0,1.090698093E0,-1.078748138E0,3.143364713E0
1.846224833E0,3.991653805E0,1.276319123E0,-1.882418255E-1,4.194964313E0
1.856215833E0,3.372575463E0,3.141797848E0,1.105479269E0,4.739962382E0
1.866207833E0,4.578509093E-1,2.997145334E0,-2.112931941E-1,3.039268402E0
1.876198833E0,-4.454851811E-1,5.699234319E-1,-2.011991238E0,2.138078227E0
1.886189833E0,2.915756843E-1,-4.967542988E-1,-1.580690671E0,1.682368631E0
1.896181167E0,3.788564876E-1,5.075681394E-1,-2.040936710E0,2.136955851E0
1.906173167E0,5.602254593E-1,6.255485791E-1,-1.966797523E0,2.138564025E0
1.916164167E0,-8.098754013E-1,-3.559907681E-1,-7.869405019E-1,1.184019825E0
1.926155167E0,-1.591989538E0,-5.021179497E-1,-9.586814117E-1,1.924999526E0
1.936146167E0,-1.738531141E0,-1.940031894E0,-4.958637679E-1,2.651809789E0
1.946138167E0,-8.864097532E-1,-3.247283372E0,3.932884026E-1,3.388989129E0
1.956129167E0,-5.597902802E-1,-2.926372390E0,1.846749508E0,3.505353658E0
1.966120167E0,2.670101792E0,-9.863375723E-2,1.638999106E0,3.134563808E0
1.976111167E0,1.966955837E0,1.586893398E0,9.621453023E-1,2.704231777E0
1.986102167E0,1.945012552E0,2.390432975E0,1.633772864E0,3.488044927E0
1.996094167E0,2.232230855E0,1.998629766E0,1.381526320E0,3.299392444E0
2.006085167E0,9.624316697E-1,1.820322433E0,-4.093047302E-2,2.059496002E0
2.016076167E0,-1.195110215E-1,2.039643890E0,-1.023537558E0,2.285182535E0
2.026067167E0,-3.031372011E0,-2.839016157E-1,-1.771561332E0,3.522534024E0
2.036059167E0,-2.832274318E0,4.423506349E-1,-2.252715844E0,3.645844287E0
2.046050167E0,-3.356501759E0,9.169825780E-1,-2.924521161E0,4.545303635E0
2.056041167E0,-2.722093479E0,-5.761366832E-1,-1.799098209E0,3.313379054E0
2.066032167E0,-2.268418834E0,-2.290705204E0,2.440635999E0,4.043483451E0
2.076024167E0,-5.483045214E-1,-2.496580405E0,4.281296217E0,4.986286079E0
2.086015167E0,2.562182656E-1,-1.315496053E0,2.354402432E0,2.709130576E0
2.096006167E0,3.752283999E-1,5.267282957E-1,4.608681822E-1,7.941275281E-1
2.105997167E0,3.699410917E-1,1.609830270E0,-2.420630336E-1,1.669432366E0
2.115989167E0,1.377589024E-1,2.911412289E0,-1.362537487E0,3.217422483E0
2.125980167E0,-3.724810126E-1,3.317508432E0,-5.555270022E-1,3.384259824E0
2.135971167E0,2.558538927E-1,3.964825026E0,-1.086707368E0,4.119008570E0
2.145962167E0,5.740717390E-1,4.197406214E0,-1.379674507E0,4.455477419E0
2.155953167E0,6.443728859E-1,4.153104200E0,-1.322920847E0,4.406087889E0
2.165945167E0,1.317769011E0,2.726608699E0,-2.952280818E0,4.229287433E0
2.175936167E0,8.406521478E-1,1.900131664E0,2.593095131E0,3.322850994E0
2.185927167E0,9.812173849E-1,1.094009371E0,2.968307451E0,3.312173483E0
2.195918167E0,1.429751670E0,2.813072062E-1,1.591765882E0,2.158018120E0
2.205910167E0,1.847324143E0,-1.021070033E-1,3.736949676E-1,1.887506360E0
2.215901167E0,1.792581780E0,-1.436617032E0,1.858981884E-1,2.304729066E0
2.225892167E0,1.306434915E0,-2.326373804E0,6.059826261E-1,2.736055958E0
2.235883167E0,6.429916274E-1,-2.252127614E0,4.205212247E-1,2.379570365E0
2.245875167E0,4.446229360E-1,-1.722217264E0,5.187854379E-1,1.852797935E0
2.255866167E0,-1.797474291E-2,-1.443643046E0,4.134946257E-1,1.501800966E0
2.265857167E0,-4.985386498E-1,-1.065630494E0,1.988930404E-1,1.193175418E0
2.275848167E0,-5.666906525E-1,-6.811263639E-1,-7.532036025E-2,8.892381997E-1
2.285840167E0,-3.002467762E-1,-4.967233086E-1,-7.298319161E-2,5.849860837E-1
2.295831167E0,2.820654438E-1,-4.450292444E-1,7.020208043E-1,8.777500514E-1
2.305822167E0,5.204230969E-1,-4.944621903E-1,7.887858832E-1,1.066544058E0
2.315813167E0,6.814223792E-1,-7.751191860E-1,4.059494517E-1,1.109027127E0
2.325804167E0,7.600232832E-1,-1.314487408E0,-2.827630898E-1,1.544495873E0
2.335796167E0,9.600531685E-1,-2.518701006E0,-1.601938283E0,3.135564241E0
2.345787167E0,7.608031556E-1,-3.759608806E0,-2.922731913E0,4.822431094E0
2.355778167E0,-1.989675924E-2,-4.347593118E0,-3.077908831E0,5.326864422E0
2.365769167E0,-2.833269806E-1,-4.753546005E0,-1.874816144E0,5.117754329E0
2.375761167E0,9.141478479E-2,-4.345391057E0,-9.253394186E-1,4.443763398E0
2.385752167E0,1.097338483E0,-3.352747847E0,-5.234860146E-1,3.566385773E0
2.395743167E0,1.323360119E0,-1.474668957E0,-2.024539948E-1,1.991712368E0
2.405734167E0,1.031184839E0,-3.134189451E-1,-8.412739992E-2,1.081041640E0
2.415726167E0,1.370296450E0,5.139702559E-4,-3.328469038E-2,1.370700732E0
2.425717167E0,1.287273735E0,9.182724738E-1,-4.106903742E-1,1.633696603E0
2.435708167E0,1.585912527E-1,3.147954966E0,-1.711257243E0,3.586526593E0
2.445699167E0,-5.591522759E-1,3.781953356E0,-1.977558739E0,4.304249182E0
2.455691167E0,-8.717716143E-2,5.493480740E0,-1.301691361E0,5.646266988E0
2.465682167E0,7.629294956E-1,7.066379412E0,2.133766667E-1,7.110647580E0
2.475673167E0,1.505755825E0,6.766097406E0,5.734370968E-1,6.955300484E0
2.485664167E0,1.300255431E0,5.185311425E0,8.144253391E-1,5.407532468E0
2.495655167E0,1.497134690E0,2.185143081E0,6.691139171E-1,2.732027818E0
2.505647167E0,1.247078221E0,-1.508043694E-1,-1.147018328E-1,1.261389138E0
2.515638167E0,1.974293362E0,-6.732739041E0,-1.879778675E0,7.263688948E0
2.525629167E0,1.381549416E0,-1.053244454E1,-2.060827768E0,1.082072447E1
2.535620167E0,5.319894741E-1,-4.712295653E0,-2.612073658E-1,4.749418112E0
2.545612167E0,2.378368123E-1,1.880249961E0,1.288964311E0,2.292015546E0
2.555603167E0,-8.422766505E-1,2.665806427E0,1.776766523E0,3.312529719E0
2.565594167E0,-2.818744738E0,1.852547023E0,6.336820561E-1,3.432026415E0
2.575585167E0,-4.529664011E0,1.508878092E0,1.532015525E0,5.014144067E0
2.585577167E0,-4.998556620E0,1.235066432E-1,1.738801721E0,5.293793876E0
2.595568167E0,-4.336388099E0,-2.458216238E-1,3.171079534E-1,4.354910730E0
2.605559167E0,-3.430494180E0,-3.738353008E-1,-6.992375296E-1,3.520934006E0
2.615550167E0,-2.494457865E0,-3.075863475E-1,-1.526888686E0,2.940802350E0
2.625542167E0,-9.341114847E-1,2.764914393E-1,-2.510515489E0,2.692898030E0
2.635533167E0,1.118566726E0,1.257847184E0,-3.431011074E0,3.821676079E0
2.645524167E0,2.053078161E0,1.844052773E0,-3.520143691E0,4.472926577E0
2.655515167E0,3.109846323E0,2.365915015E0,-2.485350242E0,4.630946322E0
2.665506167E0,4.464017029E0,3.040885431E0,-8.746949297E-1,5.471702062E0
2.675498167E0,4.058795044E0,3.622564105E0,4.145307523E-1,5.456063017E0
2.685489167E0,1.593910203E0,4.489892712E0,1.800681050E0,5.093342571E0
2.695480167E0,-1.363435327E0,3.805875485E0,2.940716779E0,4.999145854E0
2.705471167E0,-3.138212335E0,5.509837157E-1,4.637733713E0,5.626769384E0
2.715463167E0,-4.351333582E0,-4.400925572E0,5.935896279E0,8.575378386E0
2.725454167E0,-6.411333384E0,-1.010915525E1,7.927328122E0,1.435767205E1
2.735445167E0,-7.906761126E0,-1.554807153E1,9.086230477E0,1.966771425E1
2.745436167E0,-7.185624604E0,-1.996090437E1,6.578364362E0,2.221138856E1
2.755428167E0,-3.694871943E0,-2.140323705E1,1.757333010E0,2.179079747E1
2.765419167E0,5.917082570E-1,-2.087326180E1,-1.502085966E0,2.093560219E1
2.775410167E0,4.594457300E0,-2.046088574E1,-6.672178259E0,2.200624561E1
2.785401167E0,7.277938691E0,-1.870022011E1,-8.921403315E0,2.196037479E1
2.795393167E0,7.903590181E0,-1.410289008E1,-4.276107398E0,1.672253990E1
2.805384167E0,6.658236158E0,-9.199961745E0,4.228484166E-1,1.136442720E1
2.815375167E0,4.240484991E0,-5.053658441E0,3.845740047E0,7.636156960E0
2.825366167E0,2.979860380E0,-1.294235576E0,5.364935551E0,6.271933281E0
2.835357167E0,1.838912778E0,2.207679420E0,5.217176996E0,5.956037646E0
2.845349167E0,5.230163005E-1,4.477986027E0,4.192655936E0,6.156644273E0
2.855340167E0,-8.170219414E-1,6.202964931E0,3.189205903E0,7.022487670E0
2.865331167E0,-1.576359492E0,7.795947034E0,1.583218569E0,8.109764512E0
2.875322167E0,-2.185311188E0,9.187330590E0,-8.398373383E-1,9.480925857E0
2.885314167E0,-1.587561442E0,1.081220107E1,-2.357320778E0,1.117949035E1
2.895305542E0,2.118073836E-1,1.263516878E1,-3.603047268E0,1.314055943E1
2.905296542E0,1.845957649E0,1.413079533E1,-3.950946659E0,1.478840477E1
2.915287542E0,2.832456166E0,1.514394472E1,-2.506022488E0,1.560903644E1
2.925279542E0,2.650897781E0,1.508037730E1,-1.561605944E0,1.539102504E1
2.935270542E0,6.443320285E-1,1.296455530E1,-1.853773769E0,1.311225896E1
2.945261542E0,-9.275205763E-1,1.056600055E1,-2.422145496E0,1.087968064E1
2.955252542E0,-1.335160677E0,9.219314275E0,-2.170054487E0,9.564912243E0
2.965244542E0,-1.822316625E0,8.423521088E0,-1.425631868E0,8.735500651E0
2.975235542E0,-2.644193364E0,7.819808936E0,-6.018129766E-1,8.276675009E0
2.985226542E0,-2.940921724E0,7.646854729E0,-6.634660184E-2,8.193156273E0
2.995217542E0,-2.678540201E0,7.829814107E0,1.994882870E-1,8.277702709E0
3.005208542E0,-2.064595421E0,8.216439607E0,2.659102448E-1,8.476033408E0
3.015200542E0,-7.764529359E-1,8.869473023E0,2.462122178E-1,8.906798040E0
3.025191542E0,1.231183150E0,9.836591967E0,4.754236561E-1,9.924735822E0
3.035182542E0,3.024149822E0,1.068180348E1,-1.142026998E-2,1.110164574E1
3.045173542E0,4.031480653E0,1.128540921E1,-7.091954110E-1,1.200484300E1
3.055165542E0,3.925444028E0,1.112703504E1,-9.662753369E-1,1.183865312E1
3.065156542E0,3.620373153E0,1.095474917E1,4.763068780E-2,1.153758639E1
3.075147542E0,2.705306708E0,1.110176688E1,1.316300483E0,1.150219802E1
3.085138542E0,1.756582812E0,1.136181829E1,1.861055745E0,1.164645983E1
3.095130542E0,1.727671254E0,1.029768819E1,2.542276980E0,1.074664609E1
3.105121542E0,2.101604934E0,5.047870867E0,3.360213572E0,6.417848459E0
3.115112542E0,1.491277096E0,-2.278141876E0,2.082984622E0,3.428215676E0
3.125103542E0,3.233387464E-1,-1.137827937E1,3.787519321E-2,1.138293565E1
3.135095542E0,-6.963605534E-1,-2.664360060E1,3.552270632E0,2.688838034E1
3.145086542E0,-2.493781927E0,-4.326302938E1,6.029751107E0,4.375233203E1
3.155077542E0,-1.098861025E0,-4.369033922E1,1.573100693E0,4.373245800E1
3.165068542E0,3.319126942E0,-2.713986081E1,-1.784213245E0,2.740022017E1
3.175059542E0,2.961719978E0,-2.271175738E1,5.089644545E-1,2.290970871E1
3.185051542E0,1.546658707E0,-2.337611568E1,4.142452328E0,2.379064624E1
3.195042542E0,1.392285343E0,-2.306670676E1,4.539177139E0,2.355027703E1
3.205033542E0,6.038350169E-1,-1.918681605E1,2.403613769E0,1.934621115E1
3.215024542E0,-1.348457684E0,-1.537548745E1,-2.608970614E-1,1.543671013E1
3.225016542E0,-3.591641982E0,-1.193992899E1,-1.427921053E0,1.254993048E1
3.235007542E0,-4.016282278E0,-7.562812698E0,1.585362889E-1,8.564566130E0
3.244998542E0,-2.176391553E0,-2.575744103E0,2.270172852E0,4.065073512E0
3.254989542E0,-9.109136067E-1,1.750241214E0,2.921408104E0,3.525299025E0
3.264981542E0,-2.895690661E-1,5.306527129E0,2.146045089E0,5.731368941E0
3.274972542E0,1.188118553E0,8.275748500E0,2.176661110E-1,8.363433354E0
3.284963542E0,2.459253534E0,1.023449850E1,-1.741897822E0,1.066897819E1
3.294954542E0,3.131789753E0,1.202741153E1,-1.617989329E0,1.253334052E1
3.304945542E0,3.340315789E0,1.405030607E1,-4.681970823E-1,1.444949891E1
3.314937542E0,4.103710138E0,1.642925745E1,6.264373559E-1,1.694560005E1
3.324928542E0,4.198394686E0,1.833388270E1,3.765180033E-1,1.881221780E1
3.334919542E0,3.266534160E0,1.872492226E1,-2.325870359E-1,1.900913085E1
3.344910542E0,1.109731657E0,1.660350097E1,-1.721853713E-1,1.664143613E1
3.354902542E0,-1.071953820E0,1.319720549E1,-8.938960165E-1,1.327080886E1
3.364893542E0,-2.260905016E0,1.056322896E1,-1.769334712E0,1.094641690E1
3.374884542E0,-3.023768876E0,8.331749039E0,-2.109660643E0,9.111086010E0
3.384875542E0,-4.003349991E0,6.484431766E0,-2.354740840E0,7.976181473E0
3.394867542E0,-4.508179002E0,5.420216298E0,-2.309999846E0,7.418795180E0
3.404858542E0,-4.229130283E0,5.184726704E0,-2.118496078E0,7.018187770E0
3.414849542E0,-3.741545003E0,5.648722562E0,-1.728436947E0,6.992475947E0
3.424840542E0,-3.103567582E0,6.482346064E0,-1.545663511E0,7.351327630E0
3.434832542E0,-2.549517587E0,7.423436127E0,-1.840156188E0,8.061861985E0
3.444823542E0,-1.676250840E0,8.595478930E0,-1.392320134E0,8.867391401E0
3.454814542E0,-7.546077383E-1,9.654022599E0,-3.816805100E-1,9.690988865E0
3.464805542E0,-6.246211376E-1,1.011092345E1,-4.795228466E-2,1.013031213E1
3.474797542E0,-8.154333260E-1,1.053831632E1,-1.152205539E-1,1.057044550E1
3.484788542E0,-8.875202125E-1,1.093299285E1,-6.663486958E-2,1.096915972E1
3.494779542E0,-7.391411220E-1,1.068755363E1,2.796354872E-1,1.071673123E1
3.504770542E0,-9.608232468E-1,1.007504844E1,1.157630585E0,1.018675075E1
3.514761542E0,-1.294300334E0,7.700540355E0,2.313451896E0,8.144052725E0
3.524753542E0,-6.208126999E-1,3.355666777E0,3.418284025E0,4.830173247E0
3.534744542E0,-8.075737180E-1,-2.349750972E0,3.758075082E0,4.505178494E0
3.544735542E0,1.111270644E-1,-1.177005685E1,3.396849301E0,1.225092538E1
3.554726542E0,1.862716062E-1,-2.671358943E1,3.312313181E0,2.691880339E1
3.564718542E0,-1.557790343E0,-4.368108659E1,2.624600221E0,4.378758457E1
3.574709542E0,-1.914892960E-1,-3.802488310E1,-4.866945736E0,3.833556526E1
3.584700542E0,4.829965605E0,-2.005786290E1,-5.889358290E0,2.145532505E1
3.594691542E0,5.533697889E0,-1.819043296E1,1.622690637E0,1.908263054E1
3.604683542E0,4.092903607E0,-2.332670203E1,5.477296817E0,2.430818109E1
3.614674542E0,4.890762615E0,-2.425574040E1,4.708272184E0,2.518786073E1
3.624665542E0,4.454936011E0,-2.081221219E1,1.711347728E0,2.135236151E1
3.634656542E0,2.408675265E0,-1.639745912E1,3.741666918E-1,1.657764708E1
3.644648542E0,7.217771573E-1,-1.193080149E1,1.341455059E-1,1.195336695E1
3.654639542E0,-1.557133994E-1,-7.663142733E0,7.923234487E-1,7.705568094E0
3.664630542E0,-4.426002380E-1,-3.793307480E0,1.563657732E0,4.126754428E0
3.674621542E0,-7.819671527E-1,2.597099304E-2,1.071288187E0,1.326576609E0
3.684612542E0,-8.893693945E-1,4.054741754E0,4.048061749E-1,4.170824457E0
3.694604542E0,-2.898781645E-1,7.882771754E0,4.701008626E-1,7.902095589E0
3.704595542E0,9.987015098E-1,1.123832276E1,1.676167517E0,1.140643856E1
3.714586542E0,2.374106234E0,1.396925079E1,2.281597435E0,1.435207424E1
3.724577542E0,2.584189529E0,1.589004476E1,1.528455740E0,1.617120079E1
3.734569542E0,2.428567346E0,1.678840630E1,-4.101470947E-1,1.696810968E1
3.744560542E0,2.351169945E0,1.706301260E1,-2.119578837E0,1.735416415E1
3.754551542E0,1.759948323E0,1.677049511E1,-3.337034624E0,1.718961094E1
3.764542542E0,7.702494787E-1,1.479622718E1,-3.977436301E0,1.534084817E1
3.774534542E0,-7.082807603E-1,1.105853023E1,-3.499676682E0,1.162069229E1
3.784525542E0,-1.106699144E0,8.549938475E0,-2.284384364E0,8.918780346E0
3.794516542E0,-8.148342057E-1,7.740822408E0,-1.094120468E0,7.860113608E0
3.804507542E0,-1.155335188E0,7.309528273E0,2.398691583E-1,7.404156953E0
3.814499542E0,-2.012914367E0,7.220095695E0,1.029009967E0,7.565743030E0
3.824490542E0,-2.394754652E0,7.677046242E0,6.314612836E-1,8.066636982E0
3.834481542E0,-1.945630603E0,8.659868469E0,-4.557941146E-1,8.887437685E0
3.844472542E0,-1.397543305E0,9.545647380E0,-1.142320382E0,9.714803501E0
3.854463542E0,-7.657240261E-1,1.016764378E1,-1.415985570E0,1.029428620E1
3.864455542E0,-3.492450546E-1,1.044291432E1,-1.636454544E0,1.057612476E1
3.874446542E0,-2.168518131E-1,1.024684548E1,-1.374254138E0,1.034086270E1
3.884437542E0,-6.787609459E-1,9.535764416E0,-8.774887294E-1,9.600078432E0
3.894428042E0,-1.492156079E0,8.792035423E0,-3.691546047E-1,8.925395888E0
3.904420042E0,-1.973838887E0,8.222435342E0,-4.108399898E-3,8.456033336E0
3.914411042E0,-1.854531129E0,7.631292365E0,5.271674216E-2,7.853578033E0
3.924402042E0,-7.755287104E-1,5.952722812E0,-1.106135327E-1,6.004047719E0
3.934393042E0,5.394679899E-1,2.608458690E0,-5.893620618E-1,2.728081760E0
3.944385042E0,1.650733006E0,-2.529210207E0,-7.427627411E-1,3.110228322E0
3.954376042E0,1.790187052E0,-8.460701194E0,4.161741123E-2,8.648119240E0
3.964367042E0,1.034752956E0,-1.601368765E1,1.442159023E0,1.611175746E1
3.974358042E0,-2.286795025E0,-2.629101349E1,4.041329995E0,2.669792445E1
3.984350042E0,-6.711992535E0,-3.334311810E1,5.750135500E0,3.449461446E1
3.994341042E0,-4.007656758E0,-2.531166101E1,4.099368289E0,2.595277087E1
4.004332042E0,2.759309837E0,-1.732020939E1,3.089975145E0,1.780874478E1
4.014323042E0,7.572307992E0,-1.824790992E1,4.183187540E0,2.019468055E1
4.024314042E0,1.080793494E1,-2.277467342E1,6.182946988E0,2.595623317E1
4.034306042E0,1.225957756E1,-2.535321834E1,5.081029258E0,2.861642501E1
4.044297042E0,1.048388810E1,-2.096296510E1,1.733056832E0,2.350236800E1
4.054288042E0,4.976476364E0,-1.474148555E1,-1.935645459E0,1.567875749E1
4.064279042E0,-1.108858667E-2,-1.099422723E1,-3.802416857E0,1.163320804E1
4.074271042E0,-3.649173906E0,-8.984452672E0,-2.009000387E0,9.903178407E0
4.084262042E0,-3.287908365E0,-5.919286094E0,1.291444700E0,6.893193649E0
4.094253042E0,-2.414798761E0,-2.205161024E0,2.515532985E0,4.125759857E0
4.104244042E0,-3.718463704E-1,1.724252679E0,2.757009543E0,3.272983141E0
4.114236042E0,6.011911618E-1,5.572401195E0,1.832184094E0,5.896607876E0
4.124227042E0,1.434923239E0,8.896789461E0,1.159513974E0,9.086051952E0
4.134218042E0,2.357572647E0,1.188326947E1,1.319224968E0,1.218649239E1
4.144209042E0,1.930760403E0,1.466331997E1,1.899101384E0,1.491131699E1
4.154201042E0,1.477625602E0,1.722753687E1,1.711391729E0,1.737527743E1
4.164192042E0,5.609484309E-1,1.871104097E1,1.184402647E0,1.875687946E1
4.174183042E0,-1.021047668E0,1.906122955E1,5.789538717E-1,1.909733483E1
4.184174042E0,-2.693908730E0,1.782642741E1,-9.062571035E-1,1.805159163E1
4.194165042E0,-2.964580143E0,1.507585273E1,-2.131209387E0,1.551167703E1
4.204157042E0,-2.994413515E0,1.187686677E1,-2.843060092E0,1.257415871E1
4.214148042E0,-1.992911920E0,9.727250789E0,-3.299576776E0,1.046318846E1
4.224139042E0,-4.080700541E-1,8.204837562E0,-2.932451155E0,8.722680228E0
4.234130042E0,-2.961869447E-1,6.889368991E0,-2.274759847E0,7.261243982E0
4.244122042E0,-1.077579937E0,5.591253787E0,-2.216190480E0,6.110220755E0
4.254113042E0,-1.277540460E0,5.286213318E0,-2.147541391E0,5.847058653E0
4.264104042E0,-1.112182883E0,6.018537317E0,-1.873705319E0,6.400821340E0
4.274095042E0,-5.439528774E-1,7.448280362E0,-1.708017447E0,7.660945678E0
4.284087042E0,4.529059555E-1,8.626693121E0,-1.320778573E0,8.738959552E0
4.294078042E0,1.076049721E0,9.178474982E0,-1.048687018E0,9.300646776E0
4.304069042E0,8.159729509E-1,9.069433181E0,-1.006664979E0,9.161539415E0
4.314060042E0,1.036189471E-1,8.906320422E0,-1.059218584E0,8.969683626E0
4.324052042E0,-6.807715110E-1,8.822872469E0,-1.239948272E0,8.935546999E0
4.334043042E0,-9.778724851E-1,9.099081488E0,-1.000448073E0,9.205998852E0
4.344034042E0,-1.352267145E0,9.654227251E0,-4.724433303E-1,9.759914598E0
4.354025042E0,-1.577303379E0,8.685661122E0,-1.063748860E-1,8.828358323E0
4.364017042E0,-8.977600028E-1,5.552995455E0,1.861221367E-1,5.628176703E0
4.374008042E0,5.518807516E-1,8.533619481E-1,1.107104503E-1,1.022279699E0
4.383999042E0,1.595862442E0,-5.479627517E0,5.650211263E-1,5.735184699E0
4.393990042E0,1.464516144E0,-1.582602243E1,1.434456486E0,1.595824110E1
4.403981042E0,-1.084336176E0,-3.260773016E1,5.517875909E0,3.308907381E1
4.413973042E0,-3.714694589E0,-4.271771805E1,3.967018024E0,4.306204388E1
4.423964042E0,-1.093372901E0,-3.073764792E1,7.490151688E-2,3.075717923E1
4.433955042E0,3.500085402E0,-2.047674807E1,7.421008363E-2,2.077386138E1
4.443946042E0,7.564683223E0,-1.830264102E1,3.188969675E0,2.005942742E1
4.453938042E0,9.451914175E0,-2.043745010E1,6.627264626E0,2.347229611E1
4.463929042E0,9.862079980E0,-2.143925590E1,7.347790698E0,2.471623643E1
4.473920042E0,7.578162809E0,-1.914013304E1,3.676095364E0,2.091140650E1
4.483911042E0,3.315152589E0,-1.589370863E1,-9.901541962E-1,1.626593422E1
4.493903042E0,1.569373678E-1,-1.230213009E1,-2.943931578E0,1.265044534E1
4.503894042E0,-1.517130560E0,-8.558486520E0,-2.018830872E0,8.923287216E0
4.513885042E0,-2.453171553E0,-4.764993684E0,6.056545973E-2,5.359746603E0
4.523876042E0,-3.139637594E0,-9.834449548E-1,1.587451076E0,3.653010966E0
4.533868042E0,-3.566548948E0,2.753691832E0,1.679119045E0,4.808589281E0
4.543859042E0,-3.489897214E0,6.541253838E0,1.055235899E0,7.488718658E0
4.553850042E0,-2.795661685E0,1.003104931E1,5.883421612E-1,1.042994827E1
4.563841042E0,-1.470748691E0,1.277992713E1,3.489391722E-1,1.286900920E1
4.573832042E0,3.434066829E-1,1.473657389E1,6.544051731E-1,1.475509350E1
4.583824042E0,1.516822850E0,1.584094335E1,1.369930560E0,1.597225556E1
4.593815042E0,1.476578365E0,1.665348647E1,1.806758062E0,1.681616098E1
4.603806042E0,1.550533510E0,1.739581038E1,1.476582897E0,1.752708390E1
4.613797042E0,1.741385460E0,1.742459739E1,4.630201037E-1,1.751751710E1
4.623789042E0,1.470079624E0,1.615679825E1,-5.556268434E-1,1.623305224E1
4.633780042E0,1.658077401E-1,1.325627523E1,-1.406356667E0,1.333169773E1
4.643771042E0,-8.224164364E-1,1.018380899E1,-2.184044681E0,1.044779333E1
4.653762042E0,-6.974095438E-1,8.169741404E0,-2.723278710E0,8.639866990E0
4.663754042E0,-5.520860620E-1,6.983640726E0,-2.581771413E0,7.466028424E0
4.673745042E0,-7.253313873E-1,6.139820264E0,-1.772071063E0,6.431464401E0
4.683736042E0,-1.079708178E0,5.835587295E0,-8.430854666E-1,5.994217374E0
4.693727042E0,-1.445560348E0,6.240299987E0,-4.918047769E-1,6.424395737E0
4.703719042E0,-1.224542467E0,7.003576223E0,-7.304302324E-1,7.147245098E0
4.713710042E0,-6.022489231E-1,7.885741555E0,-1.117705212E0,7.987295448E0
4.723701042E0,3.238313743E-1,8.802973809E0,-1.526316390E0,8.940182122E0
4.733692042E0,1.197511520E0,9.535015973E0,-1.300586822E0,9.697530073E0
4.743684042E0,1.279426479E0,9.514508618E0,-1.196116228E0,9.674373385E0
4.753675042E0,7.571452106E-1,9.218019701E0,-1.419510418E0,9.357358917E0
4.763666042E0,-5.563760179E-1,8.880843519E0,-1.185071715E0,8.976821868E0
4.773657042E0,-1.891182062E0,8.231716043E0,-2.831514180E-4,8.446165916E0
4.783648042E0,-3.060215156E0,5.887558517E0,3.084644531E-1,6.642545627E0
4.793640042E0,-2.307115853E0,1.415784572E0,-1.159327447E-2,2.706910401E0
4.803631042E0,1.747685981E-1,-4.095057721E0,1.025547977E0,4.225137922E0
4.813622042E0,6.203578596E-1,-1.280692489E1,2.435879290E0,1.305127109E1
4.823613042E0,-1.272648972E0,-2.608326894E1,4.317258348E0,2.646876033E1
4.833605042E0,-4.104541028E0,-3.817572723E1,5.177047555E0,3.874319589E1
4.843596042E0,-8.466559958E-1,-3.260002820E1,3.470223672E0,3.279513863E1
4.853587042E0,8.068720229E0,-2.234392775E1,6.594469932E0,2.465445978E1
4.863578042E0,1.186429175E1,-2.123028577E1,1.022634280E1,2.638303507E1
4.873570042E0,1.065290654E1,-2.398694623E1,8.465512283E0,2.757757976E1
4.883561042E0,6.730284964E0,-2.518574239E1,2.764119757E0,2.621561964E1
4.893551917E0,2.169592557E0,-2.219868291E1,-1.853301460E0,2.238131768E1
4.903542917E0,-7.319866151E-1,-1.801912123E1,-2.667584565E0,1.823020959E1
4.913534917E0,-8.169750906E-1,-1.347278242E1,-1.187039741E0,1.354962648E1
4.923525917E0,4.772991140E-1,-8.525153298E0,4.567246990E-1,8.550710535E0
4.933516917E0,3.606418992E-1,-4.216413758E0,8.891884232E-1,4.324218266E0
4.943507917E0,-6.446129872E-1,-2.431623101E-1,1.160058276E0,1.349217928E0
4.953499917E0,-1.251437466E0,3.816530866E0,1.174997401E0,4.184808535E0
4.963490917E0,-7.813092678E-1,7.890306476E0,9.911498308E-1,7.990604386E0
4.973481917E0,3.138476191E-1,1.159124666E1,8.716280651E-1,1.162820859E1
4.983472917E0,1.491701311E0,1.478163838E1,-6.512395636E-1,1.487098245E1
4.993463917E0,1.068492926E0,1.682317384E1,-1.777173489E0,1.695049264E1
5.003455917E0,4.187478739E-1,1.786634167E1,-8.259092706E-1,1.789032254E1
5.013446917E0,1.795269160E-1,1.849495361E1,-1.344859600E-5,1.849582490E1
5.023437917E0,-3.467504132E-1,1.781261629E1,-4.720368026E-1,1.782224322E1
5.033428917E0,8.258210873E-2,1.501759926E1,-1.850967544E0,1.513146351E1
5.043420917E0,1.100165539E0,1.192121673E1,-1.643023013E0,1.208409274E1
5.053411917E0,1.568419704E0,9.695123847E0,-1.598472639E0,9.950401075E0
5.063402917E0,1.439503217E0,8.124150079E0,-1.222365256E0,8.340753014E0
5.073393917E0,2.874634837E-1,6.974157711E0,-5.214505988E-1,6.999530110E0
5.083385917E0,-5.540248891E-1,6.007167406E0,-3.842601554E-1,6.044887070E0
5.093376917E0,-1.020839653E0,5.520628778E0,-5.238736850E-1,5.638607925E0
5.103367917E0,-1.197106088E0,5.774003250E0,-6.263822459E-1,5.929968907E0
5.113358917E0,-9.234663362E-1,6.750925636E0,-6.003571661E-1,6.840191206E0
5.123350917E0,-5.494511239E-1,8.397481683E0,-4.415022039E-1,8.427011294E0
5.133341917E0,-2.184178437E-1,9.909786243E0,-6.031151515E-1,9.930524540E0
5.143332917E0,1.281819306E-2,1.070802240E1,-6.843027176E-1,1.072987317E1
5.153323917E0,-5.555512682E-3,1.099886290E1,-5.283304328E-1,1.101154617E1
5.163315917E0,6.510542069E-2,1.110607979E1,-4.544368297E-1,1.111556385E1
5.173306917E0,3.907670466E-1,1.092858756E1,-6.624727227E-1,1.095561933E1
5.183297917E0,4.091756529E-1,1.062484458E1,-8.971162243E-1,1.067049974E1
5.193288917E0,-2.789428845E-2,1.033812987E1,-1.020636901E0,1.038842659E1
5.203280917E0,-8.569836404E-1,9.909987388E0,-9.109735407E-1,9.988600692E0
5.213271917E0,-1.511314042E0,9.533560601E0,-7.419251275E-1,9.681079524E0
5.223262917E0,-1.558601791E0,8.430258835E0,-1.263725097E-1,8.574058174E0
5.233253917E0,-1.574971656E-1,4.602268011E0,-8.853269219E-2,4.605813092E0
5.243244917E0,1.996470681E0,-1.784103609E0,9.021926308E-1,2.825397744E0
5.253236917E0,3.115469590E0,-1.371823450E1,3.327809472E0,1.445580937E1
5.263227917E0,-7.496126081E-1,-4.158579533E1,9.590649891E0,4.268396488E1
5.273218917E0,-7.639065068E0,-6.486621314E1,1.029081187E1,6.612020668E1
5.283209917E0,-3.092699655E0,-4.184681504E1,8.489981711E-2,4.196102868E1
5.293201917E0,3.368290915E0,-2.330382071E1,-1.018087953E0,2.356798562E1
5.303192917E0,5.240195730E0,-2.031946966E1,2.392467806E0,2.112023676E1
5.313183917E0,7.198318325E0,-2.101819790E1,4.154031569E0,2.260169038E1
5.323174917E0,5.040318019E0,-2.062246536E1,4.753476423E-1,2.123480254E1
5.333166917E0,1.957499866E0,-1.779049978E1,-3.539755837E0,1.824454876E1
5.343157917E0,6.574794929E-1,-1.196492818E1,-1.287551624E0,1.205195315E1
5.353148917E0,-8.024657366E-1,-5.916767113E0,6.029075754E-1,6.001298349E0
5.363139917E0,-2.413157448E0,-1.052913385E0,6.678685333E-1,2.716248119E0
5.373131917E0,-2.764826100E0,3.715844151E0,6.141314520E-1,4.672142824E0
5.383122917E0,-1.672727600E0,7.660598025E0,1.071518641E0,7.913970680E0
5.393113917E0,-6.656311693E-1,1.041894775E1,7.528155667E-1,1.046729518E1
5.403104917E0,1.668525279E-1,1.251782452E1,2.626521762E-1,1.252169144E1
5.413096917E0,1.067449490E0,1.448580084E1,5.627388118E-1,1.453597432E1
5.423087917E0,1.330910336E0,1.664458818E1,1.138036127E0,1.673645017E1
5.433078917E0,1.156065578E0,1.846686358E1,8.646973604E-1,1.852320814E1
5.443069917E0,1.391087687E0,1.912415143E1,-2.656022427E-1,1.917651787E1
5.453060917E0,2.359225654E0,1.743946102E1,-2.026104078E0,1.771456587E1
5.463052917E0,2.136049127E0,1.302954944E1,-2.570031374E0,1.345127971E1
5.473043917E0,1.747621515E0,9.873166301E0,-2.906535126E0,1.043942241E1
5.483034917E0,9.771235299E-1,8.022388646E0,-3.277480733E0,8.720972992E0
5.493025917E0,-6.101206275E-1,6.530113138E0,-2.390867423E0,6.980750089E0
5.503017917E0,-2.207506050E0,5.602628376E0,-8.202596909E-1,6.077446309E0
5.513008917E0,-3.408529992E0,5.376389077E0,2.468542421E-1,6.370602266E0
5.522999917E0,-3.686948673E0,5.954396870E0,2.749618077E-1,7.008854157E0
5.532990917E0,-3.135076473E0,7.228173038E0,1.756228763E-1,7.880738123E0
5.542982917E0,-2.530392222E0,8.790843760E0,2.804079044E-1,9.152073394E0
5.552973917E0,-1.722253516E0,1.014058988E1,-1.890183357E-1,1.028753849E1
5.562964917E0,-8.616755193E-1,1.062858680E1,-5.819787826E-1,1.067932776E1
5.572955917E0,-3.702493862E-1,1.065708379E1,-2.546797170E-1,1.066655433E1
5.582947917E0,2.878791476E-1,1.041035000E1,-8.705685496E-2,1.041469349E1
5.592938917E0,1.386298817E0,1.012066491E1,-6.067173287E-2,1.021534941E1
5.602929917E0,1.969582845E0,1.015527224E1,-5.920387709E-1,1.036143430E1
5.612920917E0,1.915273321E0,9.809408262E0,-1.274031692E0,1.007551086E1
5.622912917E0,1.699600526E0,8.259042420E0,-1.138306561E0,8.508593625E0
5.632903917E0,2.328155158E0,5.201150948E0,3.683191837E-1,5.710335949E0
5.642894917E0,3.790450530E0,1.150119837E0,1.168863233E0,4.129955462E0
5.652885917E0,4.923504099E0,-4.800661699E0,5.122546828E-1,6.895625441E0
5.662876917E0,6.286989419E0,-1.395316861E1,4.830169965E-1,1.531177507E1
5.672868917E0,3.755096802E0,-2.885471116E1,3.152649111E0,2.926831571E1
5.682859917E0,-1.538209919E0,-4.326079340E1,4.584288408E0,4.353019683E1
5.692850917E0,2.323107550E-1,-3.609888511E1,6.233614281E-2,3.609968643E1
5.702841917E0,7.472013626E0,-2.526659534E1,-1.287066305E0,2.637969612E1
5.712833917E0,7.055267948E0,-2.312189979E1,2.139748222E0,2.426886026E1
5.722824917E0,3.901564000E0,-2.249670614E1,1.880418946E0,2.290982244E1
5.732815917E0,1.836874438E0,-2.016234796E1,4.630597186E-1,2.025114336E1
5.742806917E0,2.331686877E-2,-1.721076004E1,3.381823419E-1,1.721409806E1
5.752798917E0,-1.802795111E0,-1.477971581E1,1.368849995E0,1.495205070E1
5.762789917E0,-2.509886329E0,-1.133198112E1,3.214412665E0,1.204349510E1
5.772780917E0,-2.928388217E0,-7.140610399E0,4.774305375E0,9.075117974E0
5.782771917E0,-2.959946810E0,-2.577536860E0,4.344895797E0,5.855177270E0
5.792763917E0,-2.748769354E0,1.561144599E0,2.619570154E0,4.105490618E0
5.802754917E0,-2.223593494E0,4.834276173E0,1.110331873E0,5.435754870E0
5.812745917E0,-2.064586066E0,7.388513047E0,4.348296538E-2,7.671670707E0
5.822736917E0,-1.657464174E0,9.445926041E0,-7.864405650E-1,9.622431866E0
5.832728917E0,-4.227180967E-1,1.158393413E1,-1.007821997E0,1.163537390E1
5.842719917E0,1.408785455E0,1.390288723E1,-8.780961089E-1,1.400164286E1
5.852710917E0,3.250814798E0,1.623805116E1,-1.035099112E0,1.659257462E1
5.862701917E0,4.333649263E0,1.799133760E1,-1.031496861E0,1.853463597E1
5.872692917E0,4.262784517E0,1.804475309E1,-1.184981521E0,1.857925260E1
5.882684917E0,2.743910902E0,1.572852713E1,-1.851597435E0,1.607308389E1
5.892676042E0,9.536599691E-1,1.307407950E1,-1.933292393E0,1.325060910E1
5.902667042E0,-5.426420047E-1,1.122184998E1,-1.963258789E0,1.140520769E1
5.912658042E0,-1.633018866E0,9.751276998E0,-1.892372993E0,1.006654008E1
5.922650042E0,-2.202119741E0,8.644796686E0,-1.470502231E0,9.041250903E0
5.932641042E0,-2.329514198E0,7.755281403E0,-1.042808300E0,8.164464170E0
5.942632042E0,-2.440498005E0,7.214259589E0,-7.207828382E-1,7.649908485E0
5.952623042E0,-2.217724059E0,6.887244113E0,-8.479007218E-1,7.285009754E0
5.962615042E0,-1.556768981E0,7.243070574E0,-1.570966898E0,7.573211868E0
5.972606042E0,-3.318357375E-1,8.334779651E0,-2.023710812E0,8.583360195E0
5.982597042E0,1.133588296E0,9.416730309E0,-1.809269879E0,9.655738689E0
5.992588042E0,1.891772484E0,1.009735790E1,-1.579774266E0,1.039380231E1
6.002580042E0,2.248237461E0,9.990212356E0,-1.682655002E0,1.037739093E1
6.012571042E0,1.946662636E0,9.633553251E0,-1.610664668E0,9.959371684E0
6.022562042E0,1.270574087E0,9.138144981E0,-1.220517974E0,9.306434136E0
6.032553042E0,8.660975493E-1,8.801399154E0,-6.183617663E-1,8.865501864E0
6.042545042E0,1.099747682E0,8.166602034E0,9.574669451E-1,8.295756548E0
6.052536042E0,1.506637731E0,4.810325977E0,2.598364057E0,5.671039502E0
6.062527042E0,2.286691383E0,-2.955393875E0,3.469351852E0,5.098991342E0
6.072518042E0,2.391587654E0,-1.381594148E1,4.339359654E0,1.467753292E1
6.082510042E0,-1.674346548E0,-3.264846420E1,7.109782709E0,3.345556248E1
6.092501042E0,-8.729587744E0,-4.758930472E1,6.528533220E0,4.882181246E1
6.102492042E0,-5.794495987E0,-3.076930241E1,5.657173835E-1,3.131527088E1
6.112483042E0,2.326471745E0,-1.839478262E1,3.492775798E-2,1.854135158E1
6.122475042E0,2.055787176E0,-1.978383430E1,5.297042361E0,2.058361043E1
6.132466042E0,1.448153588E0,-2.380541124E1,7.960016397E0,2.514272487E1
6.142457042E0,3.327273575E0,-2.246093521E1,6.438227068E0,2.360116793E1
6.152448042E0,4.640075230E0,-1.865052463E1,3.827399086E0,1.959646271E1
6.162439042E0,5.096489296E0,-1.483936677E1,9.336736013E-1,1.571791194E1
6.172431042E0,4.638713414E0,-1.052935137E1,-1.160718500E0,1.156426261E1
6.182422042E0,3.495592986E0,-6.408731958E0,-2.778428478E0,7.810933391E0
6.192413042E0,1.452449099E0,-2.791487650E0,-2.156811567E0,3.814950566E0
6.202404042E0,-1.835551908E-1,9.212411052E-1,-3.026716165E-1,9.869081971E-1
6.212396042E0,-8.040728438E-1,4.613129799E0,5.136439812E-1,4.710767434E0
6.222387042E0,-1.117337349E0,8.076667764E0,7.771065816E-1,8.190537196E0
6.232378042E0,-4.346769684E-1,1.138952240E1,1.822336652E-1,1.139927075E1
6.242369042E0,1.200432204E0,1.423200128E1,-1.604118125E0,1.437233776E1
6.252361042E0,1.825330573E0,1.599861119E1,-2.542245989E0,1.630185285E1
6.262352042E0,1.687472523E0,1.642362892E1,-1.412332814E0,1.657039029E1
6.272343042E0,7.660125131E-1,1.584919495E1,-1.768980078E-1,1.586868137E1
6.282334042E0,-5.708659299E-1,1.461862151E1,-1.148809037E-1,1.463021464E1
6.292326042E0,-1.981961839E0,1.277453834E1,-1.157430611E0,1.297908502E1
6.302317042E0,-2.126984481E0,1.080492012E1,-1.878074797E0,1.117128133E1
6.312308042E0,-1.400800497E0,9.378673705E0,-1.814551231E0,9.654758344E0
6.322299042E0,-1.174358739E0,8.444835359E0,-1.410067018E0,8.641912501E0
6.332291042E0,-1.537999273E0,7.824893675E0,-7.224245171E-1,8.007265449E0
6.342282042E0,-2.113601228E0,7.207898988E0,-4.557999618E-1,7.525215716E0
6.352273042E0,-2.518803332E0,6.886414978E0,-4.022035061E-1,7.343626429E0
6.362264042E0,-2.263772636E0,7.135145591E0,-4.833021945E-1,7.501236576E0
6.372256042E0,-1.494622580E0,7.854116305E0,-6.034618914E-1,8.017805550E0
6.382247042E0,-9.202701750E-1,8.943492342E0,-8.407718696E-1,9.029941849E0
6.392238042E0,-3.349090706E-1,9.941817291E0,-1.204521162E0,1.002011808E1
6.402229042E0,9.483003382E-2,1.039162956E1,-1.557361450E0,1.050810793E1
6.412221042E0,1.178562960E-1,1.054517861E1,-1.743554777E0,1.068899739E1
6.422212042E0,4.434270708E-1,1.056370844E1,-1.572876306E0,1.068936403E1
6.432203042E0,8.120708115E-1,1.060673576E1,-1.345297557E0,1.072250567E1
6.442194042E0,8.934332094E-1,1.059304509E1,-1.403955508E0,1.072296219E1
6.452185042E0,3.181806251E-1,1.069467320E1,-1.563978744E0,1.081310794E1
6.462177042E0,-2.782476506E-1,1.010438392E1,-1.137166939E0,1.017197841E1
6.472168042E0,-5.722308163E-2,6.469968678E0,2.604436390E0,6.974729965E0
6.482159042E0,-9.084142144E-1,4.401854110E-1,6.547440192E0,6.624798310E0
6.492150042E0,-1.497617670E0,-7.406151758E0,6.975882640E0,1.028381647E1
6.502142042E0,-2.116026653E0,-2.328029151E1,8.024663213E0,2.471527385E1
6.512133042E0,-1.429826953E0,-4.735017699E1,6.497195653E0,4.781524043E1
6.522124042E0,2.697528741E0,-4.253078022E1,1.628374715E0,4.264733910E1
6.532115042E0,7.531121959E0,-2.166402521E1,-1.945795494E0,2.301812126E1
6.542107042E0,6.339751185E0,-1.891018193E1,1.816583723E-1,1.994543621E1
6.552098042E0,3.306343466E0,-2.307910987E1,6.302813739E0,2.415165999E1
6.562089042E0,2.291289341E0,-2.504731540E1,8.600901638E0,2.658182696E1
6.572080042E0,4.463744256E0,-2.122873976E1,8.054271759E0,2.313991569E1
6.582072042E0,4.537108979E0,-1.678461613E1,6.320953556E0,1.850035541E1
6.592063042E0,3.817361463E0,-1.285401369E1,1.125804191E0,1.345605260E1
6.602054042E0,1.692269141E0,-9.661039842E0,-6.184019367E0,1.159489376E1
6.612045042E0,-3.508170932E0,-6.767197852E0,-6.673486866E0,1.013102448E1
6.622037042E0,-7.753216751E0,-3.427741896E0,-2.010568464E0,8.712299929E0
6.632028042E0,-7.722137631E0,3.532706434E-1,2.756421897E0,8.206952626E0
6.642019042E0,-4.332104721E0,4.772649443E0,3.777006027E0,7.470681933E0
6.652010042E0,-1.514885814E0,8.944442514E0,6.704833350E-1,9.096564122E0
6.662002042E0,-4.226379168E-1,1.208050892E1,-1.592434804E0,1.219234051E1
6.671993042E0,4.510618534E-1,1.393396869E1,-2.506822972E0,1.416485446E1
6.681984042E0,1.408855621E0,1.511606052E1,-2.842084776E0,1.544531015E1
6.691975042E0,2.327434343E0,1.627136976E1,-2.368198938E0,1.660670921E1
6.701967042E0,2.715626459E0,1.724353953E1,-1.989997521E0,1.756913125E1
6.711958042E0,2.056870665E0,1.713974444E1,-1.925617923E0,1.736978873E1
6.721949042E0,1.838998439E0,1.517847136E1,-1.694980348E0,1.538313578E1
6.731940042E0,2.760457938E0,1.223530577E1,-1.985902131E0,1.269908038E1
6.741932042E0,3.571107730E0,1.002776201E1,-2.221735541E0,1.087404847E1
6.751923042E0,3.671133417E0,8.081848397E0,-1.933284938E0,9.084662059E0
6.761914042E0,2.687130053E0,6.528146135E0,-1.419487760E0,7.200854489E0
6.771905042E0,1.456429737E0,5.490509185E0,-1.040063617E0,5.774825627E0
6.781896042E0,-5.861687877E-1,4.972799635E0,-3.863787478E-1,5.022112961E0
6.791888042E0,-2.614812859E0,5.266512879E0,6.354239416E-1,5.914149793E0
6.801879042E0,-3.524904494E0,6.667252564E0,1.628300455E0,7.715476059E0
6.811870042E0,-3.492052790E0,8.809515674E0,2.292640048E0,9.749779356E0
6.821861042E0,-3.221921074E0,1.086169892E1,2.459562852E0,1.159339158E1
6.831853042E0,-3.262202251E0,1.205496477E1,1.595107566E0,1.259001618E1
6.841844042E0,-3.362555089E0,1.195819803E1,1.926577158E-1,1.242346143E1
6.851835042E0,-4.057195246E0,1.111413842E1,-4.399940608E-1,1.183970020E1
6.861826042E0,-4.793243337E0,1.039578108E1,-1.287192897E-1,1.144831929E1
6.871818042E0,-4.738110233E0,1.031662849E1,7.419818455E-1,1.137686464E1
6.881809042E0,-4.579505970E0,1.100410669E1,1.101119000E0,1.196974110E1
6.891800042E0,-3.045672546E0,1.135105240E1,8.423779535E-1,1.178270395E1
6.901790833E0,-1.910397913E0,8.972802680E0,1.808846395E-1,9.175703099E0
6.911782833E0,-8.893759726E-1,4.216216707E0,2.974829435E-2,4.309101751E0
6.921773833E0,8.867312770E-1,-1.358432157E0,1.005355057E0,1.908499168E0
6.931764833E0,1.837410920E0,-1.039795858E1,2.386641494E0,1.082541820E1
6.941755833E0,6.358547352E-1,-2.803695934E1,4.137880390E0,2.834779453E1
6.951747833E0,-1.882932956E0,-4.974908843E1,4.504722421E0,4.998809618E1
6.961738833E0,7.075766824E-1,-4.471434105E1,7.719220747E-1,4.472660085E1
6.971729833E0,6.754946766E0,-2.498399006E1,-2.610001770E0,2.601232735E1
6.981720833E0,5.919974896E0,-2.035031256E1,-1.156935936E-1,2.119421404E1
6.991712833E0,5.082962347E0,-2.280573850E1,8.768268245E-1,2.338176726E1
7.001703833E0,5.886793116E0,-2.458266290E1,3.682437254E0,2.554451003E1
7.011694833E0,6.945542607E0,-2.118671700E1,5.457181225E0,2.295426684E1
7.021685833E0,5.580107825E0,-1.645372805E1,4.357618169E0,1.791233112E1
7.031677833E0,3.454963608E0,-1.192205405E1,2.234863125E0,1.261216713E1
7.041668833E0,1.750978840E0,-7.870913016E0,-1.492443323E-2,8.063338102E0
7.051659833E0,2.753939901E-1,-4.348676022E0,-1.565458821E0,4.630063317E0
7.061650833E0,-8.933514214E-1,-1.105579841E0,-1.445406566E0,2.027210815E0
7.071641833E0,-1.492291880E0,2.269761647E0,-9.301376438E-1,2.871220825E0
7.081633833E0,-8.606282830E-1,5.662759972E0,-1.054324391E0,5.824013347E0
7.091624833E0,9.605995908E-1,9.194608619E0,-9.847488838E-1,9.296951629E0
7.101615833E0,2.735525703E0,1.272540418E1,-1.876646322E-1,1.301745868E1
7.111606833E0,3.391408175E0,1.580166059E1,7.850389874E-1,1.618055664E1
7.121598833E0,3.268706986E0,1.816046598E1,1.334317655E0,1.850046955E1
7.131589833E0,3.316059200E0,1.958578209E1,1.368113392E0,1.991157561E1
7.141580833E0,2.932838533E0,1.967761145E1,9.058581772E-1,1.991558468E1
7.151571833E0,6.959171882E-1,1.798109094E1,-1.269002210E-1,1.799500030E1
7.161563833E0,-2.433535579E0,1.489423119E1,-9.442599852E-1,1.512123822E1
7.171554833E0,-5.240493938E0,1.191887668E1,-2.501026627E0,1.325811194E1
7.181545833E0,-5.231251245E0,9.476728004E0,-4.502191161E0,1.172365508E1
7.191536833E0,-4.193092723E0,7.467228264E0,-4.736056983E0,9.786304731E0
7.201528833E0,-3.874801878E0,5.914417702E0,-3.472260257E0,7.877246831E0
7.211519833E0,-3.477346750E0,4.857193750E0,-1.567411644E0,6.175844137E0
7.221510833E0,-2.594960393E0,4.397831810E0,-1.509278919E-1,5.108573509E0
7.231501833E0,-1.116527144E0,4.874745921E0,1.446868663E-1,5.003070552E0
7.241493833E0,2.787040988E-1,6.173259906E0,-8.733915854E-1,6.240963603E0
7.251484833E0,1.230150093E0,7.784341480E0,-2.366008571E0,8.228440805E0
7.261475833E0,2.021910162E0,9.233315433E0,-3.221096032E0,9.985874735E0
7.271466833E0,1.723325896E0,9.978535466E0,-3.517850413E0,1.071990176E1
7.281458833E0,9.694019893E-1,1.022351626E1,-3.158920249E0,1.074424507E1
7.291449833E0,4.830271561E-1,1.011926625E1,-1.804919112E0,1.029031573E1
7.301440833E0,2.015711383E-1,1.004026569E1,-4.415890351E-2,1.004238598E1
7.311431833E0,2.531164639E-2,1.030730335E1,1.434096297E0,1.040662170E1
7.321423833E0,4.156752717E-1,9.304211168E0,2.461060908E0,9.633169374E0
7.331414833E0,1.453807846E0,5.386581944E0,3.053321289E0,6.360156695E0
7.341405833E0,2.584322553E0,-1.118738415E0,3.484976782E0,4.480553746E0
7.351396833E0,3.611526901E0,-1.102278971E1,4.631723360E0,1.248991116E1
7.361388833E0,6.238091786E-1,-3.246137201E1,6.004665383E0,3.301796204E1
7.371379833E0,-7.909659591E0,-5.686680581E1,6.216964334E0,5.774986548E1
7.381370833E0,-4.530005781E0,-4.108173260E1,-2.085946968E0,4.138334061E1
7.391361833E0,6.515217356E0,-2.224050922E1,-3.405958094E0,2.342410848E1
7.401353833E0,8.806780931E0,-1.907909279E1,1.017107229E0,2.103819572E1
7.411344833E0,1.040096873E1,-1.968597296E1,4.084370765E0,2.263624895E1
7.421335833E0,9.191808972E0,-2.045336622E1,4.359272346E0,2.284365990E1
7.431326833E0,5.721598749E0,-1.809858489E1,2.397769331E0,1.913229639E1
7.441317833E0,1.296404893E0,-1.434917246E1,1.493468925E0,1.448481499E1
7.451309833E0,-1.980806137E0,-1.059149908E1,1.536249347E0,1.088409426E1
7.461300833E0,-6.115702254E-1,-6.008173127E0,2.101029276E0,6.394254177E0
7.471291833E0,6.420818737E-1,-2.101232028E0,1.260091345E0,2.532839388E0
7.481282833E0,-7.107318400E-1,8.616234791E-1,-1.390678382E-1,1.125555255E0
7.491274833E0,-1.728716736E0,3.824442149E0,-1.186690078E0,4.361542462E0
7.501265833E0,-6.083265190E-1,7.030295075E0,-1.112180763E0,7.143672448E0
7.511256833E0,7.564304616E-1,1.005672210E1,-5.756672249E-1,1.010154637E1
7.521247833E0,1.979832721E0,1.294016774E1,-4.773520678E-1,1.309944822E1
7.531239833E0,2.419934517E0,1.561637285E1,-9.221538556E-1,1.582964156E1
7.541230833E0,2.049167543E0,1.746120330E1,-1.165198710E0,1.761960262E1
7.551221833E0,2.095982252E0,1.895741925E1,-9.377075223E-1,1.909597292E1
7.561212833E0,2.123008375E0,1.971751986E1,-6.207538623E-1,1.984119677E1
7.571204833E0,9.372504893E-1,1.796069351E1,-6.095289624E-1,1.799545708E1
7.581195833E0,-7.382117070E-1,1.382073152E1,-4.770484512E-1,1.384865161E1
7.591186833E0,-1.348280221E0,1.085538393E1,-1.056838694E0,1.098972828E1
7.601177833E0,-1.228986205E0,8.893154832E0,-1.624224361E0,9.123415738E0
7.611169833E0,-1.401945089E0,7.206491563E0,-1.631882021E0,7.520771876E0
7.621160833E0,-1.811804793E0,5.823435611E0,-1.483133825E0,6.276521717E0
7.631151833E0,-1.893878505E0,4.851834776E0,-1.110373242E0,5.325411273E0
7.641142833E0,-1.720630622E0,4.496559708E0,-6.313139337E-1,4.855736424E0
7.651134833E0,-1.585396218E0,4.931275633E0,-4.710616332E-1,5.201236353E0
7.661125833E0,-1.440970868E0,6.331820607E0,-5.800426233E-1,6.519570437E0
7.671116833E0,-1.539384624E0,7.975843055E0,-7.059344188E-1,8.153656901E0
7.681107833E0,-1.424228244E0,9.289189671E0,-9.224321830E-1,9.442899553E0
7.691099833E0,-9.878461540E-1,1.018859318E1,-1.155895717E0,1.030142543E1
7.701090833E0,-8.378629529E-1,1.070052627E1,-1.434369801E0,1.082869768E1
7.711081833E0,-1.296831594E0,1.115959935E1,-1.615892810E0,1.135031010E1
7.721072833E0,-2.343799969E0,1.142365727E1,-1.321543389E0,1.173626093E1
7.731064833E0,-2.820734838E0,1.151072816E1,-3.157571004E-1,1.185550971E1
7.741055833E0,-2.280926028E0,1.225319591E1,7.700486268E-1,1.248745004E1
7.751046833E0,-8.487631130E-1,1.000232311E1,2.217516044E0,1.028028423E1
7.761037833E0,1.373412431E0,4.711704499E0,3.667951362E0,6.127012991E0
7.771029833E0,3.752906143E0,-2.636348739E0,4.896460142E0,6.708946349E0
7.781020833E0,6.430509328E0,-1.713939828E1,7.339246162E0,1.972244807E1
7.791011833E0,3.777964678E0,-4.745777043E1,9.504775343E0,4.854743810E1
7.801002833E0,-6.186185760E0,-6.653273509E1,3.264793444E0,6.689942159E1
7.810993833E0,-1.416167272E0,-3.986800967E1,-2.457366638E0,3.996876750E1
7.820985833E0,8.722920749E0,-2.267056491E1,1.581680020E0,2.434225896E1
7.830976833E0,9.156454952E0,-1.904937022E1,4.682561392E0,2.164822289E1
7.840967833E0,6.422676398E0,-1.888088271E1,1.301527785E0,1.998580692E1
7.850958833E0,4.365001741E0,-1.873278326E1,-2.332848572E0,1.937556686E1
7.860950833E0,-1.261307274E-1,-1.559728052E1,-1.489908555E0,1.566878732E1
7.870941833E0,-2.472779021E0,-1.076237344E1,1.528864460E0,1.114812740E1
7.880932833E0,-2.129490452E0,-5.564095809E0,2.765155299E0,6.568102891E0
7.890923833E0,-1.608768416E0,-1.067007514E0,2.164008905E0,2.899926790E0
7.900916083E0,-1.055792262E0,2.551235499E0,1.129735274E0,2.983253536E0
7.910907083E0,-6.595408557E-1,5.961517024E0,3.837271817E-1,6.010151905E0
7.920898083E0,-2.194895835E-1,9.379346135E0,-5.116341470E-1,9.395854357E0
7.930889083E0,1.438755358E0,1.278812259E1,-2.820082288E0,1.317417779E1
7.940881083E0,2.483994273E0,1.556646570E1,-4.623691040E0,1.642752570E1
7.950872083E0,2.944080682E0,1.731294949E1,-3.406190813E0,1.788876650E1
7.960863083E0,3.187999622E0,1.842585823E1,-1.471685854E0,1.875743726E1
7.970854083E0,3.083913921E0,1.860192023E1,-3.696377309E-1,1.885944308E1
7.980846083E0,2.850615571E0,1.549156169E1,-9.155793925E-1,1.577823750E1
7.990837083E0,2.312491052E0,1.079846245E1,-1.131073117E0,1.110106898E1
8.000828083E0,1.966092934E0,8.169069559E0,-1.196294276E0,8.487068922E0
8.010819083E0,1.591285680E0,7.375867274E0,-1.028399664E0,7.615327572E0
8.020811083E0,4.604696579E-1,7.523769670E0,-3.637361361E-1,7.546618205E0
8.030802083E0,-6.817214642E-1,7.455519215E0,-8.315047637E-2,7.487083873E0
8.040793083E0,-1.930588056E0,7.491097768E0,-3.912086941E-1,7.745757565E0
8.050784083E0,-2.851934996E0,7.908653870E0,-1.047676034E0,8.472187694E0
8.060776083E0,-3.045788029E0,8.329921199E0,-1.450615412E0,8.987140645E0
8.070767083E0,-2.846363769E0,8.838230181E0,-1.367257506E0,9.385387180E0
8.080758083E0,-2.416861221E0,9.618107246E0,-1.065977819E0,9.974242521E0
8.090749083E0,-1.688548119E0,1.058004322E1,-7.597334075E-1,1.074084280E1
8.100741083E0,-1.210441468E0,1.111621886E1,-7.259756774E-1,1.120546880E1
8.110732083E0,-1.158806241E0,1.103814333E1,-1.167185521E0,1.116000726E1
8.120723083E0,-9.698925707E-1,1.076978537E1,-1.777312653E0,1.095845832E1
8.130714083E0,-5.664070626E-1,1.032477015E1,-1.823457125E0,1.049984246E1
8.140706083E0,-1.074117436E-1,9.695907959E0,-1.064793758E0,9.754791344E0
8.150697083E0,-1.255088029E-1,9.323426873E0,8.274102509E-3,9.324275284E0
8.160688083E0,-1.099255712E0,8.875386313E0,5.093413076E-1,8.957693558E0
8.170679083E0,-2.464073102E0,7.734858833E0,-1.464151570E-1,8.119183137E0
8.180671083E0,-2.524123714E0,4.985589250E0,-1.369710267E-3,5.588139455E0
8.190662083E0,-9.227156268E-1,8.254227823E-1,-7.663825688E-1,1.456045720E0
8.200653083E0,1.589919770E0,-4.630486089E0,-1.402673652E0,5.092812550E0
8.210644083E0,4.046257736E0,-1.134612319E1,1.058413276E-1,1.204648976E1
8.220635083E0,4.459841824E0,-2.314235101E1,2.337864752E0,2.368383861E1
8.230627083E0,3.056660049E0,-3.961836631E1,5.739323999E0,4.014844903E1
8.240618083E0,1.708864270E0,-4.843576169E1,9.261872064E0,4.934293771E1
8.250609083E0,2.877874998E0,-3.745900828E1,8.523593845E0,3.852416278E1
8.260600083E0,3.519769469E0,-2.445503222E1,6.074059553E0,2.544271167E1
8.270592083E0,2.028188172E0,-1.932352746E1,5.633240304E0,2.022982098E1
8.280583083E0,1.082820577E0,-1.783476086E1,4.847119874E0,1.851339424E1
8.290574083E0,2.827830434E0,-1.749493706E1,5.012394640E0,1.841720792E1
8.300565083E0,5.039975957E0,-1.580056131E1,4.971936586E0,1.731413437E1
8.310557083E0,6.371569979E0,-1.258529437E1,4.542217106E0,1.481952343E1
8.320548083E0,6.406878390E0,-8.715559689E0,3.412924467E0,1.134271241E1
8.330539083E0,5.006297164E0,-4.824244689E0,2.197705824E0,7.291519664E0
8.340530083E0,2.211787966E0,-1.428975890E0,1.770386041E0,3.173049769E0
8.350522083E0,3.783489858E-1,1.465848432E0,8.413728172E-1,1.731983776E0
8.360513083E0,-1.010862841E0,4.393047618E0,-1.166811299E0,4.656410599E0
8.370504083E0,-1.624520961E0,7.875455718E0,-3.446519937E0,8.748735383E0
8.380495083E0,-1.115927001E0,1.147626935E1,-4.478802591E0,1.236970994E1
8.390487083E0,-1.064332997E0,1.398307361E1,-2.607947643E0,1.426395959E1
8.400478083E0,-1.281939320E0,1.564332501E1,-1.277162876E0,1.574763889E1
8.410469083E0,-1.109205480E0,1.689832927E1,-1.270633290E0,1.698229602E1
8.420460083E0,-4.084561531E-1,1.759757090E1,-6.293540932E-1,1.761355797E1
8.430452083E0,-8.957566005E-1,1.675614370E1,-3.677255452E-2,1.678010977E1
8.440443083E0,-2.046724576E0,1.482668884E1,-5.229552336E-1,1.497642366E1
8.450434083E0,-2.322304727E0,1.284597026E1,-1.297555187E0,1.311852509E1
8.460425083E0,-2.113542463E0,1.082382767E1,-2.390330795E0,1.128432490E1
8.470417083E0,-1.750273958E0,9.334630723E0,-3.371318896E0,1.007792542E1
8.480408083E0,-1.218632101E0,8.144856824E0,-3.667084805E0,9.015057839E0
8.490399083E0,-5.137398025E-1,7.018536324E0,-3.257097339E0,7.754512479E0
8.500390083E0,-2.380766943E-3,6.112821915E0,-2.477512342E0,6.595806610E0
8.510382083E0,3.797510751E-1,5.743826939E0,-1.862941910E0,6.050314979E0
8.520373083E0,6.362339272E-1,6.207782452E0,-1.789950240E0,6.491939497E0
8.530364083E0,1.029245830E0,7.137287427E0,-1.525642352E0,7.370739676E0
8.540355083E0,1.141510908E0,7.964404732E0,-1.155753922E0,8.128379729E0
8.550347083E0,2.586466143E-1,8.465047429E0,-1.689974547E0,8.635967810E0
8.560338083E0,-1.301914725E0,8.600292943E0,-2.471836742E0,9.042676458E0
8.570329083E0,-3.111544646E0,8.587022687E0,-2.732654428E0,9.533418533E0
8.580320083E0,-5.493863733E0,8.388882183E0,-2.145305562E0,1.025466815E1
8.590312083E0,-7.269607578E0,8.509027846E0,-1.243560974E0,1.126042597E1
8.600303083E0,-6.233687371E0,9.995504086E0,-2.142943141E-1,1.178197276E1
8.610294083E0,-3.185736750E0,1.047566223E1,7.320415789E-1,1.097380074E1
8.620285083E0,-7.283110553E-1,7.512617860E0,1.446942630E0,7.685278595E0
8.630277083E0,1.613395610E0,3.059612893E0,2.352101553E0,4.182900688E0
8.640268083E0,4.127221793E0,-3.314239839E0,3.471911763E0,6.330269878E0
8.650259083E0,5.296089849E0,-1.575828478E1,4.526599486E0,1.722968977E1
8.660250083E0,2.126092635E0,-3.785475485E1,7.842705463E0,3.871706037E1
8.670242083E0,-3.247773954E0,-5.957647571E1,1.024307286E1,6.053779840E1
8.680233083E0,-2.766679668E0,-4.791302997E1,7.976827142E0,4.865123563E1
8.690224083E0,8.919316444E0,-2.564175738E1,3.137270933E-1,2.715054975E1
8.700215083E0,1.364222538E1,-1.847735817E1,3.540251096E0,2.323911478E1
8.710207083E0,1.488732563E1,-1.466398070E1,5.802640573E0,2.168721818E1
8.720198083E0,1.274651146E1,-1.333226448E1,9.652740012E-1,1.847037045E1
8.730189083E0,5.211280079E0,-1.387824473E1,-2.810413917E0,1.508845728E1
8.740180083E0,-1.716394168E0,-1.284081068E1,-1.381833299E0,1.302850303E1
8.750172083E0,-5.491319609E0,-9.550691189E0,1.504591352E0,1.111908667E1
8.760163083E0,-6.179945612E0,-4.999300970E0,1.877327523E0,8.167563687E0
8.770154083E0,-5.196977205E0,-5.650123554E-1,1.874987028E0,5.553682327E0
8.780145083E0,-3.549753406E0,3.547267755E0,2.363935733E0,5.547256071E0
8.790137083E0,-2.206865779E0,7.278159131E0,1.430685031E0,7.738780043E0
8.800128083E0,-8.782598309E-1,1.101093740E1,-8.074268067E-1,1.107537904E1
8.810119083E0,6.760442564E-1,1.467499803E1,-2.121069292E0,1.484289520E1
8.820110083E0,2.134065313E0,1.775429733E1,-1.975670089E0,1.799090272E1
8.830102083E0,2.934539488E0,1.999719687E1,-1.488663098E0,2.026611759E1
8.840093083E0,3.208443827E0,2.090907950E1,-1.765710023E0,2.122737500E1
8.850084083E0,2.562208968E0,2.034247027E1,-2.978238947E0,2.071837153E1
8.860075083E0,5.759378413E-1,1.758318090E1,-3.817262353E0,1.800198452E1
8.870067083E0,-5.571993790E-1,1.351504142E1,-2.678246378E0,1.378911960E1
8.880058083E0,-5.102187554E-1,1.045660031E1,-1.449136651E0,1.056886040E1
8.890049083E0,-6.219573654E-2,8.643160635E0,-1.285793805E0,8.738498714E0
8.900040542E0,-1.611523332E-1,7.550507233E0,-1.188612058E0,7.645189872E0
8.910032542E0,-6.252440123E-1,6.537216336E0,-9.579540181E-1,6.636550564E0
8.920023542E0,-1.149000680E0,5.479042211E0,-1.153737655E0,5.715874096E0
8.930014542E0,-1.846086434E0,4.884445868E0,-1.331603816E0,5.388786067E0
8.940005542E0,-2.476201104E0,4.965704039E0,-1.337050205E0,5.707669556E0
8.949997542E0,-2.526532182E0,5.968843001E0,-1.412055364E0,6.633577616E0
8.959988542E0,-1.904979005E0,7.733331540E0,-1.871744163E0,8.181490569E0
8.969979542E0,-1.253437652E0,9.587216991E0,-2.332004819E0,9.946058619E0
8.979970542E0,-8.323870354E-1,1.089607587E1,-1.980408087E0,1.110582521E1
8.989962542E0,-8.747592491E-1,1.128271950E1,-1.391217641E0,1.140177396E1
8.999953542E0,-1.587943265E0,1.131459968E1,-1.150737303E0,1.148328900E1
9.009944542E0,-1.865713344E0,1.088013753E1,-8.492504784E-1,1.107156291E1
9.019935542E0,-1.228837978E0,1.013170913E1,-8.684430867E-2,1.020632718E1
9.029927542E0,-2.179030694E-1,9.103485026E0,1.165361482E0,9.180358857E0
9.039918542E0,1.027588509E0,5.904881478E0,1.799783503E0,6.258017583E0
9.049909542E0,2.412641139E0,-7.989284635E-2,1.610627246E0,2.901954558E0
9.059900542E0,3.642968549E0,-8.521734431E0,2.040263987E0,9.489670948E0
9.069892542E0,3.135522616E0,-2.607939808E1,3.881036180E0,2.655238121E1
9.079883542E0,-3.137057510E0,-5.106222805E1,7.359924256E0,5.168520822E1
9.089874542E0,-6.929426512E0,-4.736651177E1,3.106101766E0,4.797135872E1
9.099865542E0,1.195911429E0,-2.529241197E1,-1.846093597E0,2.538787839E1
9.109856542E0,6.677778722E0,-1.868687092E1,2.256768988E0,1.997210254E1
9.119848542E0,9.087806886E0,-1.697388816E1,5.903058316E0,2.013820277E1
9.129839542E0,9.919296155E0,-1.917893751E1,7.921423019E0,2.299941353E1
9.139830542E0,1.044824347E1,-1.878518834E1,8.553183680E0,2.313452061E1
9.149821542E0,8.259211990E0,-1.550397884E1,3.695512798E0,1.795117705E1
9.159813542E0,4.428540217E0,-1.228256531E1,-4.250455078E-1,1.306346212E1
9.169804542E0,-1.392951779E0,-1.049651691E1,-1.440818256E-1,1.058952036E1
9.179795542E0,-3.136741468E0,-8.122755518E0,-2.932320178E-1,8.712306770E0
9.189786542E0,-4.610287979E-1,-3.812246026E0,1.081178095E0,3.989324929E0
9.199778542E0,9.322077043E-1,6.963425732E-1,5.173680729E-1,1.273410345E0
9.209769542E0,5.663977070E-1,4.180594885E0,-2.061898978E0,4.695700943E0
9.219760542E0,-5.270525603E-1,7.090754700E0,-2.777595835E0,7.633585346E0
9.229751542E0,-2.223766279E-1,9.557019045E0,-1.068436719E0,9.619127893E0
9.239743542E0,1.127304075E0,1.194794786E1,2.489130467E-1,1.200359239E1
9.249734542E0,1.495213734E0,1.438784361E1,6.217530783E-1,1.447868380E1
9.259725542E0,1.768037800E0,1.650592731E1,1.076495206E0,1.663521674E1
9.269716542E0,1.403841926E0,1.813949552E1,1.205922666E0,1.823365897E1
9.279708542E0,4.621806263E-1,1.849973780E1,-5.709157044E-1,1.851431485E1
9.289699542E0,-6.748389991E-1,1.636200161E1,-2.823684173E0,1.661757192E1
9.299690542E0,-1.290335484E0,1.266164497E1,-2.954724954E0,1.306570391E1
9.309681542E0,-1.082226062E0,1.008458057E1,-2.895719531E0,1.054775664E1
9.319673542E0,-1.154206529E0,8.739960705E0,-2.710223047E0,9.223037179E0
9.329664542E0,-2.042710170E0,7.673643163E0,-1.870623836E0,8.158228838E0
9.339655542E0,-3.203431301E0,6.996686448E0,-8.990257788E-1,7.747505451E0
9.349646542E0,-3.780717547E0,6.834360141E0,-2.606917510E-1,7.814746566E0
9.359638542E0,-3.712049601E0,6.972519906E0,1.251706146E-2,7.899082400E0
9.369629542E0,-3.204591097E0,7.436015827E0,1.484742540E-1,8.098504805E0
9.379620542E0,-2.333930453E0,8.252532715E0,2.246225435E-1,8.579159799E0
9.389611542E0,-1.093218023E0,8.963932453E0,5.019672377E-1,9.044290010E0
9.399603542E0,2.227576106E-1,9.586333476E0,6.718800887E-1,9.612431187E0
9.409594542E0,1.248358322E0,9.919104366E0,3.582121253E-2,9.997415320E0
9.419585542E0,1.672043037E0,9.839668772E0,-8.886362998E-1,1.002020379E1
9.429576542E0,1.705519370E0,9.831441740E0,-1.561009967E0,1.009964332E1
9.439568542E0,1.085312588E0,1.028599376E1,-2.100583572E0,1.055424191E1
9.449559542E0,-4.472973794E-1,1.115625942E1,-1.520011045E0,1.126821338E1
9.459550542E0,-1.839820265E0,1.112550190E1,1.902780452E0,1.143600912E1
9.469541542E0,-1.600748960E0,7.695539816E0,4.061118143E0,8.847395711E0
9.479533542E0,-1.083469326E-1,8.613983613E-1,2.418297151E0,2.569417697E0
9.489524542E0,1.381407768E0,-9.464566965E0,-9.195974529E-2,9.565289951E0
9.499515542E0,2.190037785E0,-2.849914432E1,5.370945320E0,2.908340671E1
9.509506542E0,6.097311299E-1,-5.425006921E1,8.754188150E0,5.495523262E1
9.519498542E0,6.245870776E-1,-4.376913162E1,2.505048342E0,4.384520794E1
9.529489542E0,4.759765396E0,-1.988523204E1,-6.210884692E-1,2.045638215E1
9.539480542E0,9.258185395E0,-1.650143899E1,2.182194915E0,1.904661282E1
9.549471542E0,1.009759296E1,-2.076646591E1,3.245095344E0,2.331819320E1
9.559463542E0,9.723935418E0,-2.112154393E1,2.690807367E0,2.340758386E1
9.569454542E0,8.133213848E0,-1.678953130E1,1.232524062E0,1.869643400E1
9.579445542E0,5.037766879E0,-1.233106679E1,5.982039289E-1,1.333387233E1
9.589436542E0,1.732731727E0,-8.973487388E0,7.238741881E-1,9.167869381E0
9.599428542E0,-5.288323066E-1,-5.713539532E0,4.046230839E-1,5.752209787E0
9.609419542E0,-2.896850675E0,-2.511894847E0,7.876379286E-1,3.914298540E0
9.619410542E0,-5.043312963E0,6.850738192E-1,2.428653739E0,5.639387446E0
9.629401542E0,-6.390126702E0,3.623926506E0,3.179113609E0,8.004581559E0
9.639393542E0,-6.076471530E0,6.716006649E0,2.076081984E0,9.291844163E0
9.649384542E0,-3.997199597E0,9.917595785E0,6.953081276E-1,1.071539846E1
9.659375542E0,-2.519265262E0,1.270523012E1,-6.354227722E-1,1.296816610E1
9.669366542E0,-1.189830252E0,1.486223757E1,-1.183826185E0,1.495671241E1
9.679358542E0,2.676526785E-1,1.643530113E1,-1.088015463E0,1.647344951E1
9.689349542E0,1.453060572E0,1.733486485E1,-9.912925760E-1,1.742387975E1
9.699340542E0,2.625114776E0,1.679611995E1,-1.378405222E0,1.705581642E1
9.709331542E0,3.088139704E0,1.412964460E1,-1.818539032E0,1.457705551E1
9.719323542E0,2.587350242E0,1.139183088E1,-1.624017370E0,1.179430475E1
9.729314542E0,1.725625459E0,9.589226094E0,-1.140617673E0,9.809793524E0
9.739305542E0,3.619064692E-1,8.126314718E0,-6.073473662E-1,8.157011586E0
9.749296542E0,-1.405320102E0,7.075660113E0,-2.410731000E-1,7.217894905E0
9.759288542E0,-2.903401311E0,6.158571700E0,-1.366282336E-1,6.810022895E0
9.769279542E0,-3.775233736E0,5.767607566E0,-3.932169203E-1,6.904513476E0
9.779270542E0,-3.872272958E0,6.389075958E0,-7.203273401E-1,7.505575323E0
9.789261542E0,-3.554380600E0,7.441294693E0,-9.246143639E-1,8.298276923E0
9.799253542E0,-3.066433670E0,8.648602054E0,-8.382908960E-1,9.214340159E0
9.809244542E0,-2.426201271E0,9.884984694E0,-5.798297846E-1,1.019487997E1
9.819235542E0,-1.403418003E0,1.080011838E1,-4.765036368E-1,1.090133913E1
9.829226542E0,-3.394403704E-2,1.125219703E1,-1.152361659E0,1.131110196E1
9.839218542E0,1.123572016E0,1.150259585E1,-2.154929933E0,1.175652366E1
9.849209542E0,1.870269349E0,1.148964778E1,-2.931434324E0,1.200430009E1
9.859200542E0,1.706764827E0,1.148007004E1,-2.271440383E0,1.182643208E1
9.869191542E0,1.242859893E0,1.049918675E1,-7.889512132E-1,1.060188979E1
9.879183542E0,1.535100954E0,7.577053592E0,8.616796124E-1,7.778866745E0
9.889174542E0,2.495077670E0,3.678614345E0,3.632672186E0,5.740550783E0
9.899165292E0,2.572360612E0,-1.461701587E0,4.331143731E0,5.245227990E0
9.909156292E0,3.461842858E0,-1.079605457E1,3.673920200E0,1.191792095E1
9.919148292E0,3.655645020E0,-2.956026193E1,6.340031852E0,3.045273107E1
9.929139292E0,1.102896992E0,-5.116318374E1,6.372853442E0,5.157035013E1
9.939130292E0,-1.444996676E0,-3.755606036E1,-1.796801715E0,3.762677480E1
9.949121292E0,8.398683286E-1,-2.398878694E1,-7.314236451E0,2.509313317E1
9.959113292E0,-1.447884616E-1,-2.209276177E1,-1.219611071E0,2.212687365E1
9.969104292E0,-5.978109083E0,-1.865378270E1,5.472701490E0,2.033843304E1
9.979095292E0,-1.097899670E0,-1.827523980E1,4.940658660E0,1.896311898E1
9.989086292E0,7.513659834E0,-2.134428075E1,6.522318799E0,2.354939590E1
9.999078292E0,1.033088634E1,-2.074789983E1,7.609688657E0,2.439487490E1
1.000906929E1,6.615728070E0,-1.602097795E1,5.323056623E-2,1.733327511E1
1.001906029E1,5.166508753E-1,-1.002069623E1,-7.670764579E0,1.263019835E1
1.002905129E1,-2.338580744E0,-4.053164175E0,-7.059013090E0,8.469165574E0
1.003904329E1,-2.372152386E0,4.133314884E-1,-3.008379005E0,3.853348427E0
1.004903429E1,-2.874987643E0,3.594224405E0,7.735421920E-1,4.667158723E0
1.005902529E1,-3.934294082E0,5.625904387E0,3.277964298E0,7.607530482E0
1.006901629E1,-3.004384772E0,7.894281414E0,3.321034303E0,9.076082621E0
1.007900829E1,-3.717264294E-1,1.086221113E1,3.483909080E0,1.141330074E1
1.008899929E1,1.721038903E0,1.408178864E1,2.911434508E0,1.448223730E1
1.009899029E1,2.783625776E0,1.679697832E1,5.079606338E-1,1.703364544E1
1.010898129E1,3.490633963E0,1.865691914E1,-1.713251728E0,1.905781700E1
1.011897329E1,2.638660436E0,1.882596683E1,-2.004918446E0,1.911541927E1
1.012896429E1,1.023784018E0,1.626542314E1,-1.625183889E0,1.637844151E1
1.013895529E1,2.637831008E-1,1.288371755E1,-1.226940556E0,1.294469553E1
1.014894629E1,-2.258326613E-1,1.080090425E1,-1.175429364E0,1.086702200E1
1.015893829E1,-1.014993607E0,8.900343398E0,-1.205807988E0,9.038821690E0
1.016892929E1,-1.989907035E0,7.158071355E0,-1.322929618E0,7.546380477E0
1.017892029E1,-2.086389602E0,5.930375338E0,-1.270643815E0,6.413806119E0
1.018891129E1,-2.181030296E0,5.298900606E0,-1.308881828E0,5.877789757E0
1.019890329E1,-2.037183090E0,5.507097736E0,-1.554925500E0,6.074210543E0
1.020889429E1,-1.724792670E0,6.630687586E0,-1.763403735E0,7.074639238E0
1.021888529E1,-1.457893588E0,8.141930292E0,-1.813976449E0,8.467998179E0
1.022887629E1,-1.088487187E0,9.514299288E0,-1.537760706E0,9.699041359E0
1.023886829E1,-5.733003816E-1,1.047596512E1,-1.038220502E0,1.054288482E1
1.024885929E1,-2.226942779E-1,1.075083454E1,-7.465467668E-1,1.077902445E1
1.025885029E1,-4.838655006E-1,1.033894147E1,-6.075368160E-1,1.036807299E1
1.026884129E1,-9.668338922E-1,9.967498262E0,-4.866304296E-1,1.002609588E1
1.027883329E1,-1.068310054E0,9.669089119E0,-3.752678686E-1,9.735162903E0
1.028882429E1,-1.043334769E0,9.752230094E0,1.361828220E-1,9.808826893E0
1.029881529E1,-1.087989808E0,1.013141092E1,1.529591123E0,1.030382735E1
1.030880629E1,-3.482396259E-1,8.759458246E0,3.062963347E0,9.286071509E0
1.031879829E1,1.386363429E0,3.848205233E0,3.745673137E0,5.546237853E0
1.032878929E1,2.225806373E0,-3.502989129E0,4.671447589E0,6.248805440E0
1.033878029E1,1.492070125E0,-1.776305061E1,5.023914825E0,1.852004213E1
1.034877129E1,-3.576905829E0,-4.910323305E1,6.369268515E0,4.964362328E1
1.035876329E1,-6.280286756E0,-6.261115256E1,1.551327855E0,6.294446000E1
1.036875429E1,1.298799328E0,-3.158310619E1,-9.343769336E0,3.296187952E1
1.037874529E1,6.241820848E0,-2.034602772E1,-9.585844649E0,2.334115655E1
1.038873629E1,6.332255639E0,-2.087050893E1,-2.451884142E0,2.194737661E1
1.039872829E1,8.732317809E0,-2.135481275E1,4.832419682E0,2.357188329E1
1.040871929E1,8.411940678E0,-1.763989889E1,7.674169997E0,2.099570585E1
1.041871029E1,5.390145237E0,-1.358856431E1,4.792227675E0,1.538402391E1
1.042870229E1,1.413944599E0,-9.005044811E0,3.895242575E0,9.912768841E0
1.043869329E1,-1.266182682E0,-4.249990225E0,1.453658742E0,4.666771821E0
1.044868429E1,-2.565405641E0,-1.909601229E-1,-8.777022258E-1,2.718112041E0
1.045867529E1,-3.463395878E0,3.278271276E0,-8.637284037E-1,4.846462661E0
1.046866629E1,-3.033069750E0,6.569007647E0,1.506255177E-1,7.236992581E0
1.047865829E1,-1.788826113E0,9.445082288E0,-1.592196091E-1,9.614303364E0
1.048864929E1,-1.675564669E0,1.142158619E1,-1.283543943E0,1.161497452E1
1.049864029E1,-1.735755907E0,1.284625210E1,-5.392892113E-1,1.297420034E1
1.050863129E1,-1.474284210E0,1.421822407E1,5.717232779E-1,1.430588260E1
1.051862329E1,-7.614310735E-1,1.546976327E1,1.233493531E-1,1.548898215E1
1.052861429E1,5.287499340E-1,1.628789049E1,-3.480544154E-1,1.630018696E1
1.053860529E1,1.058045632E0,1.608397820E1,-1.130156419E-1,1.611913731E1
1.054859629E1,8.938753320E-1,1.431300509E1,1.090752764E-1,1.434130487E1
1.055858829E1,7.891875869E-1,1.201576387E1,-3.370802879E-2,1.204169983E1
1.056857929E1,5.007778044E-1,1.012772600E1,-7.077580923E-1,1.016476925E1
1.057857029E1,1.781080891E-1,8.770714720E0,-1.369989179E0,8.878852941E0
1.058856229E1,-1.298197357E-1,7.784619223E0,-1.458793766E0,7.921188602E0
1.059855329E1,-6.038849375E-1,7.084909238E0,-1.441136929E0,7.255169990E0
1.060854429E1,-9.301945080E-1,6.794475113E0,-1.360275199E0,6.991459254E0
1.061853529E1,-8.672717433E-1,7.075651926E0,-7.586452407E-1,7.168859955E0
1.062852729E1,-7.469443043E-1,7.970858889E0,-4.927635741E-1,8.020930941E0
1.063851829E1,-8.756736074E-1,9.042604986E0,-4.131198923E-1,9.094293664E0
1.064850929E1,-5.846418969E-1,1.014373919E1,-3.816922045E-1,1.016774015E1
1.065850029E1,-2.918753906E-1,1.093312383E1,-5.564917928E-1,1.095116756E1
1.066849229E1,-2.023513030E-1,1.130253805E1,-7.357342418E-1,1.132826630E1
1.067848329E1,-1.367654239E-1,1.132730802E1,-1.053825112E0,1.137704528E1
1.068847429E1,-6.699877104E-1,1.069924923E1,-1.586352676E0,1.083694295E1
1.069846529E1,-1.573553852E0,9.698616974E0,-1.460879907E0,9.933449201E0
1.070845729E1,-2.504122143E0,9.096038012E0,-5.938271418E-2,9.434620370E0
1.071844829E1,-2.600078168E0,7.392094467E0,2.051083529E0,8.100025354E0
1.072843929E1,-7.154055925E-1,3.131516104E0,3.958259772E0,5.097648349E0
1.073843029E1,1.435496851E0,-2.950491570E0,4.564033068E0,5.621071922E0
1.074842229E1,3.258020907E0,-1.371080386E1,4.830674872E0,1.489752538E1
1.075841329E1,2.067932135E0,-3.740440230E1,4.420529532E0,3.772143603E1
1.076840429E1,-3.406238176E0,-5.707330140E1,2.051268886E0,5.721164125E1
1.077839529E1,1.826980072E-1,-3.489915340E1,-3.881349006E0,3.511479968E1
1.078838729E1,7.745234717E0,-1.920081545E1,-3.907356251E0,2.106958489E1
1.079837829E1,1.069625195E1,-2.100407337E1,6.158316761E-1,2.357880727E1
1.080836929E1,1.321124465E1,-2.554577183E1,3.099036575E0,2.892624191E1
1.081836029E1,1.096831120E1,-2.427151618E1,3.119944464E0,2.681686786E1
1.082835229E1,4.648239990E0,-1.967367276E1,1.351703181E0,2.026046980E1
1.083834329E1,-3.527550943E0,-1.647648541E1,2.694432056E-1,1.685202619E1
1.084833429E1,-8.479582438E0,-1.208462770E1,-1.575046939E-1,1.476368357E1
1.085832529E1,-7.469147320E0,-6.082229868E0,1.825048152E0,9.803697395E0
1.086831729E1,-4.114636246E0,-6.677064192E-1,5.058109342E0,6.554428534E0
1.087830829E1,-1.155352145E0,3.734759309E0,4.023023533E0,5.609633145E0
1.088829929E1,1.103461833E0,7.605614902E0,1.184900172E0,7.776052628E0
1.089829004E1,2.583931959E0,1.076723832E1,-8.567124027E-1,1.110603807E1
1.090828204E1,3.803388664E0,1.303678713E1,-1.481390331E0,1.366082359E1
1.091827304E1,4.478717806E0,1.518466356E1,-1.289637326E0,1.588383093E1
1.092826404E1,3.852893531E0,1.657206166E1,-1.608017634E0,1.708987235E1
1.093825504E1,3.168911094E0,1.763713433E1,-2.146386566E0,1.804764472E1
1.094824704E1,2.853747340E0,1.842777027E1,-1.169225029E0,1.868404876E1
1.095823804E1,2.125372404E0,1.731308631E1,9.836471222E-2,1.744333228E1
1.096822904E1,8.554099354E-1,1.413900950E1,9.297651762E-1,1.419534357E1
1.097822004E1,-4.263219550E-1,1.173388949E1,9.088379183E-1,1.177675249E1
1.098821204E1,-1.790859044E0,9.778074787E0,-4.027868389E-1,9.948877318E0
1.099820304E1,-3.097255221E0,8.069869207E0,-1.569966878E0,8.785247572E0
1.100819404E1,-4.074969612E0,6.575964079E0,-1.766703904E0,7.935359072E0
1.101818504E1,-4.511576527E0,5.608417704E0,-1.370428305E0,7.327123968E0
1.102817704E1,-4.266310681E0,5.702997587E0,-5.982929528E-1,7.147275198E0
1.103816804E1,-3.693042934E0,6.718635557E0,1.222622095E-1,7.667697040E0
1.104815904E1,-3.506856478E0,8.145992353E0,-1.366571774E-1,8.869831394E0
1.105815004E1,-3.019018306E0,9.693742735E0,-1.323996735E0,1.023894951E1
1.106814204E1,-1.905364483E0,1.092526517E1,-1.965465382E0,1.126298748E1
1.107813304E1,-1.080464369E0,1.103309952E1,-1.881580787E0,1.124442237E1
1.108812404E1,-8.733419571E-1,1.009584114E1,-1.640492485E0,1.026547369E1
1.109811504E1,-3.837188494E-1,9.162781640E0,-1.102230117E0,9.236813236E0
1.110810704E1,1.875881799E-1,8.507927985E0,-3.620631015E-1,8.517694384E0
1.111809804E1,5.854980024E-1,8.185062863E0,-1.385636620E-1,8.207147000E0
1.112808904E1,7.349947152E-1,8.031826637E0,-8.151237890E-2,8.065798201E0
1.113808004E1,1.655763658E0,7.008975542E0,-2.185203892E-1,7.205209407E0
1.114807204E1,3.705467682E0,3.947212628E0,9.683860356E-1,5.499886343E0
1.115806304E1,5.613870817E0,-7.744648826E-1,3.603092292E0,6.715475819E0
1.116805404E1,7.133248755E0,-8.499929579E0,4.773677384E0,1.207973660E1
1.117804504E1,7.935943410E0,-2.588053662E1,5.645876137E0,2.765243734E1
1.118803704E1,1.422207592E0,-5.153459888E1,8.218682599E0,5.220521333E1
1.119802804E1,-5.594760947E0,-4.675832650E1,4.733152086E0,4.732911552E1
1.120801904E1,1.988525338E0,-2.239755373E1,3.082904984E-1,2.248776755E1
1.121801004E1,5.141153253E0,-1.711494523E1,2.505307959E0,1.804520365E1
1.122800204E1,4.027750714E0,-1.832031248E1,5.253193506E0,1.947954484E1
1.123799304E1,3.294666284E0,-2.187347247E1,5.428657338E0,2.277660959E1
1.124798404E1,3.514693501E0,-2.121051282E1,3.195029145E0,2.173584910E1
1.125797504E1,3.318755936E0,-1.630862003E1,1.213000209E0,1.668701884E1
1.126796704E1,2.053869289E0,-1.107702614E1,7.292524570E-1,1.128940638E1
1.127795804E1,3.757625431E-1,-7.034457123E0,2.725387216E-2,7.044538826E0
1.128794904E1,-6.065182310E-1,-3.359637621E0,1.304053344E-1,3.416435988E0
1.129794004E1,-9.206246625E-1,4.901691645E-1,9.098811346E-1,1.384087880E0
1.130793204E1,-9.007803089E-1,4.323951656E0,1.393370586E0,4.631354518E0
1.131792304E1,-2.720673629E-1,7.988180680E0,9.674317700E-1,8.051147462E0
1.132791404E1,7.229786139E-1,1.164591813E1,-6.133144498E-1,1.168444529E1
1.133790504E1,4.326893536E-1,1.468025117E1,-3.059747964E0,1.500196827E1
1.134789704E1,-1.086055038E0,1.649148937E1,-3.761364725E0,1.694982601E1
1.135788804E1,-1.636721908E0,1.752032801E1,-2.752692543E0,1.781061673E1
1.136787904E1,-6.623220838E-1,1.768383019E1,-2.109613281E0,1.782153161E1
1.137787004E1,7.137995817E-2,1.633893434E1,-1.946871236E0,1.645467040E1
1.138786204E1,2.425308108E-2,1.401079643E1,-1.257516816E0,1.406713735E1
1.139785304E1,4.952243748E-1,1.197726697E1,-8.233347416E-1,1.201574182E1
1.140784404E1,5.156299880E-1,1.003618200E1,-8.842745693E-1,1.008824885E1
1.141783604E1,-3.426324385E-1,8.607928237E0,-8.250900757E-1,8.654166577E0
1.142782704E1,-1.187908199E0,7.467333514E0,-6.623275656E-1,7.590182706E0
1.143781804E1,-1.737394589E0,6.589788067E0,-8.110702068E-1,6.863066487E0
1.144780904E1,-2.202740276E0,6.217081279E0,-1.173098664E0,6.699277933E0
1.145780104E1,-2.525005474E0,6.445779916E0,-1.350518535E0,7.053200102E0
1.146779204E1,-2.681376978E0,7.162545644E0,-1.475371792E0,7.789002794E0
1.147778304E1,-2.527463059E0,8.069362838E0,-1.603952503E0,8.606703768E0
1.148777404E1,-2.201788642E0,8.922674500E0,-1.425639030E0,9.300238712E0
1.149776604E1,-1.760057227E0,9.628413548E0,-1.319368810E0,9.876481305E0
1.150775704E1,-1.496793798E0,9.977775328E0,-1.572171863E0,1.021117606E1
1.151774804E1,-9.803250998E-1,1.012477316E1,-2.109420176E0,1.038853803E1
1.152773904E1,-3.751827186E-1,1.003888692E1,-2.459626002E0,1.034261924E1
1.153773104E1,-2.993694746E-1,9.522621630E0,-2.284513734E0,9.797394949E0
1.154772204E1,-6.796167590E-1,9.275605420E0,-2.187284478E0,9.554211021E0
1.155771304E1,-1.756305508E0,9.521388452E0,-1.388882848E0,9.781126860E0
1.156770404E1,-2.388508218E0,8.785480694E0,-6.820031539E-2,9.104630350E0
1.157769604E1,-1.181209921E0,3.907243400E0,7.099016815E-1,4.143159213E0
1.158768704E1,6.067847179E-1,-3.119266187E0,1.486957319E0,3.508425759E0
1.159767804E1,2.799018863E0,-1.195952769E1,3.955978773E0,1.290405274E1
1.160766904E1,2.832959611E0,-3.101265884E1,6.005872833E0,3.171562986E1
1.161766104E1,-1.501176871E0,-5.447151029E1,5.770642270E0,5.479689113E1
1.162765204E1,-3.574617814E-1,-4.378005890E1,4.027304864E-1,4.378337045E1
1.163764304E1,7.722839296E0,-2.368773953E1,-3.064227515E-1,2.491676435E1
1.164763404E1,8.226835957E0,-1.903758341E1,2.524490919E0,2.089218673E1
1.165762604E1,7.164415584E0,-2.035245030E1,4.016719357E0,2.194732599E1
1.166761704E1,6.754100089E0,-2.250514016E1,5.008277616E0,2.402461335E1
1.167760804E1,3.888767076E0,-2.054826653E1,3.902577322E0,2.127401882E1
1.168759904E1,8.481075671E-1,-1.645554068E1,2.162024944E0,1.661861780E1
1.169759104E1,-1.023776052E0,-1.227690520E1,1.234749659E0,1.238124087E1
1.170758204E1,-2.562916481E0,-7.936210043E0,1.510006605E0,8.475381448E0
1.171757304E1,-3.142656804E0,-3.264705736E0,2.310478733E0,5.086541783E0
1.172756404E1,-3.258952661E0,1.104927292E0,2.735970091E0,4.396267633E0
1.173755604E1,-2.515367216E0,4.977913025E0,2.344924534E0,6.050236474E0
1.174754704E1,-1.051367527E0,8.772150212E0,5.468140662E-1,8.851835891E0
1.175753804E1,-5.521073678E-1,1.230149391E1,-2.202356261E0,1.250927448E1
1.176752904E1,-9.439788803E-1,1.495318165E1,-3.477371893E0,1.538118503E1
1.177752104E1,7.245835284E-1,1.687734011E1,-2.578236187E0,1.708850293E1
1.178751204E1,3.387403125E0,1.853178639E1,-1.391182266E0,1.889012956E1
1.179750304E1,5.054520906E0,1.937343461E1,-5.494534993E-1,2.002947951E1
1.180749404E1,5.073836598E0,1.833235073E1,-7.927764617E-1,1.903805125E1
1.181748604E1,3.137452782E0,1.507404243E1,-1.276651099E0,1.544992567E1
1.182747704E1,1.516539406E0,1.198547763E1,-8.611831838E-1,1.211169692E1
1.183746804E1,5.374043613E-1,9.679826946E0,-5.274786396E-1,9.709072400E0
1.184745904E1,-3.025212700E-1,7.939789124E0,-8.213670073E-1,7.987891725E0
1.185745104E1,-9.431480641E-1,6.789930072E0,-1.292465770E0,6.975897536E0
1.186744204E1,-1.047591761E0,6.091336321E0,-1.495524221E0,6.359120959E0
1.187743304E1,-1.201254396E0,5.803084377E0,-1.172331655E0,6.040957037E0
1.188742404E1,-1.391469949E0,6.118015412E0,-7.288525075E-1,6.316448937E0
1.189741642E1,-1.559014312E0,7.085965245E0,-4.254488195E-1,7.267904497E0
1.190740742E1,-1.553146777E0,8.320256336E0,-4.728035188E-1,8.477173679E0
1.191739842E1,-1.540412126E0,9.680839099E0,-5.252879803E-1,9.816692042E0
1.192738942E1,-1.352343159E0,1.062176895E1,-7.143426418E-1,1.073131367E1
1.193738142E1,-1.375353414E0,1.102114547E1,-1.398601213E0,1.119434366E1
1.194737242E1,-1.468227957E0,1.071510688E1,-1.934180147E0,1.098682218E1
1.195736342E1,-1.577063643E0,1.009576512E1,-2.298475715E0,1.047351869E1
1.196735542E1,-1.737151491E0,9.614659143E0,-2.193060942E0,1.001343508E1
1.197734642E1,-1.933815427E0,8.807923477E0,-1.624274063E0,9.162828402E0
1.198733742E1,-1.850287951E0,8.286019135E0,-1.024499864E0,8.551682792E0
1.199732842E1,-1.285895839E0,7.103018650E0,4.118603289E-2,7.218593931E0
1.200732042E1,1.048089871E0,2.870468915E0,4.765438364E-1,3.092762228E0
1.201731142E1,3.287066366E0,-4.367864830E0,1.377103486E0,5.637327601E0
1.202730242E1,3.009758363E0,-1.630178347E1,2.796922052E0,1.681159013E1
1.203729342E1,-8.085798776E-1,-3.856726381E1,5.054829054E0,3.890551292E1
1.204728542E1,-6.264888114E0,-5.414825749E1,4.925719024E0,5.473157517E1
1.205727642E1,-4.809494211E-1,-3.353235505E1,2.325803262E0,3.361635775E1
1.206726742E1,7.177106380E0,-1.935000833E1,4.551308357E0,2.113405039E1
1.207725842E1,9.866990472E0,-1.834954505E1,5.978625392E0,2.167503786E1
1.208725042E1,1.159604839E1,-2.156646325E1,5.351020932E0,2.506419957E1
1.209724142E1,8.976395794E0,-2.267313301E1,4.896118664E0,2.487204495E1
1.210723242E1,3.637629456E0,-1.930533443E1,2.733137700E0,1.983427153E1
1.211722342E1,-9.135838109E-1,-1.484175360E1,1.830591166E0,1.498210097E1
1.212721542E1,-2.290720114E0,-1.023438390E1,9.533429039E-1,1.053085348E1
1.213720642E1,-9.773001158E-1,-5.789251619E0,1.635190814E0,6.094620482E0
1.214719742E1,-4.549045338E-1,-2.554871297E0,2.648484635E0,3.707934242E0
1.215718842E1,-1.756537203E-1,6.960116208E-1,2.136526406E0,2.253892520E0
1.216718042E1,-3.877813487E-1,4.139549185E0,-2.892162231E-1,4.167719743E0
1.217717142E1,7.141857903E-1,7.819883196E0,-3.296577739E0,8.516340724E0
1.218716242E1,1.955630950E0,1.140537771E1,-4.819113173E0,1.253518986E1
1.219715342E1,1.984694096E0,1.358909524E1,-4.005553222E0,1.430548764E1
1.220714542E1,2.297738235E0,1.515138940E1,-2.408547065E0,1.551274639E1
1.221713642E1,2.082343183E0,1.666002015E1,-7.517847025E-1,1.680647509E1
1.222712742E1,1.014928776E0,1.793416353E1,1.790995576E-1,1.796375179E1
1.223711842E1,-3.684582744E-2,1.810605296E1,4.139607950E-1,1.811082204E1
1.224711042E1,-5.510785136E-1,1.622219234E1,-3.489150524E-2,1.623158739E1
1.225710142E1,-7.149997227E-1,1.306318964E1,3.254384816E-2,1.308278286E1
1.226709242E1,-9.657329345E-1,1.058994255E1,-1.896866725E-1,1.063557730E1
1.227708342E1,-9.534219144E-1,8.804257858E0,-5.953086801E-1,8.875717560E0
1.228707542E1,-1.047646067E0,7.395865921E0,-7.185245705E-1,7.504177007E0
1.229706642E1,-1.519256315E0,6.375353712E0,-8.690190375E-1,6.611238068E0
1.230705742E1,-1.942859607E0,5.845866700E0,-7.686824249E-1,6.208037822E0
1.231704842E1,-2.292201214E0,5.969409596E0,-4.693969309E-1,6.411580991E0
1.232704042E1,-2.396276683E0,6.764588825E0,-1.207736546E-1,7.177491914E0
1.233703142E1,-1.951007118E0,7.942242031E0,-9.502894878E-3,8.178369492E0
1.234702242E1,-1.430982362E0,9.086284271E0,-2.515353768E-1,9.201714103E0
1.235701442E1,-1.253088427E0,1.000480818E1,-5.545066631E-1,1.009821246E1
1.236700542E1,-1.096402125E0,1.057929711E1,-9.598357983E-1,1.067918114E1
1.237699642E1,-7.807429650E-1,1.065010923E1,-1.358857981E0,1.076479825E1
1.238698742E1,-3.597573982E-1,1.044386157E1,-1.642709895E0,1.057838199E1
1.239697942E1,1.105266284E-1,1.046248495E1,-1.890639732E0,1.063251269E1
1.240697042E1,7.210333914E-1,1.086066630E1,-2.346972960E0,1.113473142E1
1.241696142E1,3.464056467E-1,1.158614789E1,-2.108137444E0,1.178147118E1
1.242695242E1,4.845368341E-3,1.036498029E1,-7.071036427E-1,1.038907288E1
1.243694442E1,4.390751709E-1,5.621609607E0,1.557410567E0,5.849855490E0
1.244693542E1,1.698025871E0,-1.558668888E0,3.827446448E0,4.467895128E0
1.245692642E1,3.641709351E0,-1.188320048E1,6.002228263E0,1.380214638E1
1.246691742E1,2.917986021E0,-3.413075442E1,8.494847179E0,3.529285293E1
1.247690942E1,-3.052556765E0,-5.699112229E1,8.974740447E0,5.777414723E1
1.248690042E1,-8.119363256E-1,-3.770184314E1,1.754903199E0,3.775139603E1
1.249689142E1,7.414996256E0,-1.980448667E1,-1.680470775E0,2.121376543E1
1.250688242E1,8.508172399E0,-1.924842816E1,-2.040760124E0,2.114369140E1
1.251687442E1,5.929902883E0,-2.439266815E1,4.274267864E-1,2.510674614E1
1.252686542E1,5.661247298E0,-2.502677764E1,3.576019099E0,2.590708846E1
1.253685642E1,4.564244152E0,-2.129568805E1,1.563681559E0,2.183537849E1
1.254684742E1,2.793295024E0,-1.669980929E1,-1.058390472E0,1.696485537E1
1.255683942E1,9.522162185E-1,-1.174873323E1,-6.964823216E-1,1.180781672E1
1.256683042E1,-9.121779940E-1,-7.135143253E0,1.632093836E-1,7.195066034E0
1.257682142E1,-2.188004124E0,-2.761421852E0,1.659867087E0,3.894607995E0
1.258681242E1,-3.028499858E0,9.893646759E-1,3.752973971E0,4.922953126E0
1.259680442E1,-2.998463296E0,4.601204402E0,4.468505352E0,7.080212156E0
1.260679542E1,-2.086576859E0,8.350824410E0,3.641628659E0,9.346204075E0
1.261678642E1,-9.046604481E-1,1.184028659E1,1.311389553E0,1.194698873E1
1.262677742E1,-7.135797995E-1,1.473378827E1,-1.035360628E-1,1.475142138E1
1.263676942E1,-4.986691888E-2,1.688880533E1,-1.100473322E0,1.692469420E1
1.264676042E1,4.072863445E-1,1.846108420E1,-1.636383646E0,1.853794118E1
1.265675142E1,1.017158465E0,1.938675457E1,-1.781180001E0,1.949496002E1
1.266674242E1,2.334815429E0,1.848420877E1,-2.481401618E0,1.879560296E1
1.267673442E1,2.446093791E0,1.453152139E1,-3.091962613E0,1.505684965E1
1.268672542E1,1.777958332E0,1.105288884E1,-2.647911023E0,1.150386545E1
1.269671642E1,1.924161527E0,9.036351389E0,-2.364736801E0,9.536772208E0
1.270670842E1,1.672888983E0,7.626284809E0,-1.718017209E0,7.994395579E0
1.271669942E1,5.298157717E-1,6.749947981E0,-6.857230063E-1,6.805344851E0
1.272669042E1,-5.247758373E-1,6.170735663E0,-2.312250732E-1,6.197324691E0
1.273668142E1,-1.426513482E0,6.038573971E0,-5.442991787E-1,6.228609629E0
1.274667342E1,-1.831391504E0,6.321718957E0,-1.007750222E0,6.658354596E0
1.275666442E1,-1.690971497E0,7.146789737E0,-9.890034641E-1,7.410405927E0
1.276665542E1,-1.434773697E0,8.649137658E0,-8.546847345E-1,8.808895719E0
1.277664642E1,-1.077083582E0,1.007024320E1,-7.149865665E-1,1.015288692E1
1.278663842E1,-5.686291507E-1,1.089992334E1,-5.759209210E-1,1.092992922E1
1.279662942E1,-3.610183503E-1,1.105187025E1,-6.424259824E-1,1.107641104E1
1.280662042E1,-7.268800224E-1,1.039206342E1,-1.115830010E0,1.047704220E1
1.281661142E1,-7.935692710E-1,9.789821259E0,-1.278304106E0,9.904767229E0
1.282660342E1,-8.576676916E-1,9.200496765E0,-9.412227952E-1,9.288198692E0
1.283659442E1,-9.675986349E-1,9.103245290E0,-8.984660541E-1,9.198508747E0
1.284658542E1,-1.127012152E0,9.118013602E0,4.447181726E-1,9.198157571E0
1.285657642E1,9.532993421E-2,6.196234201E0,1.674156075E0,6.419128027E0
1.286656842E1,2.823083957E0,-3.302156568E-1,2.279998367E0,3.643794446E0
1.287655942E1,4.375733428E0,-1.030928205E1,3.445164844E0,1.171740160E1
1.288655042E1,1.748443780E0,-3.055403599E1,5.748435715E0,3.113921457E1
1.289654142E1,-8.574751135E0,-5.678825197E1,7.588933965E0,5.793119917E1
1.290653254E1,-1.153050578E1,-4.341480439E1,1.873113873E0,4.495894081E1
1.291652354E1,2.850888344E0,-2.020133018E1,1.318888022E0,2.044408890E1
1.292651454E1,1.115498941E1,-1.695138925E1,6.758126482E0,2.138821310E1
1.293650554E1,1.333370289E1,-1.860221727E1,6.829846090E0,2.388465863E1
1.294649754E1,1.234324303E1,-2.083991863E1,2.448957026E0,2.434451166E1
1.295648854E1,8.590723389E0,-1.962648807E1,5.009939687E-1,2.143013199E1
1.296647954E1,3.871685312E0,-1.591084916E1,-5.506909163E-1,1.638439283E1
1.297647054E1,2.120302722E-1,-1.224159971E1,2.158001183E-1,1.224533748E1
1.298646254E1,-1.186162732E0,-8.022824848E0,1.522334290E0,8.251678754E0
1.299645354E1,-9.957606527E-1,-3.440368958E0,2.010056979E0,4.107067921E0
1.300644454E1,-1.697879398E0,1.148271532E0,1.679805654E0,2.650107356E0
1.301643554E1,-2.052330886E0,5.503950180E0,5.408709562E-1,5.898988985E0
1.302642754E1,-1.348676662E0,9.647432202E0,-2.922255658E-1,9.745628385E0
1.303641854E1,2.126065884E-1,1.360059320E1,-2.332734844E0,1.380083290E1
1.304640954E1,1.061199109E-1,1.604348506E1,-4.015466006E0,1.653870132E1
1.305640154E1,-8.166925239E-1,1.727132784E1,-3.201021956E0,1.758443327E1
1.306639254E1,-1.496424985E0,1.799917755E1,-1.764846389E0,1.814729630E1
1.307638354E1,-1.555451896E0,1.799383085E1,-1.610153621E0,1.813256667E1
1.308637454E1,-8.375626253E-1,1.607366605E1,-1.881540588E0,1.620507471E1
1.309636654E1,7.831139378E-2,1.375025386E1,-6.384557229E-1,1.376529112E1
1.310635754E1,8.126308286E-1,1.170204087E1,2.415606116E-1,1.173270987E1
1.311634854E1,5.197732519E-1,9.814740922E0,5.697146863E-1,9.844992556E0
1.312633954E1,-8.925160736E-2,8.150284209E0,8.011322790E-1,8.190049540E0
1.313633154E1,-6.692489878E-1,6.479803110E0,4.394702965E-1,6.529079314E0
1.314632254E1,-1.283069295E0,4.992221746E0,-4.696302348E-1,5.175818519E0
1.315631354E1,-2.117375021E0,4.388649343E0,-1.440384393E0,5.081163964E0
1.316630454E1,-2.629527377E0,5.019307219E0,-1.499958749E0,5.861547188E0
1.317629654E1,-2.003531194E0,6.798989164E0,-8.236921526E-1,7.135745207E0
1.318628754E1,-8.238173562E-1,8.791546596E0,-4.174262935E-1,8.839921453E0
1.319627854E1,-2.545417227E-2,1.004781796E1,-5.862178677E-1,1.006493641E1
1.320626954E1,4.600773463E-1,1.054529906E1,-1.427400650E0,1.065140724E1
1.321626154E1,7.321177389E-1,1.062834356E1,-2.536193537E0,1.095125385E1
1.322625254E1,7.512873238E-1,1.047165806E1,-2.581923441E0,1.081140064E1
1.323624354E1,5.087229645E-1,1.022469623E1,-1.764866416E0,1.038835721E1
1.324623454E1,-5.762690496E-1,9.842999346E0,-9.206492208E-1,9.902742910E0
1.325622654E1,-1.711834363E0,9.655913004E0,-2.515916562E-1,9.809705968E0
1.326621754E1,-2.536487067E0,1.014274165E1,7.056298520E-1,1.047887820E1
1.327620854E1,-1.950512736E0,7.282939230E0,1.544736581E0,7.696227313E0
1.328619954E1,1.141183099E0,-8.387538493E-2,2.231021943E0,2.507347773E0
1.329619154E1,3.323833658E0,-1.033636635E1,3.193079098E0,1.131742434E1
1.330618254E1,3.027992320E0,-3.241526087E1,5.277480501E0,3.298135345E1
1.331617354E1,-4.896651930E0,-5.958436243E1,5.440385098E0,6.003225164E1
1.332616554E1,-5.492698383E0,-4.375516379E1,-1.355194554E0,4.411939082E1
1.333615654E1,8.189302679E0,-2.184918548E1,1.010710521E0,2.335536598E1
1.334614754E1,1.156513299E1,-1.986448378E1,6.292256007E0,2.383154428E1
1.335613854E1,8.408904219E0,-2.358274459E1,4.214149132E0,2.538926083E1
1.336613054E1,3.502000950E0,-2.678118792E1,6.846037030E-1,2.701785927E1
1.337612154E1,-1.115298133E0,-2.469710928E1,-1.420841390E0,2.476307508E1
1.338611254E1,-3.920960822E-1,-1.782363478E1,-2.332718179E0,1.797991296E1
1.339610354E1,8.667832084E-1,-1.057380892E1,-2.873947424E-1,1.061316842E1
1.340609554E1,1.109646287E0,-5.592662382E0,2.237120150E0,6.124858689E0
1.341608654E1,2.463849299E-1,-6.332867843E-1,3.695785863E0,3.757737461E0
1.342607754E1,1.504292706E-1,4.384987231E0,4.270202295E0,6.122529676E0
1.343606854E1,1.184540714E0,8.825998975E0,2.973765242E0,9.388539520E0
1.344606054E1,4.311208380E-1,1.236659447E1,1.216548300E-1,1.237470500E1
1.345605154E1,-6.334037286E-1,1.539756887E1,-1.856476936E0,1.552201128E1
1.346604254E1,-2.844803439E-1,1.804247033E1,-3.186540157E0,1.832391069E1
1.347603354E1,8.726668961E-1,2.027202302E1,-3.308726499E0,2.055879704E1
1.348602554E1,2.116318429E0,2.108180625E1,-2.289820520E0,2.131113879E1
1.349601654E1,1.433973505E0,1.855582429E1,-3.811010510E-1,1.861505125E1
1.350600754E1,9.627082430E-1,1.393409967E1,2.870205206E-1,1.397026562E1
1.351599854E1,1.203791137E0,1.068873594E1,-3.734710193E-1,1.076279098E1
1.352599054E1,4.481884950E-1,8.182399457E0,-8.212883623E-1,8.235717842E0
1.353598154E1,-5.020176700E-1,6.399846529E0,-6.834022464E-1,6.455780043E0
1.354597254E1,-1.128258852E0,5.365635463E0,-7.427070464E-1,5.533048501E0
1.355596454E1,-1.641435056E0,4.781692162E0,-8.567090406E-1,5.127654372E0
1.356595554E1,-1.670209496E0,4.561567882E0,-8.010241055E-1,4.923326205E0
1.357594654E1,-1.695484671E0,5.267816223E0,-8.399260698E-1,5.597323631E0
1.358593754E1,-2.061745781E0,6.763889498E0,-1.019224067E0,7.144215457E0
1.359592954E1,-1.870374306E0,8.427200741E0,-1.251306635E0,8.722487069E0
1.360592054E1,-1.246075277E0,9.969444215E0,-1.191699387E0,1.011744380E1
1.361591154E1,-6.573142359E-1,1.108319262E1,-9.811201018E-1,1.114593277E1
1.362590254E1,-2.454596081E-1,1.174053660E1,-9.318501471E-1,1.178001676E1
1.363589454E1,-3.402831003E-1,1.212626923E1,-8.987316638E-1,1.216428858E1
1.364588554E1,-6.649436098E-1,1.224327202E1,-1.131011721E0,1.231336864E1
1.365587654E1,-8.998565219E-1,1.210247691E1,-1.588542312E0,1.223940995E1
1.366586754E1,-1.484636121E0,1.158112396E1,-1.553124558E0,1.177874240E1
1.367585954E1,-1.782699985E0,1.087991533E1,-1.037613561E0,1.107371748E1
1.368585054E1,-2.094347370E0,1.018069710E1,-1.228147421E0,1.046619465E1
1.369584154E1,-2.894778714E0,9.918243656E0,-1.646467754E0,1.046241641E1
1.370583254E1,-3.055914529E0,8.459475033E0,-2.790876031E-2,8.994560041E0
1.371582454E1,-2.428232886E0,4.425746418E0,2.451999917E0,5.612116347E0
1.372581554E1,-2.997442080E-1,-3.106862488E0,4.057909775E0,5.119479745E0
1.373580654E1,1.057867877E0,-1.665252168E1,6.274642439E0,1.782685336E1
1.374579754E1,-1.078755593E0,-4.705655788E1,1.066376365E1,4.826177793E1
1.375578954E1,-5.578764135E0,-7.188755905E1,6.756772267E0,7.241959491E1
1.376578054E1,3.863070610E0,-4.305832070E1,-6.279176370E0,4.368489844E1
1.377577154E1,9.923238348E0,-2.335315249E1,-6.385713224E0,2.616520063E1
1.378576354E1,6.223579289E0,-2.058027419E1,-7.101456566E-1,2.151243668E1
1.379575454E1,6.123924608E0,-2.126960011E1,1.076703367E0,2.215982020E1
1.380574554E1,5.655831022E0,-2.173791998E1,1.028370721E0,2.248517592E1
1.381573654E1,4.121341540E0,-1.840409723E1,1.697760699E0,1.893617286E1
1.382572854E1,1.279717232E0,-1.258565456E1,3.895990434E0,1.323688477E1
1.383571954E1,-1.141479041E0,-7.289801522E0,3.625062620E0,8.221025461E0
1.384571054E1,-3.286827507E0,-2.847347855E0,2.109170939E0,4.833138413E0
1.385570154E1,-4.581308666E0,1.534339208E0,-8.093438163E-2,4.832094399E0
1.386569354E1,-4.000428722E0,6.084513205E0,-1.672023741E0,7.471304725E0
1.387568454E1,-1.041541720E0,1.051124488E1,-2.041073534E0,1.075811597E1
1.388567554E1,1.050138589E0,1.387293897E1,-1.067640913E0,1.395353302E1
1.389566654E1,1.767217581E0,1.605277044E1,1.480380517E0,1.621746044E1
1.390565958E1,2.352262205E0,1.780570020E1,2.576280878E0,1.814423656E1
1.391565058E1,2.995766560E0,1.907013018E1,8.276423854E-1,1.932173580E1
1.392564158E1,2.829174709E0,1.923665420E1,-1.178639485E0,1.947927836E1
1.393563258E1,1.934181901E0,1.788891426E1,-1.469083697E0,1.805304739E1
1.394562458E1,1.267042808E0,1.490758623E1,-8.278223334E-1,1.498421885E1
1.395561558E1,8.685394927E-1,1.209126312E1,-9.166785228E-1,1.215702695E1
1.396560658E1,1.067765167E-1,9.820786943E0,-1.789156773E0,9.983002523E0
1.397559758E1,-9.684559829E-1,8.063849498E0,-2.188466492E0,8.411477950E0
1.398558958E1,-2.091879845E0,6.606114078E0,-2.152912059E0,7.256151516E0
1.399558058E1,-3.001126118E0,5.497249271E0,-1.728063310E0,6.497130930E0
1.400557158E1,-3.177548894E0,5.344856797E0,-9.106001960E-1,6.284385720E0
1.401556358E1,-2.659245266E0,5.993803595E0,-4.419290507E-1,6.572105310E0
1.402555458E1,-1.935702323E0,7.155850582E0,-7.038587303E-1,7.446378862E0
1.403554558E1,-1.522594491E0,8.562484846E0,-1.204240642E0,8.779785661E0
1.404553658E1,-9.192929591E-1,9.966122997E0,-1.426217320E0,1.010954020E1
1.405552858E1,-3.209592220E-1,1.072086990E1,-1.367464936E0,1.081249400E1
1.406551958E1,6.115423049E-1,1.054967863E1,-1.096361706E0,1.062410994E1
1.407551058E1,1.143946200E0,1.004637720E1,-1.397516116E0,1.020741687E1
1.408550158E1,6.224509435E-1,9.420623385E0,-1.989844178E0,9.648578651E0
1.409549358E1,-1.116268917E0,8.567649692E0,-2.051865010E0,8.880361904E0
1.410548458E1,-3.684956819E0,8.155792871E0,-1.572007117E0,9.086642421E0
1.411547558E1,-4.212795794E0,8.272685729E0,-4.266643095E-1,9.293385820E0
1.412546658E1,-2.116034985E0,4.694610749E0,8.062275428E-1,5.212195026E0
1.413545858E1,1.458009655E0,-2.087126205E0,2.528364699E0,3.588107580E0
1.414544958E1,3.654002829E0,-1.226174337E1,5.926921388E0,1.410072637E1
1.415544058E1,1.872188990E0,-3.402966775E1,9.119621587E0,3.528017683E1
1.416543158E1,-4.686930723E0,-5.680017094E1,8.000440537E0,5.755200941E1
1.417542358E1,-1.049799889E0,-4.179170152E1,3.283437876E0,4.193363042E1
1.418541458E1,1.267819259E1,-2.344711959E1,2.931875789E0,2.681603774E1
1.419540558E1,1.760114121E1,-2.039670437E1,4.801920605E0,2.736574798E1
1.420539758E1,1.687561401E1,-2.108456848E1,3.126291617E0,2.718674448E1
1.421538858E1,9.999074396E0,-2.251814437E1,-9.164656842E-1,2.465538935E1
1.422537958E1,1.674045124E0,-2.116883621E1,-1.386762209E-1,2.123537814E1
1.423537058E1,-1.857551362E0,-1.673053290E1,-5.415866554E-1,1.684204691E1
1.424536258E1,-6.945083016E-1,-1.101869783E1,-2.883389508E0,1.141087107E1
1.425535358E1,-7.879190335E-1,-5.021620377E0,-5.178691792E-1,5.109371400E0
1.426534458E1,-1.459731368E0,-3.905729556E-1,2.699902126E0,3.093999740E0
1.427533558E1,-2.287489674E0,3.478363581E0,3.480226504E0,5.426195603E0
1.428532758E1,-3.004155853E0,7.604119769E0,3.526617728E0,8.904191285E0
1.429531858E1,-1.603163567E0,1.232581716E1,3.051726168E0,1.279878645E1
1.430530958E1,-4.163994128E-2,1.695147111E1,-6.907901303E-1,1.696559158E1
1.431530058E1,-1.025436222E0,1.954878091E1,-2.586729852E0,1.974582300E1
1.432529258E1,-1.944375644E0,2.052064897E1,-2.553232908E0,2.077008977E1
1.433528358E1,-2.021136722E0,2.095620572E1,-2.918986187E0,2.125483550E1
1.434527458E1,-9.380338700E-1,1.994446901E1,-2.328084115E0,2.010178418E1
1.435526558E1,3.314827849E-1,1.579773477E1,-1.106149360E0,1.583988229E1
1.436525758E1,1.757196185E0,1.228774360E1,-5.738263021E-1,1.242600732E1
1.437524858E1,1.832599247E0,9.785678506E0,-8.027923036E-1,9.988112901E0
1.438523958E1,4.703025185E-2,7.741833392E0,-9.091291827E-1,7.795172351E0
1.439523158E1,-1.418714319E0,6.320884559E0,-8.409190732E-1,6.532493920E0
1.440522258E1,-1.557884484E0,5.329522474E0,-7.007222839E-1,5.596590533E0
1.441521358E1,-7.737427515E-1,4.762792207E0,-6.113578252E-1,4.863807751E0
1.442520458E1,3.064316685E-1,4.630871421E0,-6.097014552E-1,4.680876664E0
1.443519658E1,1.186814989E0,5.374815592E0,-7.637972224E-1,5.557027862E0
1.444518758E1,1.696881278E0,6.776079773E0,-1.622895728E0,7.171363448E0
1.445517858E1,1.904014215E0,8.250402575E0,-2.014298988E0,8.703551757E0
1.446516958E1,1.987397557E0,9.500787542E0,-1.610587485E0,9.839141477E0
1.447516158E1,1.672091423E0,1.040068689E1,-1.070904683E0,1.058853221E1
1.448515258E1,1.334647146E0,1.096449531E1,-8.248228580E-1,1.107618044E1
1.449514358E1,7.072930194E-1,1.122773462E1,-6.566253608E-1,1.126913683E1
1.450513458E1,-6.656287573E-1,1.119230634E1,-6.478032281E-1,1.123078055E1
1.451512658E1,-2.480275736E0,1.083484850E1,-1.057536925E0,1.116530762E1
1.452511758E1,-3.428289195E0,1.019660620E1,-2.052538609E0,1.095156882E1
1.453510858E1,-3.941492589E0,1.111247079E1,-2.084051593E0,1.197353924E1
1.454509958E1,-3.777693075E0,1.024136898E1,-6.019487782E-1,1.093247208E1
1.455509158E1,-2.127992541E0,5.596805134E0,1.837996665E0,6.263450463E0
1.456508258E1,-2.018220131E0,9.153231382E-2,3.008515245E0,3.623914270E0
1.457507358E1,-9.516204603E-1,-8.389597297E0,5.720059177E0,1.019852937E1
1.458506558E1,-3.244716445E-1,-3.188222167E1,1.118522770E1,3.378891326E1
1.459505658E1,-6.674823539E0,-6.470347343E1,1.210485673E1,6.616358742E1
1.460504758E1,-2.130346484E0,-5.066939807E1,5.772936133E0,5.104167972E1
1.461503858E1,1.418465286E1,-2.721728496E1,-1.047933896E0,3.070965879E1
1.462503058E1,1.764000648E1,-2.230908770E1,-4.175117798E0,2.874537930E1
1.463502158E1,1.282334271E1,-2.124105400E1,-7.027619389E0,2.578774762E1
1.464501258E1,9.490128068E0,-2.092856944E1,-3.655535384E0,2.326865893E1
1.465500358E1,7.054913022E0,-1.822728211E1,-1.292060558E0,1.958762444E1
1.466499558E1,4.275651023E0,-1.419574269E1,-8.552444592E-2,1.482591032E1
1.467498658E1,7.205116736E-1,-1.048577207E1,2.394833444E0,1.077987849E1
1.468497758E1,-3.652748601E0,-6.691392210E0,5.172724709E0,9.212729398E0
1.469496858E1,-5.889161823E0,-2.397510445E0,4.567603962E0,7.829003083E0
1.470496058E1,-3.686837869E0,2.450183918E0,2.629471244E0,5.148814788E0
1.471495158E1,-3.193104826E0,6.707309500E0,1.277873313E0,7.537697219E0
1.472494258E1,-4.231291999E0,1.022624691E1,-2.902769081E-1,1.107087253E1
1.473493358E1,-5.179383518E0,1.292674253E1,-1.562635054E0,1.401315505E1
1.474492558E1,-4.171803888E0,1.527121405E1,-1.366998767E0,1.588970144E1
1.475491658E1,-2.258511458E0,1.737035161E1,-5.076236880E-1,1.752391711E1
1.476490758E1,-9.801792117E-1,1.916663029E1,4.687917441E-1,1.919740174E1
1.477489958E1,3.519036009E-1,2.001371408E1,6.242699392E-1,2.002653990E1
1.478489058E1,1.709541377E0,1.866722311E1,-6.572059894E-1,1.875685661E1
1.479488158E1,1.162977718E0,1.459823812E1,-2.252749027E0,1.481674565E1
1.480487258E1,1.109401654E0,1.122544836E1,-2.505578685E0,1.155505895E1
1.481486458E1,1.645184583E0,9.166189982E0,-2.248746169E0,9.580319954E0
1.482485558E1,1.387722030E0,7.631305228E0,-1.682395825E0,7.936815963E0
1.483484658E1,3.475728241E-1,6.624093681E0,-1.218202039E0,6.744141174E0
1.484483758E1,-5.674045976E-1,5.877525280E0,-9.912971807E-1,5.987480396E0
1.485482958E1,-1.399626668E0,5.504729614E0,-8.218799543E-1,5.739032113E0
1.486482058E1,-1.819195089E0,5.686790859E0,-7.316761279E-1,6.015347954E0
1.487481158E1,-1.742423779E0,6.567728276E0,-5.268429011E-1,6.815325288E0
1.488480258E1,-1.560841421E0,7.874403804E0,-3.192158747E-1,8.033950459E0
1.489479458E1,-1.334400247E0,9.403121499E0,-3.085154700E-1,9.502341803E0
1.490478458E1,-1.048860241E0,1.077868366E1,-4.116831583E-1,1.083741723E1
1.491477558E1,-4.839723585E-1,1.154367839E1,-7.348001491E-1,1.157716163E1
1.492476658E1,-3.552287297E-1,1.163431842E1,-1.819187488E0,1.178104391E1
1.493475858E1,-7.451048434E-1,1.104904605E1,-2.862534243E0,1.143812494E1
1.494474958E1,-1.189389883E0,1.011040655E1,-2.993106662E0,1.061101581E1
1.495474058E1,-1.887530768E0,9.619691842E0,-1.766557869E0,9.961022550E0
1.496473258E1,-1.659909480E0,8.690717209E0,-3.774978505E-1,8.855866401E0
1.497472358E1,-2.803878777E-1,4.705060893E0,3.586109054E-1,4.727030479E0
1.498471458E1,2.015002262E0,-2.766196688E0,1.681524151E0,3.813082965E0
1.499470558E1,3.858953585E0,-1.344384221E1,3.199364271E0,1.434797365E1
1.500469758E1,2.266073662E0,-3.357165301E1,6.537831463E0,3.427731343E1
1.501468858E1,-4.546507208E0,-5.440660619E1,7.806715851E0,5.515155789E1
1.502467958E1,-5.978005587E0,-3.879322127E1,7.628361740E0,3.998552826E1
1.503467058E1,4.201275902E0,-2.073421267E1,8.256971337E0,2.270981880E1
1.504466258E1,9.818443379E0,-1.781598896E1,8.647690473E0,2.210415896E1
1.505465358E1,1.007005959E1,-2.166739087E1,7.413187712E0,2.501673998E1
1.506464458E1,1.192537644E1,-2.382305579E1,4.032765579E0,2.694468016E1
1.507463558E1,1.039449352E1,-2.120076902E1,4.822846328E-1,2.361674620E1
1.508462758E1,4.148189031E0,-1.609350448E1,-2.930894919E-1,1.662210155E1
1.509461858E1,5.020404741E-2,-1.167781118E1,-9.603332502E-1,1.171733905E1
1.510460958E1,-7.263844708E-1,-7.385740882E0,-1.912947006E0,7.663952572E0
1.511460158E1,-1.885295816E0,-3.214564108E0,-1.936733479E0,4.199845150E0
1.512459258E1,-1.431475136E0,7.983092433E-1,4.604319799E-1,1.702473589E0
1.513458358E1,-4.212587779E-1,4.855334920E0,1.322245347E0,5.049759291E0
1.514457458E1,3.628051132E-2,8.569619034E0,-2.794993933E-1,8.574252537E0
1.515456658E1,-8.712206604E-1,1.208180116E1,-3.311937205E0,1.255778136E1
1.516455758E1,-8.383327036E-1,1.510779490E1,-4.831497576E0,1.588369092E1
1.517454858E1,4.855371099E-1,1.738148704E1,-4.380029962E0,1.793143889E1
1.518453958E1,1.761737863E0,1.873816270E1,-2.533122579E0,1.899050214E1
1.519453158E1,2.208074691E0,1.903697997E1,3.597644880E-1,1.916798453E1
1.520452258E1,1.269870813E0,1.805731758E1,1.907571076E0,1.820214596E1
1.521451358E1,5.219034657E-1,1.513340804E1,1.237692270E0,1.519290309E1
1.522450458E1,-2.149071754E-1,1.198726688E1,4.682952424E-1,1.199833542E1
1.523449658E1,-7.617022381E-1,9.493583772E0,-2.618174131E-1,9.527689725E0
1.524448758E1,-1.164372060E0,7.927231643E0,-1.760724833E0,8.203469739E0
1.525447858E1,-1.579694890E0,7.196122110E0,-2.952319409E0,7.936989308E0
1.526447058E1,-1.952800751E0,6.689046891E0,-3.613763461E0,7.849590144E0
1.527446158E1,-1.820601929E0,6.594164708E0,-2.994534552E0,7.467585738E0
1.528445258E1,-1.633955736E0,7.042143872E0,-1.465322183E0,7.376230119E0
1.529444358E1,-1.473466769E0,7.847604260E0,-6.297381091E-1,8.009529764E0
1.530443558E1,-1.540272232E0,8.760247035E0,4.059721828E-3,8.894626644E0
1.531442658E1,-1.624161796E0,9.500241997E0,3.166787678E-1,9.643276672E0
1.532441758E1,-1.354242042E0,1.014432859E1,2.900341755E-1,1.023843220E1
1.533440858E1,-1.116002795E0,1.085825374E1,2.659763914E-1,1.091869406E1
1.534440058E1,-1.256406138E0,1.125552410E1,-2.544035822E-1,1.132828761E1
1.535439158E1,-1.818466526E0,1.084523316E1,-1.400241503E0,1.108542192E1
1.536438258E1,-2.309003334E0,1.000115016E1,-1.866148816E0,1.043249789E1
1.537437358E1,-2.306369895E0,9.433699513E0,-1.694891471E0,9.858330776E0
1.538436558E1,-2.159395744E0,9.238194934E0,-8.146573274E-1,9.522126978E0
1.539435658E1,-1.304929841E0,8.900608277E0,6.383702074E-1,9.018380460E0
1.540434758E1,7.928624158E-1,5.488304785E0,1.895716870E0,5.860363698E0
1.541433958E1,2.415806968E0,-1.030820850E0,1.965249181E0,3.280384013E0
1.542433058E1,4.425321033E0,-1.058001983E1,3.261501462E0,1.192298946E1
1.543432158E1,4.532254620E0,-3.150450791E1,7.054937580E0,3.260134192E1
1.544431258E1,-3.220724149E0,-6.066108743E1,5.566559241E0,6.100104240E1
1.545430458E1,-5.094215899E0,-4.799695856E1,-4.378479280E0,4.846473097E1
1.546429558E1,5.960255195E0,-2.461837302E1,-3.415834626E0,2.555889000E1
1.547428658E1,9.072055072E0,-1.964705858E1,4.535281139E0,2.211058274E1
1.548427758E1,7.973316473E0,-1.988275516E1,7.942038547E0,2.284674385E1
1.549426958E1,7.896639011E0,-2.185691550E1,6.388972462E0,2.410188026E1
1.550426058E1,8.006835052E0,-2.033988580E1,2.803203716E0,2.203811047E1
1.551425158E1,5.417870395E0,-1.694292248E1,-7.185555607E-1,1.780259149E1
1.552424258E1,1.032107530E0,-1.268017948E1,1.887364268E-1,1.272351441E1
1.553423458E1,-1.659881267E0,-8.311127079E0,5.593920118E-1,8.493701111E0
1.554422558E1,-1.596732069E0,-3.725626543E0,-2.629440254E-1,4.061894386E0
1.555421658E1,-1.537498897E0,7.526407349E-1,4.044298334E-1,1.758958335E0
1.556420858E1,-2.410515822E0,5.216767107E0,1.785627832E0,6.017783008E0
1.557419958E1,-1.872903812E0,9.453645535E0,1.731249458E0,9.791649875E0
1.558419058E1,-1.242238480E0,1.313196927E1,1.274823551E0,1.325205450E1
1.559418158E1,-6.584908419E-1,1.627210651E1,9.211551511E-1,1.631145571E1
1.560417358E1,1.007347349E0,1.864519080E1,9.535474833E-1,1.869671472E1
1.561416458E1,2.499789941E0,2.004250577E1,7.272427690E-1,2.021088492E1
1.562415558E1,3.259581236E0,2.052033322E1,-2.712874905E-1,2.077937781E1
1.563414658E1,3.223847440E0,1.846144789E1,-2.245793325E0,1.887489969E1
1.564413858E1,2.369573618E0,1.420509941E1,-2.665498863E0,1.464597598E1
1.565412958E1,1.480319560E0,1.108176940E1,-2.398096336E0,1.143450153E1
1.566412058E1,3.301070082E-1,8.874747797E0,-2.484231670E0,9.221796250E0
1.567411158E1,-1.047033937E0,7.291709468E0,-1.954329067E0,7.621332504E0
1.568410358E1,-2.616268231E0,6.062180350E0,-1.054164251E0,6.686265947E0
1.569409458E1,-4.011409793E0,5.076802890E0,-5.435899115E-1,6.493136846E0
1.570408558E1,-4.908146971E0,4.680449962E0,-4.285968143E-1,6.795602532E0
1.571407758E1,-4.836855964E0,4.889298472E0,-3.976866782E-1,6.889018062E0
1.572406858E1,-4.179956369E0,5.774703162E0,-4.926330350E-1,7.145762322E0
1.573405958E1,-3.018020478E0,7.364134836E0,-4.770714015E-1,7.972861883E0
1.574405058E1,-1.758957512E0,9.031635025E0,-6.917197645E-1,9.227287737E0
1.575404258E1,-3.430625012E-1,1.025768154E1,-1.194859661E0,1.033273498E1
1.576403358E1,8.409490402E-1,1.101125432E1,-1.568739401E0,1.115418578E1
1.577402458E1,1.424386703E0,1.133715240E1,-2.217805481E0,1.163952590E1
1.578401558E1,2.195567205E0,1.137410446E1,-2.861232069E0,1.193220083E1
1.579400758E1,1.751520146E0,1.130961318E1,-2.993936967E0,1.182957445E1
1.580399858E1,5.248864228E-1,1.085220304E1,-2.746728383E0,1.120670930E1
1.581398958E1,-3.619520044E-1,1.049890024E1,-2.189440200E0,1.073086967E1
1.582398058E1,-8.586893463E-1,9.503101870E0,1.779541612E-1,9.543477365E0
1.583397258E1,3.543510626E-1,4.514642807E0,3.279809094E0,5.591485674E0
1.584396358E1,2.591911070E0,-2.721247972E0,5.175696264E0,6.396172710E0
1.585395458E1,5.242835163E0,-1.304696947E1,6.617712030E0,1.554042616E1
1.586394658E1,4.641576211E0,-3.764929539E1,9.356137367E0,3.907110159E1
1.587393758E1,-3.916668819E0,-6.149367481E1,9.223126659E0,6.230472214E1
1.588392858E1,-3.183128892E0,-4.242127357E1,1.002768248E0,4.255234782E1
1.589391958E1,5.993855050E0,-2.393492940E1,-2.869584231E0,2.484032322E1
1.590391204E1,8.332310371E0,-2.180985009E1,-1.326429907E0,2.338496041E1
1.591390304E1,7.974916856E0,-2.314667795E1,1.111745730E0,2.450722297E1
1.592389404E1,6.476975396E0,-2.186305741E1,2.710979092E0,2.296288086E1
1.593388504E1,5.125565161E0,-1.762385179E1,1.843111371E0,1.844637172E1
1.594387704E1,2.985566970E0,-1.292011529E1,1.542866203E0,1.335003466E1
1.595386804E1,6.209378303E-1,-8.698015119E0,6.774472958E-1,8.746425878E0
1.596385904E1,-8.096549613E-1,-5.021149676E0,1.940784431E-1,5.089710372E0
1.597385004E1,-2.637503564E0,-1.222471529E0,8.332079114E-1,3.024086162E0
1.598384204E1,-2.974366628E0,3.266816581E0,2.423331749E0,5.038996347E0
1.599383304E1,-1.428493056E0,7.731840500E0,2.711410616E0,8.317072650E0
1.600382404E1,4.038601685E-1,1.197450241E1,1.910100582E0,1.213261288E1
1.601381604E1,-8.761921093E-2,1.475403601E1,1.995162805E-1,1.475564511E1
1.602380704E1,-5.781682252E-1,1.600036067E1,-1.039905157E0,1.604453872E1
1.603379804E1,-1.019885972E0,1.657768083E1,-1.380379096E0,1.666628680E1
1.604378904E1,-1.129926331E0,1.725854349E1,-1.091292754E0,1.732988680E1
1.605378104E1,1.313291579E-1,1.757438201E1,3.128593665E-1,1.757765716E1
1.606377204E1,1.049050641E0,1.594907474E1,9.927367651E-1,1.601433791E1
1.607376304E1,1.195581208E0,1.351510223E1,-3.542886436E-2,1.356792755E1
1.608375404E1,8.021934025E-1,1.124736021E1,-8.597985631E-1,1.130866392E1
1.609374604E1,-4.453297913E-2,9.046141967E0,-1.223595803E0,9.128628284E0
1.610373704E1,-8.731671254E-1,7.023356768E0,-1.055959273E0,7.155767682E0
1.611372804E1,-1.393892304E0,5.128943682E0,-7.798770654E-1,5.371890476E0
1.612371904E1,-1.675715527E0,3.868903792E0,-8.643425075E-1,4.303896728E0
1.613371104E1,-1.602409861E0,3.787694153E0,-1.188640855E0,4.281029250E0
1.614370204E1,-1.232879281E0,4.631486548E0,-1.401782829E0,4.993561260E0
1.615369304E1,-1.505314507E0,5.864371383E0,-1.543742115E0,6.248196796E0
1.616368504E1,-1.755900734E0,7.292267877E0,-1.438297521E0,7.637346263E0
1.617367604E1,-1.245795780E0,8.833672276E0,-1.202295054E0,9.001737966E0
1.618366704E1,-4.914494855E-1,1.012073507E1,-8.837242732E-1,1.017112430E1
1.619365804E1,1.089043550E-1,1.119954870E1,-3.268910761E-1,1.120484757E1
1.620365004E1,3.150930760E-1,1.223638400E1,4.653974354E-2,1.224052870E1
1.621364104E1,3.494882257E-1,1.290390213E1,-1.295596808E-1,1.290928418E1
1.622363204E1,2.955803327E-1,1.317997959E1,-3.991366415E-1,1.318933432E1
1.623362304E1,4.669666819E-2,1.291630759E1,-6.155451626E-1,1.293105093E1
1.624361504E1,-2.140066311E-1,1.239642112E1,-1.501615850E0,1.248887127E1
1.625360604E1,-5.514092468E-1,1.162284735E1,-9.164251922E-1,1.167195219E1
1.626359704E1,3.242782478E-1,7.825035762E0,1.041945763E0,7.900758953E0
1.627358904E1,1.571383366E0,-4.156136566E-1,2.956465085E0,3.373820711E0
1.628358004E1,2.671300178E0,-1.136318420E1,5.058429769E0,1.272185173E1
1.629357104E1,1.610768164E0,-3.007461576E1,8.966709296E0,3.142417800E1
1.630356204E1,-2.734353336E0,-5.515533046E1,8.561867965E0,5.588284844E1
1.631355404E1,-1.045254190E0,-3.994269499E1,2.934293613E0,4.006396783E1
1.632354504E1,7.177351379E0,-1.960140118E1,3.975450294E-1,2.087791520E1
1.633353604E1,8.689542503E0,-1.918221663E1,8.333526300E-1,2.107510522E1
1.634352704E1,6.913387014E0,-2.365592366E1,1.310700166E0,2.468026700E1
1.635351904E1,5.613803574E0,-2.439933632E1,4.158923349E0,2.537989454E1
1.636351004E1,4.021189846E0,-2.042790277E1,2.626865140E0,2.098498510E1
1.637350104E1,2.934685376E0,-1.615392493E1,-2.644328727E-1,1.642046265E1
1.638349204E1,1.275305800E0,-1.252963472E1,1.816332293E-1,1.259567949E1
1.639348404E1,-2.152535352E0,-9.197420545E0,1.600449582E0,9.580573678E0
1.640347504E1,-3.774540841E0,-5.005080943E0,1.865964044E0,6.540628075E0
1.641346604E1,-4.472493153E0,-4.311087781E-1,1.892044964E0,4.875334237E0
1.642345804E1,-5.219445131E0,3.297059550E0,2.534149350E0,6.673464024E0
1.643344904E1,-4.158874525E0,5.994222840E0,1.809237866E0,7.516667242E0
1.644344004E1,-1.818337010E0,8.298414062E0,-7.043618833E-1,8.524444328E0
1.645343104E1,-5.652311144E-1,1.044712899E1,-3.212934489E0,1.094463057E1
1.646342304E1,1.051480086E0,1.260563800E1,-3.859192151E0,1.322501735E1
1.647341404E1,3.080107091E0,1.477949830E1,-2.881798480E0,1.536962563E1
1.648340504E1,3.842554776E0,1.643312246E1,-1.517328488E0,1.694446891E1
1.649339604E1,3.438031826E0,1.710257836E1,-2.255430414E-1,1.744617778E1
1.650338804E1,2.973528430E0,1.606947242E1,-3.981709738E-1,1.634712071E1
1.651337904E1,2.044558767E0,1.359882968E1,-1.401783414E0,1.382292972E1
1.652337004E1,6.817679496E-1,1.141619038E1,-1.746972036E0,1.156918846E1
1.653336204E1,-3.190180926E-1,9.520607264E0,-1.519918220E0,9.646444247E0
1.654335304E1,-1.260290735E0,7.972959793E0,-1.046351713E0,8.139488467E0
1.655334404E1,-2.394612711E0,6.639438529E0,-7.603245610E-1,7.098901849E0
1.656333504E1,-3.494581418E0,5.687410664E0,-6.187541145E-1,6.703849342E0
