"Time (s)","Linear Acceleration x (m/s^2)","Linear Acceleration y (m/s^2)","Linear Acceleration z (m/s^2)","Absolute acceleration (m/s^2)"
-1.461874999E-3,3.901466205E-1,-8.304800391E-2,-6.837944484E-1,7.916351458E-1
8.529125000E-3,1.066319662E0,1.422218263E-1,-1.257665920E0,1.654988893E0
1.852012501E-2,1.318798560E0,1.417157498E-1,-1.121885387E0,1.737221867E0
2.851112501E-2,1.200447991E0,1.578058255E-1,-8.349712855E-1,1.470766843E0
3.850212500E-2,1.017996883E0,7.638217807E-3,-9.714827210E-1,1.407179688E0
4.849312500E-2,8.627681447E-1,9.034211308E-2,-5.077716225E-1,1.005167941E0
5.848412500E-2,1.015877779E0,1.029709294E-1,-2.336711097E-1,1.047479289E0
6.847512500E-2,1.030221364E0,-1.119870436E-1,1.533456278E0,1.850779651E0
7.846612500E-2,6.175009100E-1,-1.177626309E-1,2.077259029E0,2.170295022E0
8.845812501E-2,3.141054082E-1,1.253488085E-1,8.085904026E-1,8.764661833E-1
9.844912501E-2,-2.333391340E-1,4.798049748E-2,-6.504939705E-1,6.927421492E-1
1.084401250E-1,-6.870036927E-1,-2.126711270E-1,-2.003343791E0,2.128518129E0
1.184311250E-1,-4.793676031E-1,-5.960446984E-1,-3.592425801E0,3.672953269E0
1.284221250E-1,4.614300996E-2,-6.446289209E-1,-4.750724139E0,4.794481772E0
1.384131250E-1,-1.224835266E-1,-6.858900905E-2,-2.994034030E0,2.997323213E0
1.484041250E-1,-6.113993405E-1,7.384004259E-1,8.081922072E-1,1.253881568E0
1.583951250E-1,-6.387906222E-1,1.138089775E0,2.533312029E0,2.849731852E0
1.683861250E-1,-1.331716521E-1,3.965146038E-1,1.167707677E0,1.240362745E0
1.783771250E-1,-3.579026614E-1,-1.032509234E0,-1.290548322E0,1.691060201E0
1.883681250E-1,-1.036562670E0,-1.546429203E0,-2.600892393E0,3.198522579E0
1.983591250E-1,-5.986168154E-1,-1.516754876E0,-2.704024998E0,3.157631808E0
2.083501250E-1,1.974101865E-1,-1.463362196E0,-1.207016169E0,1.907167463E0
2.183411250E-1,-1.462769435E-1,-1.443319695E0,-1.846655953E-1,1.462419252E0
2.283321250E-1,-1.138789760E0,-9.343838918E-1,-3.408353698E-1,1.511980200E0
2.383231250E-1,-1.652880980E0,-1.650610507E-2,-3.622525513E-1,1.692192335E0
2.483141250E-1,-1.564357644E0,5.618531048E-1,-5.436209017E-1,1.748833163E0
2.583051250E-1,-7.705376733E-1,7.773522377E-1,-7.775826180E-1,1.342624123E0
2.682961250E-1,2.434831030E-1,7.053195110E-1,-5.327111667E-1,9.168101337E-1
2.782871250E-1,8.845748969E-1,2.035465470E-1,1.445203668E-1,9.191246278E-1
2.882781250E-1,9.153663345E-1,-7.233315665E-1,3.264243221E-1,1.211468910E0
2.982691250E-1,4.564288299E-1,-1.534595024E0,-2.260287988E-1,1.616910072E0
3.082601250E-1,-1.339072318E-1,-9.940187672E-1,5.659467405E-1,1.151651062E0
3.182511250E-1,-2.440939908E-1,-6.713042110E-2,1.467613707E0,1.489287871E0
3.282421250E-1,4.828249155E-1,-2.726018715E-1,1.976955307E-1,5.886554189E-1
3.382341250E-1,1.080822292E0,-7.428615591E-1,1.372049153E-2,1.311567144E0
3.482251250E-1,8.082119416E-1,-1.526103112E0,-1.630707169E0,2.375163810E0
3.582161250E-1,2.002047171E0,-1.211370883E0,-2.401721610E0,3.353189374E0
3.682071250E-1,4.291875585E0,4.325737980E-1,-2.771877843E0,5.127438239E0
3.781981250E-1,4.768688539E0,2.110496064E0,-3.038689801E0,6.035579486E0
3.881891250E-1,5.459899011E0,3.033283466E0,-3.450971130E0,7.135860672E0
3.981801250E-1,6.150524762E0,2.331458835E0,-4.502985213E0,7.971294184E0
4.081711250E-1,5.836911689E0,1.003974237E0,-5.226914365E0,7.899249085E0
4.181621250E-1,2.831361860E0,-2.954598069E-2,-5.018975097E0,5.762603055E0
4.281531250E-1,-3.771614602E0,4.752666584E-1,-2.481850684E0,4.539883029E0
4.381441250E-1,-3.807944522E0,1.175744675E0,-2.119273612E0,4.513772000E0
4.481351250E-1,-3.154399767E0,1.829506069E-1,-2.653925470E0,4.126382097E0
4.581261250E-1,-2.720352763E0,-5.027678677E-1,-2.953012304E0,4.046402891E0
4.681171250E-1,-1.751238164E0,-4.022752807E-1,-3.158703318E0,3.634015294E0
4.781081250E-1,-1.037211857E0,9.736900449E-2,-2.631435324E0,2.830148587E0
4.880991250E-1,-4.757090002E-1,4.192629039E-1,-1.172960815E0,1.333385732E0
4.980901250E-1,-5.309739590E-2,5.668173909E-1,2.313749081E-1,6.145206556E-1
5.080811250E-1,-3.192053497E-2,3.142752698E-1,3.340145928E-1,4.597321111E-1
5.180721250E-1,-6.941171229E-1,4.012391540E-1,-5.814395231E-1,9.903854593E-1
5.280631250E-1,-1.209119997E0,1.084844445E0,-2.484919887E0,2.968785186E0
5.380541250E-1,-2.040425078E0,1.826273436E0,-4.430922958E0,5.208808637E0
5.480451250E-1,-3.544846423E0,1.338873221E0,-6.334482259E0,7.381340200E0
5.580361250E-1,-4.194480852E0,3.295862040E-1,-6.569809885E0,7.801583084E0
5.680271250E-1,-2.760126109E0,1.508733374E0,-1.933581246E0,3.692331101E0
5.780181250E-1,2.951741120E0,4.152946910E0,6.358816617E0,8.148269291E0
5.880091250E-1,1.269317433E1,6.140838264E0,1.497761483E1,2.057074415E1
5.980001250E-1,1.256857250E1,6.186041334E0,1.515800611E1,2.063979824E1
6.079911250E-1,1.253053870E1,6.136673877E0,1.528740850E1,2.069729512E1
6.179831250E-1,1.256637395E1,5.994499998E0,1.538506519E1,2.074965097E1
6.279741250E-1,1.262335974E1,5.809913340E0,1.550273572E1,2.081920073E1
6.379651250E-1,1.706499597E1,6.678886185E0,1.249864331E1,2.218192266E1
6.479561250E-1,1.039871638E1,5.451860259E0,6.709361873E0,1.352300334E1
6.579473750E-1,7.426177887E0,5.069689752E0,2.976353804E0,9.471459980E0
6.679383750E-1,7.518548691E0,4.930873345E0,1.519005470E0,9.118632791E0
6.779293750E-1,8.522572922E0,4.635729287E0,1.986084564E0,9.902967592E0
6.879203750E-1,8.423411745E0,3.978886995E0,3.163319402E0,9.838292372E0
6.979113750E-1,7.082698406E0,2.893501098E0,3.889784491E0,8.582970855E0
7.079023750E-1,4.907792630E0,1.826797054E0,4.096990811E0,6.648981101E0
7.178933750E-1,2.807400847E0,3.905349487E-1,4.278471720E0,5.132186407E0
7.278843750E-1,1.229847792E0,-1.197332595E0,4.932134004E0,5.222267397E0
7.378753750E-1,-4.109762299E-1,-2.380007390E0,5.443053183E0,5.954843792E0
7.478663750E-1,-2.345776620E0,-3.240659646E0,4.870420736E0,6.302820086E0
7.578573750E-1,-4.745343531E0,-3.672356654E0,3.429835199E0,6.911458465E0
7.678483750E-1,-7.281607819E0,-4.109343054E0,1.404318620E0,8.478244131E0
7.778393750E-1,-9.460244118E0,-4.880979053E0,-6.985633457E-1,1.066809102E1
7.878303750E-1,-1.134159394E1,-5.373348525E0,-2.416624993E0,1.278063785E1
7.978213750E-1,-1.298413880E1,-5.558639188E0,-3.872317396E0,1.464517572E1
8.078123750E-1,-1.417731578E1,-5.792327839E0,-4.912765102E0,1.608361295E1
8.178033750E-1,-1.476297056E1,-6.242237754E0,-5.828944273E0,1.705542211E1
8.277943750E-1,-1.490977543E1,-6.464723725E0,-6.245856012E0,1.740990447E1
8.377853750E-1,-1.453811471E1,-6.451308458E0,-5.797048881E0,1.692873108E1
8.477763750E-1,-1.380603629E1,-6.303078618E0,-4.966082354E0,1.596863839E1
8.577673750E-1,-1.281296858E1,-6.022453782E0,-4.511152019E0,1.485909169E1
8.677583750E-1,-1.129020276E1,-5.627418231E0,-4.630414753E0,1.343790367E1
8.777493750E-1,-9.658264754E0,-5.176582117E0,-5.144473302E0,1.210556426E1
8.877403750E-1,-8.836081329E0,-5.004125508E0,-5.561271604E0,1.157779544E1
8.977323750E-1,-8.953279996E0,-5.183337990E0,-5.429936709E0,1.168385331E1
9.077233750E-1,-9.525468054E0,-5.546459438E0,-4.753192248E0,1.200377401E1
9.177143750E-1,-1.004594217E1,-6.030345769E0,-3.822570163E0,1.232469338E1
9.277053750E-1,-1.014718788E1,-6.450367057E0,-2.808342834E0,1.234744696E1
9.376963750E-1,-9.765819608E0,-6.683973262E0,-1.743673914E0,1.196190327E1
9.476873750E-1,-9.201935765E0,-6.788975222E0,-6.089983276E-1,1.145149271E1
9.576783750E-1,-8.711133932E0,-6.681136778E0,2.802848205E-1,1.098180325E1
9.676693750E-1,-7.869410282E0,-6.276277905E0,6.533542822E-1,1.008692988E1
9.776603750E-1,-6.776301967E0,-5.615004008E0,4.044897674E-1,8.809662328E0
9.876513750E-1,-6.003395952E0,-4.844469624E0,-3.952556983E-1,7.724368968E0
9.976423750E-1,-5.431429503E0,-4.217851004E0,-1.357352469E0,7.009500643E0
1.007633375E0,-4.919649614E0,-3.501620881E0,-2.069150695E0,6.383234738E0
1.017624375E0,-3.741398238E0,-2.719062867E0,-1.877590063E0,4.991663860E0
1.027615375E0,-2.063688810E0,-1.901898108E0,-1.268892574E0,3.079953942E0
1.037606375E0,7.078206575E-1,-7.333648038E-1,-1.798574299E-1,1.034979572E0
1.047597375E0,5.343286235E0,1.358080739E0,1.535826740E0,5.723098362E0
1.057588375E0,1.214353840E1,4.317064220E0,3.664863740E0,1.339902215E1
1.067579375E0,1.208734315E1,4.369935621E0,3.726631387E0,1.338237584E1
1.077570375E0,1.202246946E1,4.368206015E0,3.908926521E0,1.337537671E1
1.087561375E0,1.197438663E1,4.310062180E0,4.160557939E0,1.338927980E1
1.097552375E0,1.195953003E1,4.207248833E0,4.422739487E0,1.342728289E1
1.107543375E0,1.196993573E1,4.088993574E0,4.662687583E0,1.348109363E1
1.117534375E0,1.198092850E1,3.989947003E0,4.883668773E0,1.353929634E1
1.127525375E0,1.197420186E1,3.930113615E0,5.099723976E0,1.359538480E1
1.137516375E0,1.194658429E1,3.910304418E0,5.319087533E0,1.364932413E1
1.147507375E0,1.190130579E1,3.926692994E0,5.537958171E0,1.370142249E1
1.157498375E0,1.123714630E1,7.523422346E0,1.558843573E-1,1.352403936E1
1.167489375E0,1.026887428E1,7.253964522E0,3.434426433E-1,1.257727050E1
1.177480375E0,9.661949084E0,7.024521534E0,9.260095827E-1,1.198142966E1
1.187471375E0,9.335556337E0,6.429885430E0,1.631468477E0,1.145241146E1
1.197462375E0,8.583813735E0,5.241982055E0,2.147587000E0,1.028456922E1
1.207453375E0,7.099219714E0,3.489713611E0,2.493699481E0,8.294308816E0
1.217445375E0,4.756591820E0,1.664293576E0,2.409044078E0,5.585564628E0
1.227436375E0,1.378049566E0,-9.779000401E-2,1.851776944E0,2.310337928E0
1.237427375E0,-2.649290966E0,-2.116618976E0,8.967758433E-1,3.507566881E0
1.247418375E0,-6.858417925E0,-4.101476794E0,-6.051100753E-2,7.991474827E0
1.257409375E0,-1.039899939E1,-5.591788808E0,-9.482552415E-1,1.184510356E1
1.267400375E0,-1.293954793E1,-6.821447734E0,-1.934900377E0,1.475492763E1
1.277391375E0,-1.488215318E1,-8.052763177E0,-2.857262394E0,1.716069423E1
1.287382375E0,-1.638111849E1,-8.952851395E0,-3.690509335E0,1.902930504E1
1.297373375E0,-1.752314871E1,-9.164912365E0,-4.158763720E0,2.020771325E1
1.307364375E0,-1.764735994E1,-9.538717845E0,-5.059450108E0,2.068851097E1
1.317355375E0,-1.703175338E1,-9.968656011E0,-6.313590742E0,2.071994580E1
1.327346375E0,-1.596185910E1,-9.528883998E0,-6.584745428E0,1.972154782E1
1.337337375E0,-1.431754370E1,-8.740876379E0,-6.237336618E0,1.789690883E1
1.347328375E0,-1.232576921E1,-8.024509431E0,-5.274780841E0,1.562500084E1
1.357319375E0,-1.030570823E1,-7.392972718E0,-4.044298627E0,1.331240095E1
1.367310375E0,-8.910656717E0,-6.910736471E0,-2.730548553E0,1.160232637E1
1.377301375E0,-8.370807855E0,-6.662194723E0,-1.492946622E0,1.080204389E1
1.387292375E0,-8.686424183E0,-6.543281068E0,-6.741499047E-1,1.089600708E1
1.397283375E0,-9.494202408E0,-6.392536340E0,-3.900683409E-1,1.145236017E1
1.407274375E0,-1.037360025E1,-6.309108267E0,-4.551278244E-1,1.215004406E1
1.417265375E0,-1.089752598E1,-6.253699467E0,-6.356474514E-1,1.258049590E1
1.427256375E0,-1.057506256E1,-6.042890385E0,-9.227246900E-1,1.221474082E1
1.437247375E0,-9.441444150E0,-5.409513554E0,-1.095212143E0,1.093632453E1
1.447238375E0,-8.214549787E0,-4.675558766E0,-1.092053623E0,9.514844145E0
1.457229375E0,-6.939335788E0,-4.131713331E0,-1.244795760E0,8.171594258E0
1.467220375E0,-6.123022383E0,-3.445408673E0,-1.185678656E0,7.125172131E0
1.477211375E0,-5.189838340E0,-2.923135956E0,-1.143117358E0,6.065135044E0
1.487202375E0,-4.245326486E0,-2.290856647E0,-1.311722406E0,4.999143608E0
1.497193375E0,-2.538148845E0,-1.063258864E0,-1.655195455E0,3.211291168E0
1.507184375E0,-3.989572781E-1,6.742506230E-1,-2.362300267E0,2.488823690E0
1.517175375E0,1.477139406E0,1.495337695E0,-2.747035070E0,3.458927192E0
1.527166375E0,3.624869077E0,2.265244965E0,-5.472198629E-1,4.309345676E0
1.537157375E0,7.924772304E0,4.654101824E0,4.131747245E0,1.007640884E1
1.547149375E0,1.640108790E1,7.628233686E0,8.200379060E0,1.986030841E1
1.557140375E0,1.632158565E1,7.702038996E0,8.408751022E0,1.991036556E1
1.567131375E0,1.628843428E1,7.705667778E0,8.588386257E0,1.996123207E1
1.577122375E0,1.631058002E1,7.631467781E0,8.689700963E0,1.999462988E1
1.587113375E0,1.636973864E1,7.514816414E0,8.705399567E0,2.000561897E1
1.597104375E0,1.643003747E1,7.416422392E0,8.661474699E0,1.999926489E1
1.607095375E0,1.646152706E1,7.379945707E0,8.592023810E0,1.998170025E1
1.617086375E0,1.645686800E1,7.409865909E0,8.521797581E0,1.995884894E1
1.627077375E0,1.642778278E1,7.482458507E0,8.461315151E0,1.993622548E1
1.637068375E0,1.638936540E1,7.569185579E0,8.416679261E0,1.991844267E1
1.647059375E0,1.635582578E1,7.644173196E0,8.385249892E0,1.990625119E1
1.657050375E0,1.633912964E1,7.685752746E0,8.359883502E0,1.989787940E1
1.667040292E0,1.142126810E1,5.991692750E0,7.424921320E0,1.488204299E1
1.677031292E0,9.151246253E0,3.757136604E0,7.779188329E0,1.258479855E1
1.687022292E0,6.005377573E0,1.220440499E0,7.104702648E0,9.382474861E0
1.697013292E0,2.135600792E0,-1.233613106E0,5.546368221E0,6.069991144E0
1.707004292E0,-2.842066065E0,-3.617430834E0,3.011838217E0,5.498573888E0
1.716995292E0,-9.018187013E0,-5.458606777E0,-3.372665218E-1,1.054693480E1
1.726986292E0,-1.495583395E1,-7.072024314E0,-3.774140307E0,1.696863672E1
1.736977292E0,-1.944728377E1,-8.105387533E0,-6.848385272E0,2.215388305E1
1.746968292E0,-2.242940235E1,-8.464539306E0,-8.822606421E0,2.554534986E1
1.756959292E0,-2.243025838E1,-8.515767932E0,-9.613784984E0,2.584685003E1
1.766950292E0,-2.004697070E1,-9.084144775E0,-1.032146648E1,2.430916270E1
1.776941292E0,-1.722736379E1,-8.496898967E0,-8.575414794E0,2.103609028E1
1.786932292E0,-1.467301699E1,-7.345388662E0,-5.990084766E0,1.746806451E1
1.796923292E0,-1.233972067E1,-6.933127799E0,-4.550031910E0,1.486740588E1
1.806914292E0,-1.101489246E1,-6.576959276E0,-3.371722646E0,1.326471872E1
1.816905292E0,-1.033981504E1,-6.142520508E0,-2.266011243E0,1.223834712E1
1.826896292E0,-9.568268504E0,-5.816681492E0,-1.195439267E0,1.126119979E1
1.836887292E0,-8.523103849E0,-5.324376340E0,-6.221090276E-2,1.004968421E1
1.846878292E0,-7.631870070E0,-4.633372859E0,9.551794412E-1,8.979195542E0
1.856869292E0,-6.982447309E0,-4.059005544E0,1.617820491E0,8.236955722E0
1.866860292E0,-6.438317699E0,-3.611653200E0,1.983901214E0,7.644072060E0
1.876851292E0,-6.074902137E0,-3.263320531E0,2.034863207E0,7.189879354E0
1.886842292E0,-5.929460834E0,-2.935113100E0,1.708949347E0,6.833293683E0
1.896833292E0,-5.988177989E0,-2.631752243E0,1.136129204E0,6.638914449E0
1.906824292E0,-6.220982541E0,-2.323411605E0,4.714247453E-1,6.657409898E0
1.916815292E0,-6.439524565E0,-2.149472142E0,-1.140101802E-1,6.789750027E0
1.926806292E0,-6.602412790E0,-2.052515658E0,-6.992217422E-1,6.949358692E0
1.936798292E0,-6.777902350E0,-1.954825349E0,-1.305187411E0,7.173898284E0
1.946789292E0,-6.833822781E0,-1.812734501E0,-1.627150308E0,7.254981620E0
1.956780292E0,-6.766956362E0,-1.554405683E0,-1.684489859E0,7.144605064E0
1.966771292E0,-6.746240847E0,-1.249644710E0,-2.072304098E0,7.167134834E0
1.976762292E0,-6.166618638E0,-8.701165599E-1,-2.754772983E0,6.809776974E0
1.986753292E0,-5.690068808E0,-2.257639199E-1,-3.224010285E0,6.543859313E0
1.996744292E0,-5.363443342E0,1.935369909E-2,-4.085848941E0,6.742481785E0
2.006735292E0,-4.577426700E0,-3.835364163E-2,-4.226775609E0,6.230564842E0
2.016726292E0,-4.167965484E0,5.829831880E-1,-3.284532475E0,5.338535309E0
2.026717292E0,-2.367408394E0,2.594911276E0,-1.494575803E0,3.817321557E0
2.036708292E0,4.988215234E0,6.301405145E0,1.635635203E0,8.201542571E0
2.046699292E0,1.808104558E1,1.013061336E1,5.723711933E0,2.150149797E1
2.056690292E0,1.802225651E1,1.022828993E1,5.761832855E0,2.150856486E1
2.066681292E0,1.802672495E1,1.021860577E1,5.769469319E0,2.150975343E1
2.076672292E0,1.808158821E1,1.011758810E1,5.783295060E0,2.151176243E1
2.086663292E0,3.105754207E1,6.282699317E0,6.399964058E0,3.232650260E1
2.096654292E0,3.109477012E1,6.203819209E0,6.493093246E0,3.236560461E1
2.106645292E0,3.109039875E1,6.191767513E0,6.625083615E0,3.238583968E1
2.116636292E0,3.105633053E1,6.231237388E0,6.774774674E0,3.239168963E1
2.126627292E0,3.100854474E1,6.299189635E0,6.926998748E0,3.239124803E1
2.136618292E0,3.095755468E1,6.379196502E0,7.074640358E0,3.239004286E1
2.146609292E0,1.149443080E1,3.516916320E0,2.621294498E0,1.230291936E1
2.156600292E0,1.019313764E1,3.400385990E0,3.917088357E0,1.143705648E1
2.166591292E0,7.988183604E0,3.044366863E0,4.695507127E0,9.753308878E0
2.176582292E0,5.894645342E0,2.320422216E0,4.729749591E0,7.905803828E0
2.186573292E0,4.498137286E0,1.544125400E0,4.432965975E0,6.501442119E0
2.196564292E0,2.676909120E0,5.699950603E-1,4.175914189E0,4.992894563E0
2.206555292E0,-2.587328607E-1,-8.733687812E-1,3.922404646E0,4.026782081E0
2.216546292E0,-4.170396756E0,-2.336897038E0,3.499225277E0,5.924345905E0
2.226537292E0,-8.196253265E0,-3.771995548E0,2.809450296E0,9.449842801E0
2.236528292E0,-1.185168398E1,-5.136873676E0,2.331964327E0,1.312585015E1
2.246519292E0,-1.492693116E1,-6.220312450E0,1.617141044E0,1.625179086E1
2.256510292E0,-1.750060886E1,-7.035921850E0,1.051808115E-1,1.886230553E1
2.266501292E0,-1.930665590E1,-7.444803607E0,-2.098738775E0,2.079847993E1
2.276492292E0,-2.042660235E1,-7.350048893E0,-4.268377379E0,2.212438356E1
2.286483292E0,-2.059324800E1,-6.893678389E0,-6.003924540E0,2.253112901E1
2.296474292E0,-1.955726639E1,-6.205964552E0,-6.091754397E0,2.140350757E1
2.306465292E0,-1.696524013E1,-6.666603523E0,-6.278777590E0,1.927916034E1
2.316456292E0,-1.455997160E1,-6.010672227E0,-4.604177127E0,1.641095368E1
2.326447292E0,-1.206556344E1,-5.314611490E0,-2.805889342E0,1.347946332E1
2.336438292E0,-9.717992308E0,-5.054495178E0,-1.886691839E0,1.111516541E1
2.346429292E0,-8.214385480E0,-4.609270052E0,-1.020765905E0,9.474358145E0
2.356420292E0,-7.225788544E0,-4.307632661E0,-4.343089592E-1,8.423558838E0
2.366411292E0,-6.487899165E0,-3.984472840E0,-5.296638172E-2,7.613912583E0
2.376403292E0,-5.957261420E0,-3.623705481E0,2.185818215E-1,6.976244194E0
2.386394292E0,-5.560253019E0,-3.382399662E0,4.222333260E-1,6.521910924E0
2.396385292E0,-5.250645289E0,-3.164438267E0,5.016256142E-1,6.150981528E0
2.406376292E0,-4.936438140E0,-2.966300687E0,4.564768501E-1,5.777173391E0
2.416367292E0,-4.436778944E0,-2.684663113E0,4.468360341E-1,5.205005847E0
2.426358292E0,-4.156162294E0,-2.558870793E0,4.331102800E-1,4.899907067E0
2.436349292E0,-3.994527127E0,-2.928939902E0,2.047589672E-1,4.957505638E0
2.446340292E0,-3.910404405E0,-2.836891279E0,-5.190580644E-2,4.831346495E0
2.456331292E0,-3.235622270E0,-2.079810169E0,-4.730993879E-1,3.875394798E0
2.466322292E0,-2.073426179E0,-1.256084248E0,-9.353498518E-1,2.598407802E0
2.476313292E0,-9.370636708E-1,-6.060065997E-1,-1.500532361E0,1.870007938E0
2.486304292E0,-5.308102369E-2,-5.121739912E-1,-2.258381796E0,2.316339381E0
2.496295292E0,9.277174813E-1,-5.141468418E-1,-2.562854501E0,2.773667228E0
2.506286292E0,2.532316833E0,1.634676844E-1,-2.280098355E0,3.411480431E0
2.516277292E0,5.403538284E0,1.765108929E0,-1.336612687E0,5.839552123E0
2.526268292E0,1.028019098E1,4.237462565E0,7.401446503E-1,1.114388755E1
2.536259292E0,1.020460753E1,4.367562529E0,7.042398226E-1,1.112230062E1
2.546250292E0,1.013835273E1,4.485069344E0,6.860351014E-1,1.110732584E1
2.556241292E0,1.009330812E1,4.567192611E0,6.739138234E-1,1.109902145E1
2.566232292E0,1.006672083E1,4.616512413E0,6.678186858E-1,1.109491041E1
2.576223292E0,1.004272854E1,4.660970840E0,6.742535466E-1,1.109214423E1
2.586214292E0,1.000471228E1,4.731857805E0,6.994000822E-1,1.108936006E1
2.596205292E0,9.947464532E0,4.841293708E0,7.459591216E-1,1.108813016E1
2.606196292E0,9.878000779E0,4.979409328E0,8.073408526E-1,1.109149295E1
2.616187292E0,9.807078731E0,5.127315817E0,8.692552650E-1,1.110062005E1
2.626178292E0,9.744260924E0,5.264714860E0,9.150798941E-1,1.111329000E1
2.636169292E0,9.697158678E0,5.371810123E0,9.309410512E-1,1.112465198E1
2.646160292E0,9.672736028E0,5.428688328E0,9.073475361E-1,1.112905022E1
2.656151292E0,1.051855390E1,4.576327131E0,3.285893707E0,1.193230253E1
2.666142667E0,7.542967833E0,2.931338722E0,4.189811851E0,9.112827980E0
2.676133667E0,3.336690808E0,1.054168198E-1,4.289341401E0,5.435353522E0
2.686124667E0,-1.906505129E0,-2.565695663E0,3.451212620E0,4.704085946E0
2.696115667E0,-7.052568288E0,-4.584835122E0,1.848389068E0,8.612547515E0
2.706106667E0,-1.177507143E1,-6.236067188E0,-3.133324428E-1,1.332812884E1
2.716097667E0,-1.619410232E1,-7.758930066E0,-2.709823682E0,1.816020622E1
2.726088667E0,-2.026529404E1,-8.891073223E0,-5.424697604E0,2.278509754E1
2.736079667E0,-2.414396502E1,-9.925042799E0,-8.080039853E0,2.732626146E1
2.746070667E0,-2.613279018E1,-1.056589530E1,-1.028792568E1,3.000670393E1
2.756061667E0,-2.563884780E1,-1.031361835E1,-1.098992251E1,2.974053861E1
2.766052667E0,-2.253055450E1,-9.364043387E0,-9.702428189E0,2.625734769E1
2.776043667E0,-1.815015266E1,-8.291783320E0,-7.532969095E0,2.132902566E1
2.786034667E0,-1.437775365E1,-6.995543318E0,-5.164105328E0,1.680254178E1
2.796025667E0,-1.158645662E1,-5.902943126E0,-2.902825652E0,1.332355476E1
2.806016667E0,-9.547340734E0,-5.182022367E0,-1.087972121E0,1.091736022E1
2.816007667E0,-8.170064755E0,-4.627498162E0,3.830306687E-1,9.397361855E0
2.825998667E0,-7.422019932E0,-4.141682542E0,1.431265075E0,8.619073840E0
2.835989667E0,-7.096883166E0,-3.846185313E0,1.988721659E0,8.313477369E0
2.845980667E0,-6.900958757E0,-3.583564053E0,2.094953288E0,8.053197649E0
2.855971667E0,-6.779417948E0,-3.147443334E0,1.933566628E0,7.720465476E0
2.865962667E0,-6.805225804E0,-2.565131407E0,1.523030108E0,7.430384787E0
2.875954667E0,-6.772060981E0,-2.002019981E0,8.096861708E-1,7.108057796E0
2.885945667E0,-6.478817854E0,-1.510158048E0,1.462108151E-1,6.654099166E0
2.895936667E0,-5.941292675E0,-1.126370786E0,-3.342128134E-1,6.056349395E0
2.905927667E0,-5.373494706E0,-8.216323248E-1,-6.406010664E-1,5.473563259E0
2.915918667E0,-5.036606791E0,-5.163138199E-1,-7.724195266E-1,5.121583725E0
2.925909667E0,-4.800952306E0,-3.337084910E-1,-8.175144231E-1,4.881478693E0
2.935900667E0,-4.354589896E0,-1.836437944E-1,-1.079401857E0,4.490132133E0
2.945891667E0,-3.453866671E0,2.253771266E-1,-1.586139107E0,3.807338584E0
2.955882667E0,-2.178464976E0,8.993780735E-1,-2.224840997E0,3.241065879E0
2.965873667E0,-9.807967508E-1,1.433973213E0,-2.918448243E0,3.396407159E0
2.975864667E0,3.725038898E-1,1.081701567E0,-3.762533584E0,3.932619533E0
2.985855667E0,2.008629089E0,-5.679160827E-1,-4.200087748E0,4.690187265E0
2.995846667E0,3.527640991E0,-1.032563613E0,-3.672485878E0,5.195920621E0
3.005837667E0,7.232728019E0,8.678048632E-1,-2.990929744E0,7.874712732E0
3.015828667E0,1.463228529E1,4.132992994E0,-1.988146877E0,1.533421442E1
3.025819667E0,1.459352760E1,4.251200891E0,-1.977289767E0,1.532819075E1
3.035810667E0,1.457565383E1,4.305139116E0,-1.943794577E0,1.532195304E1
3.045801667E0,1.458390309E1,4.277316895E0,-1.923731611E0,1.531947820E1
3.055792667E0,1.461313215E1,4.186445316E0,-1.928451483E0,1.532282222E1
3.065783667E0,1.464974273E1,4.077335688E0,-1.943042625E0,1.533020036E1
3.075774667E0,1.468055288E1,3.987612502E0,-1.939765846E0,1.533565708E1
3.085765667E0,1.470080881E1,3.927986398E0,-1.903607833E0,1.533514198E1
3.095756667E0,1.471408082E1,3.888297837E0,-1.846938958E0,1.533082574E1
3.105747667E0,1.472565947E1,3.854835099E0,-1.795756525E0,1.532741146E1
3.115738667E0,1.473993954E1,3.815512281E0,-1.768747652E0,1.532815775E1
3.125729667E0,1.259682742E1,5.677806612E0,2.715689608E0,1.408163765E1
3.135720667E0,9.743273329E0,4.925388656E0,2.977133823E0,1.131610155E1
3.145711667E0,6.608264683E0,3.364600445E0,2.816098580E0,7.932219708E0
3.155702667E0,3.344919010E0,9.484672031E-1,2.450034814E0,4.253321503E0
3.165693667E0,-2.385102654E-1,-1.788636079E0,2.227778639E0,2.866897946E0
3.175684667E0,-4.380587202E0,-4.355908736E0,1.666285138E0,6.398436630E0
3.185675667E0,-9.005331910E0,-6.540193738E0,3.435133580E-1,1.113499611E1
3.195666667E0,-1.381837392E1,-8.080909334E0,-1.287457484E0,1.605945517E1
3.205657667E0,-1.806566039E1,-8.965451560E0,-2.917607998E0,2.037792540E1
3.215648667E0,-2.168582831E1,-9.841779617E0,-4.324225305E0,2.420402239E1
3.225639667E0,-2.340644636E1,-1.090544779E1,-5.454711362E0,2.639212759E1
3.235630667E0,-2.306197051E1,-1.100772027E1,-5.791674705E0,2.620244044E1
3.245621667E0,-2.128808666E1,-1.033790651E1,-5.422813631E0,2.427883549E1
3.255612667E0,-1.848146876E1,-9.475362679E0,-4.691876006E0,2.129227291E1
3.265603667E0,-1.562848594E1,-8.546779225E0,-3.730872665E0,1.819935215E1
3.275594667E0,-1.315491959E1,-7.667441021E0,-2.816492683E0,1.548464376E1
3.285585667E0,-1.105634571E1,-6.811358948E0,-1.989167801E0,1.313751041E1
3.295576667E0,-9.394353599E0,-6.039939296E0,-1.424932541E0,1.125900435E1
3.305567667E0,-8.363308216E0,-5.421438366E0,-1.165921937E0,1.003475422E1
3.315558667E0,-8.042699534E0,-4.985531362E0,-1.101859843E0,9.526522654E0
3.325549667E0,-8.105909690E0,-4.784524846E0,-1.102594253E0,9.476980742E0
3.335540667E0,-8.106352909E0,-4.729389403E0,-1.060682507E0,9.444846689E0
3.345531667E0,-7.823796152E0,-4.560471236E0,-8.930909280E-1,9.099851402E0
3.355522667E0,-7.534392892E0,-4.131106098E0,-3.948051703E-1,8.601685007E0
3.365513667E0,-7.414536080E0,-3.726943921E0,1.848012507E-1,8.300578762E0
3.375504667E0,-7.245506524E0,-3.619764750E0,4.638081622E-1,8.112655524E0
3.385495667E0,-6.670924031E0,-3.473729662E0,5.607374561E-1,7.542045591E0
3.395486667E0,-6.054093651E0,-3.221457390E0,7.269856377E-1,6.896255924E0
3.405477667E0,-5.524776208E0,-2.872500238E0,7.431986511E-1,6.271104687E0
3.415468667E0,-4.920192820E0,-2.506710706E0,4.871678253E-1,5.543395029E0
3.425459667E0,-4.443777477E0,-2.024414525E0,3.546339948E-2,4.883305242E0
3.435450667E0,-4.077394452E0,-1.641503176E0,-6.261444104E-1,4.439789974E0
3.445441667E0,-3.733130275E0,-1.401261258E0,-1.407310202E0,4.228512359E0
3.455432667E0,-3.273258458E0,-1.030585207E0,-2.206687732E0,4.079926170E0
3.465423667E0,-2.112087384E0,-6.924287394E-1,-3.161716973E0,3.864818869E0
3.475414667E0,-2.490913868E-2,-2.958495238E-1,-3.489213674E0,3.501822307E0
3.485406667E0,3.222374234E0,1.589794494E0,-2.760161777E0,4.530964055E0
3.495397667E0,7.881892918E0,4.142496182E0,-1.564531306E0,9.040590069E0
3.505388667E0,1.377539922E1,5.932827076E0,-2.054702444E-3,1.499866878E1
3.515379667E0,1.373434124E1,6.017574281E0,2.810756564E-2,1.499480309E1
3.525370667E0,1.370336269E1,6.083702781E0,6.671908775E-2,1.499326649E1
3.535361667E0,1.368980183E1,6.113956275E0,9.976636291E-2,1.499336816E1
3.545352667E0,1.369281783E1,6.108618937E0,1.198187677E-1,1.499409357E1
3.555343667E0,1.370390882E1,6.085593771E0,1.275991460E-1,1.499492748E1
3.565334667E0,1.371359532E1,6.065074722E0,1.248100058E-1,1.499544616E1
3.575325667E0,1.371671890E1,6.057518365E0,1.060392924E-1,1.499510422E1
3.585316667E0,1.371309129E1,6.062966216E0,5.971525630E-2,1.499373196E1
3.595307667E0,1.370631788E1,6.074716780E0,-1.793807904E-2,1.499218648E1
3.605298667E0,1.369454626E1,5.971866011E0,2.136579031E0,1.509200951E1
3.615289667E0,1.369378496E1,5.975123495E0,2.023947040E0,1.507707561E1
3.625280667E0,8.980982934E0,3.919862276E0,3.209057785E0,1.031122818E1
3.635271667E0,6.446036024E0,2.227497972E0,3.741479514E0,7.778932870E0
3.645262667E0,4.004072122E0,3.917847911E-1,4.068295015E0,5.721635536E0
3.655253667E0,9.646093190E-1,-1.561499525E0,4.096931169E0,4.489275767E0
3.665244500E0,-2.508057320E0,-3.567627175E0,3.533582931E0,5.612889052E0
3.675235500E0,-6.307833574E0,-5.404501905E0,2.356296346E0,8.634207416E0
3.685226500E0,-1.021497114E1,-6.819721051E0,7.478413403E-1,1.230501919E1
3.695217500E0,-1.360297185E1,-7.692262452E0,-1.271371794E0,1.567890720E1
3.705208500E0,-1.623168705E1,-8.325160981E0,-3.446644190E0,1.856489499E1
3.715199500E0,-1.784608575E1,-8.681359325E0,-5.325530580E0,2.054775054E1
3.725190500E0,-1.866971168E1,-9.039664421E0,-6.538542484E0,2.174916561E1
3.735181500E0,-1.794604039E1,-8.972057160E0,-6.995941513E0,2.124856167E1
3.745172500E0,-1.662996196E1,-8.464265656E0,-6.674849267E0,1.981799789E1
3.755163500E0,-1.509028600E1,-7.844480678E0,-5.886851588E0,1.799743399E1
3.765154500E0,-1.347249123E1,-7.462907172E0,-5.264313741E0,1.627624043E1
3.775145500E0,-1.212174816E1,-6.992549543E0,-4.363953627E0,1.465867044E1
3.785136500E0,-1.109385794E1,-6.390179912E0,-3.256375208E0,1.321030139E1
3.795127500E0,-1.022181706E1,-5.951622366E0,-2.397605170E0,1.206879710E1
3.805118500E0,-9.452571986E0,-5.616330156E0,-1.564930086E0,1.110600233E1
3.815109500E0,-8.635639946E0,-5.370902050E0,-8.042377353E-1,1.020135601E1
3.825100500E0,-7.972011960E0,-5.143574585E0,-6.632032592E-2,9.487556723E0
3.835091500E0,-7.670901988E0,-4.961595200E0,5.740012801E-1,9.153668211E0
3.845082500E0,-7.648151057E0,-4.789854875E0,9.488053914E-1,9.073982366E0
3.855073500E0,-7.896475289E0,-4.550799942E0,1.140093616E0,9.184983155E0
3.865064500E0,-8.323205672E0,-4.245603936E0,1.247971237E0,9.426470052E0
3.875055500E0,-8.885717758E0,-3.902366238E0,1.251447991E0,9.785221735E0
3.885046500E0,-9.355065572E0,-3.309679303E0,1.172686581E0,9.992318188E0
3.895037500E0,-9.379901621E0,-2.471892291E0,1.068064690E0,9.758768780E0
3.905028500E0,-8.477205545E0,-1.487006582E0,6.129355502E-1,8.628435108E0
3.915019500E0,-7.116776564E0,1.541264650E-1,4.803230381E-1,7.134632005E0
3.925010500E0,-5.522854228E0,2.248913400E0,4.727906549E-1,5.981894458E0
3.935001500E0,-3.728170082E0,4.056626896E0,3.597359097E-1,5.521311788E0
3.944992500E0,-1.774203689E0,5.558626324E0,4.782987320E-1,5.854476494E0
3.954983500E0,6.347596979E-1,6.593769436E0,6.984731158E-2,6.624620283E0
3.964974500E0,2.622822960E0,7.154239089E0,-2.555577860E-1,7.624148937E0
3.974965500E0,4.173705695E0,7.202747006E0,-8.944362992E-1,8.372538441E0
3.984956500E0,7.369045912E0,7.882774093E0,-2.799558415E-1,1.079441246E1
3.994947500E0,1.467005362E1,9.204855280E0,2.163697248E0,1.745340711E1
4.004938500E0,1.463713848E1,9.316178080E0,2.007603487E0,1.746618071E1
4.014929500E0,1.462718652E1,9.368743379E0,1.905806386E0,1.747455395E1
4.024920500E0,1.464795816E1,9.338727282E0,1.860173546E0,1.747096881E1
4.034911500E0,1.469098899E1,9.240991657E0,1.880650641E0,1.745731741E1
4.044902500E0,1.473742992E1,9.116923681E0,1.976334332E0,1.744178991E1
4.054893500E0,1.477092043E1,9.006582629E0,2.142920337E0,1.743246192E1
4.064884500E0,1.478625417E1,8.930371774E0,2.359610547E0,1.743423684E1
4.074875500E0,1.478820597E1,8.888197562E0,2.597868798E0,1.744820948E1
4.084866500E0,1.334417408E1,3.633283513E0,-1.854958634E-1,1.383120168E1
4.094857500E0,1.334584405E1,3.617548071E0,2.810520848E-2,1.382747256E1
4.104848500E0,9.346901690E0,2.756152048E0,1.526181757E-1,9.745985718E0
4.114839500E0,6.219555820E0,1.250130029E0,3.163344033E-1,6.351831794E0
4.124830500E0,3.313939292E0,-3.940473711E-1,5.828715062E-1,3.387802555E0
4.134821500E0,5.189438975E-1,-2.061587906E0,9.927332568E-1,2.346266562E0
4.144812500E0,-2.125082236E0,-3.863416472E0,1.149222289E0,4.556607644E0
4.154803500E0,-4.820841610E0,-5.557821747E0,1.011515683E0,7.426510646E0
4.164794500E0,-7.634966170E0,-7.144826242E0,5.637546194E-1,1.047182265E1
4.174785500E0,-1.053550732E1,-8.491003804E0,-1.516264788E-1,1.353207488E1
4.184776500E0,-1.348990424E1,-9.596434541E0,-1.227272093E0,1.660045991E1
4.194767500E0,-1.593542734E1,-1.035811098E1,-2.624108763E0,1.918630382E1
4.204758500E0,-1.818712577E1,-1.070057421E1,-4.003707840E0,2.147797730E1
4.214749500E0,-1.966968262E1,-1.089697166E1,-5.157133108E0,2.307024984E1
4.224741500E0,-1.985074516E1,-1.049484461E1,-6.007203659E0,2.324393131E1
4.234732500E0,-1.912369769E1,-9.750177721E0,-6.084041920E0,2.231137255E1
4.244723500E0,-1.725950009E1,-8.897796351E0,-5.256325275E0,2.011691027E1
4.254714500E0,-1.486754450E1,-7.978633931E0,-3.884121755E0,1.731441251E1
4.264705500E0,-1.258099199E1,-7.129762645E0,-2.537899754E0,1.468181903E1
4.274696500E0,-1.047156217E1,-6.437568086E0,-1.380936921E0,1.236943345E1
4.284687500E0,-8.741575706E0,-5.883854306E0,-4.492029870E-1,1.054687966E1
4.294678500E0,-7.556262648E0,-5.478994848E0,2.818463560E-1,9.337875942E0
4.304669500E0,-6.896201463E0,-5.229946146E0,8.165484631E-1,8.693485072E0
4.314660500E0,-6.836851639E0,-5.123958346E0,1.144124687E0,8.620122433E0
4.324651500E0,-7.424198604E0,-5.059747732E0,1.278794249E0,9.074970345E0
4.334642500E0,-8.530845562E0,-5.067574815E0,1.199988985E0,9.994779341E0
4.344633500E0,-9.667628485E0,-5.183796996E0,1.046403680E0,1.101951689E1
4.354624500E0,-1.051300372E1,-5.239668896E0,8.852497387E-1,1.177968779E1
4.364615500E0,-1.072741176E1,-5.053112896E0,7.169931847E-1,1.187962088E1
4.374606500E0,-1.003350397E1,-4.631949647E0,5.417959857E-1,1.106434374E1
4.384597500E0,-8.486734752E0,-4.156864837E0,2.115101624E-1,9.452456219E0
4.394588500E0,-6.543892102E0,-3.597142458E0,-1.541103852E-1,7.468983044E0
4.404579500E0,-5.255656938E0,-3.000502805E0,-3.241550177E-1,6.060529961E0
4.414570500E0,-4.864539022E0,-2.582641771E0,-5.180293930E-1,5.531919456E0
4.424561500E0,-5.321136982E0,-2.552523640E0,-9.147331542E-1,5.972153084E0
4.434552500E0,-5.507145098E0,-2.351629975E0,-1.150593461E0,6.097759916E0
4.444543500E0,-3.803769318E0,-8.999098778E-1,-8.387094104E-1,3.997740898E0
4.454534500E0,-3.971212524E-1,2.537557692E0,3.774359431E-1,2.596028162E0
4.464525500E0,5.627322337E0,6.310102293E0,1.679376030E0,8.620002987E0
4.474516500E0,1.535466902E1,9.230211146E0,3.774360747E0,1.830869896E1
4.484507500E0,1.528642383E1,9.384539047E0,3.783730910E0,1.833196515E1
4.494498500E0,1.525744620E1,9.444400502E0,3.814941593E0,1.834503052E1
4.504489500E0,1.526633279E1,9.419887805E0,3.826282268E0,1.834218197E1
4.514480500E0,1.529285226E1,9.366053660E0,3.795365700E0,1.833027801E1
4.524471500E0,1.531889108E1,9.325137184E0,3.728674112E0,1.831746756E1
4.534462500E0,1.533888622E1,9.304439210E0,3.647410094E0,1.830731055E1
4.544453500E0,1.535502453E1,9.292652392E0,3.571391028E0,1.829986341E1
4.554444500E0,1.537037815E1,9.278859980E0,3.510430296E0,1.829395769E1
4.564435500E0,1.538642993E1,9.258130431E0,3.466987823E0,1.828866342E1
4.574426500E0,1.378734508E1,4.779916655E0,4.397126051E0,1.524051197E1
4.584417500E0,9.320951747E0,3.275207043E0,4.044646536E0,1.067549944E1
4.594408500E0,5.617059889E0,1.821740675E0,3.628496105E0,6.930806942E0
4.604399500E0,2.841785983E0,5.940908512E-1,3.098076462E0,4.245794305E0
4.614390500E0,5.548604196E-1,-3.797146761E-1,2.221230342E0,2.320757969E0
4.624381500E0,-1.768022597E0,-1.765406260E0,7.834492756E-1,2.618464423E0
4.634372500E0,-4.300732947E0,-3.253740160E0,-4.356596661E-1,5.410446216E0
4.644363500E0,-6.697114295E0,-4.788974285E0,-1.307200608E0,8.336329408E0
4.654354500E0,-9.203518606E0,-6.307901402E0,-2.106047795E0,1.135472642E1
4.664345875E0,-1.183806231E1,-7.580811598E0,-3.097998109E0,1.439465234E1
4.674336875E0,-1.392826649E1,-8.572097084E0,-4.202093343E0,1.688594221E1
4.684327875E0,-1.565121407E1,-9.068729761E0,-4.812033364E0,1.871785315E1
4.694318875E0,-1.656819314E1,-9.933168089E0,-5.556897302E0,2.010104375E1
4.704309875E0,-1.650731193E1,-1.035487630E1,-6.195118552E0,2.044735446E1
4.714300875E0,-1.586929183E1,-9.487130785E0,-5.520346357E0,1.929544758E1
4.724291875E0,-1.435433204E1,-8.487479687E0,-4.450248005E0,1.725945733E1
4.734282875E0,-1.257484072E1,-7.837173412E0,-3.464066554E0,1.521669029E1
4.744273875E0,-1.096696517E1,-7.394009430E0,-2.495091704E0,1.345998452E1
4.754264875E0,-9.653913841E0,-6.879694188E0,-1.594001858E0,1.196114905E1
4.764255875E0,-8.792505539E0,-6.436124409E0,-8.147065902E-1,1.092682927E1
4.774246875E0,-8.404325849E0,-6.305880604E0,-4.617856103E-1,1.051713217E1
4.784237875E0,-8.449439456E0,-6.220219479E0,-4.734420347E-1,1.050277605E1
4.794228875E0,-8.695532391E0,-5.987165251E0,-7.804980397E-1,1.058619896E1
4.804219875E0,-9.259957101E0,-5.552190294E0,-1.073141828E0,1.085012700E1
4.814210875E0,-9.851915181E0,-5.288403684E0,-1.329453356E0,1.126032382E1
4.824201875E0,-1.021464954E1,-5.206573071E0,-1.457919023E0,1.155737844E1
4.834192875E0,-1.030711858E1,-5.062015867E0,-1.314181598E0,1.155801762E1
4.844183875E0,-1.011876573E1,-4.988310544E0,-1.115562208E0,1.133654008E1
4.854174875E0,-9.847860721E0,-4.896287649E0,-1.071287091E0,1.104996152E1
4.864165875E0,-9.286516909E0,-4.732012464E0,-1.197900360E0,1.049124890E1
4.874156875E0,-8.221783962E0,-4.478891761E0,-1.453465784E0,9.474743570E0
4.884147875E0,-7.363546021E0,-3.987674190E0,-1.396228559E0,8.489570639E0
4.894138875E0,-6.926279540E0,-3.374965512E0,-1.703307953E0,7.890817350E0
4.904129875E0,-6.640525526E0,-3.167717970E0,-2.699282906E0,7.836909124E0
4.914120875E0,-5.938322874E0,-3.125299344E0,-3.837649840E0,7.730377147E0
4.924111875E0,-4.322084640E0,-2.494840858E0,-4.461347190E0,6.693897616E0
4.934102875E0,-2.176382198E0,-1.139506848E0,-4.219609846E0,4.882645040E0
4.944093875E0,5.399079198E-1,7.707627180E-1,-3.102330896E0,3.241918062E0
4.954084875E0,5.359310530E0,2.877631462E0,-6.454554248E-1,6.117154967E0
4.964075875E0,1.247912881E1,5.755338353E0,3.248242316E0,1.412103586E1
4.974066875E0,1.238035180E1,5.940074115E0,3.351647986E0,1.413474922E1
4.984057875E0,1.231744979E1,6.045980054E0,3.526100249E0,1.416710370E1
4.994048875E0,1.230687569E1,6.043390907E0,3.718132167E0,1.420585336E1
5.004039875E0,1.233386644E1,5.969610740E0,3.878299098E0,1.424084680E1
5.014030875E0,1.237272235E1,5.880841820E0,3.972516453E0,1.426357059E1
5.024021875E0,1.240907917E1,5.804236863E0,3.984692110E0,1.426717150E1
5.034012875E0,1.244066934E1,5.743674327E0,3.903692386E0,1.424776693E1
5.044003875E0,1.247035682E1,5.696700720E0,3.740807084E0,1.421111663E1
5.053994875E0,1.250129327E1,5.660415823E0,3.531401920E0,1.417016021E1
5.063985875E0,1.253465865E1,5.630939425E0,3.315799291E0,1.413575860E1
5.073976875E0,1.086934357E1,4.654350623E0,4.014585416E0,1.248689334E1
5.083967875E0,6.946286958E0,2.795286001E0,4.868168973E0,8.931046718E0
5.093958875E0,3.493825373E0,9.995247978E-1,5.444430202E0,6.545814371E0
5.103949875E0,5.849858594E-1,-8.267302197E-1,5.777173610E0,5.865272904E0
5.113940875E0,-1.874261243E0,-2.847173608E0,5.693618068E0,6.636003275E0
5.123931875E0,-4.265708710E0,-4.915653627E0,5.027926599E0,8.224352088E0
5.133922875E0,-7.079853736E0,-6.641407871E0,3.865355701E0,1.044861724E1
5.143913875E0,-1.004486160E1,-7.696161960E0,2.355305243E0,1.287158173E1
5.153904875E0,-1.284827406E1,-8.373461321E0,3.440332121E-1,1.533986179E1
5.163895875E0,-1.555553959E1,-9.027306331E0,-1.955908839E0,1.809123133E1
5.173886875E0,-1.817715042E1,-9.934403021E0,-4.246940317E0,2.114562988E1
5.183877875E0,-1.968430066E1,-1.032230497E1,-6.051240209E0,2.303560680E1
5.193869875E0,-2.015373384E1,-1.001392398E1,-6.566837161E0,2.344301627E1
5.203860875E0,-2.005493695E1,-1.061032478E1,-7.060968983E0,2.376208684E1
5.213851875E0,-1.795898847E1,-1.056798158E1,-6.890772323E0,2.194744278E1
5.223842875E0,-1.590565215E1,-9.328372448E0,-5.193857716E0,1.915683849E1
5.233833875E0,-1.363828669E1,-8.420702730E0,-3.660970371E0,1.644122266E1
5.243824875E0,-1.157237185E1,-7.914459570E0,-2.424870737E0,1.422808696E1
5.253815875E0,-9.834888089E0,-7.364814867E0,-1.248795694E0,1.235010172E1
5.263806875E0,-8.449752867E0,-6.753632312E0,-1.933650827E-1,1.081883834E1
5.273797875E0,-7.435542787E0,-6.216824001E0,5.816681492E-1,9.709507456E0
5.283788875E0,-6.955596895E0,-5.660204154E0,1.133949362E0,9.039030943E0
5.293779875E0,-7.062354189E0,-5.151888156E0,1.397483371E0,8.852782502E0
5.303770875E0,-7.414933691E0,-4.730124398E0,1.298664258E0,8.890548201E0
5.313761875E0,-8.110412630E0,-4.407345815E0,8.688073683E-1,9.271370795E0
5.323752875E0,-8.856879875E0,-4.297647956E0,3.201830041E-1,9.849701327E0
5.333743875E0,-9.471400021E0,-4.241394525E0,-1.721584010E-1,1.037913698E1
5.343734875E0,-1.000135715E1,-4.088324068E0,-4.485212016E-1,1.081400526E1
5.353725875E0,-1.005100352E1,-3.872573212E0,-5.540856636E-1,1.078547662E1
5.363716875E0,-9.530461577E0,-3.507078672E0,-5.523794460E-1,1.017027147E1
5.373707875E0,-8.217810779E0,-2.847626182E0,-5.012841368E-1,8.711640182E0
5.383698875E0,-6.382824115E0,-2.169770459E0,-5.233105981E-1,6.761819393E0
5.393689875E0,-4.336616725E0,-1.351587114E0,-8.340737379E-1,4.618301781E0
5.403680875E0,-2.693339796E0,-3.591605437E-1,-1.362553275E0,3.039675473E0
5.413671875E0,-1.639550498E0,2.205496654E-1,-1.938906890E0,2.548750266E0
5.423662875E0,-7.218469584E-1,1.790622085E-2,-2.772195346E0,2.864690333E0
5.433653875E0,6.035548621E-1,-6.447233534E-1,-3.731024108E0,3.834121486E0
5.443644875E0,2.206947933E0,1.350651267E-1,-3.685259705E0,4.297673890E0
5.453635875E0,5.355249639E0,2.553750094E0,-2.672647669E0,6.507179404E0
5.463626875E0,1.218247735E1,5.065457538E0,-1.370580917E0,1.326461859E1
5.473617875E0,1.211216341E1,5.255236523E0,-1.195876638E0,1.325715408E1
5.483608875E0,1.207082242E1,5.377157401E0,-1.031148879E0,1.325450277E1
5.493599875E0,1.206197325E1,5.406330914E0,-9.350890660E-1,1.325118878E1
5.503590875E0,1.207653281E1,5.361072296E0,-9.174678969E-1,1.324482874E1
5.513581875E0,1.209859319E1,5.292437679E0,-9.382874930E-1,1.323881555E1
5.523572875E0,1.211566589E1,5.240600358E0,-9.526295435E-1,1.323483113E1
5.533563875E0,1.212423206E1,5.215699990E0,-9.299166191E-1,1.323122346E1
5.543554875E0,1.212923494E1,5.203071173E0,-8.734465492E-1,1.322698751E1
5.553545875E0,1.213708892E1,5.183343837E0,-8.139148772E-1,1.322264868E1
5.563536875E0,1.215209287E1,5.142125645E0,-7.800559902E-1,1.321829432E1
5.573527875E0,1.217612259E1,5.073052486E0,-7.879473925E-1,1.321418495E1
5.583518875E0,1.220992184E1,6.956659334E0,-1.117505822E0,1.409702520E1
5.593509875E0,7.765892930E0,5.225205224E0,-1.022824198E0,9.415839419E0
5.603500875E0,3.530228384E0,3.109869711E0,-7.688357681E-1,4.767065187E0
5.613491875E0,-3.791188449E-1,6.685048565E-1,-4.950743937E-1,9.141818731E-1
5.623482875E0,-4.164950659E0,-1.594372279E0,6.704534411E-2,4.460194170E0
5.633473875E0,-7.819676789E0,-3.464578477E0,6.598196948E-1,8.578228905E0
5.643464875E0,-1.128732242E1,-5.234683560E0,8.131534966E-1,1.246863176E1
5.653455875E0,-1.428083956E1,-6.819025233E0,6.144874743E-1,1.583726866E1
5.663447042E0,-1.664817019E1,-7.763769221E0,9.050970890E-2,1.836969992E1
5.673438042E0,-1.792551199E1,-8.241381490E0,-9.080697403E-1,1.975016303E1
5.683429042E0,-1.885713248E1,-9.007797096E0,-2.199522554E0,2.101356118E1
5.693420042E0,-1.895338935E1,-9.565173572E0,-3.633656858E0,2.153896412E1
5.703411042E0,-1.861830647E1,-9.494477811E0,-4.863781223E0,2.145793123E1
5.713402042E0,-1.764418139E1,-9.173432928E0,-5.856268896E0,2.073077167E1
5.723393042E0,-1.601992546E1,-8.566003700E0,-6.450447164E0,1.927751798E1
5.733384042E0,-1.417471377E1,-7.757781088E0,-6.482531421E0,1.741059710E1
5.743375042E0,-1.231049745E1,-6.925600094E0,-5.957904029E0,1.533000015E1
5.753366042E0,-1.066891037E1,-6.193581319E0,-5.154301887E0,1.336985138E1
5.763357042E0,-9.226421565E0,-5.859384878E0,-4.425540011E0,1.179171957E1
5.773348042E0,-8.488527508E0,-5.515575614E0,-3.064111741E0,1.057664665E1
5.783339042E0,-8.007141446E0,-5.373498214E0,-1.943293471E0,9.836929740E0
5.793330042E0,-7.678703928E0,-5.321145169E0,-1.034689953E0,9.399343765E0
5.803321042E0,-7.671169791E0,-5.064579871E0,-2.628317589E-1,9.195971714E0
5.813312042E0,-7.754492029E0,-4.787441145E0,2.138256598E-1,9.115780864E0
5.823303042E0,-8.070258631E0,-4.638003562E0,4.354608973E-1,9.318249707E0
5.833294042E0,-8.421282189E0,-4.603757297E0,3.458710285E-1,9.603759771E0
5.843285042E0,-8.460125828E0,-4.696637394E0,6.497656267E-2,9.676587921E0
5.853276042E0,-8.187199436E0,-4.710062893E0,-3.569081962E-2,9.445432806E0
5.863267042E0,-8.078982677E0,-4.351670381E0,-4.847341776E-4,9.176437023E0
5.873258042E0,-7.764963807E0,-3.975268153E0,-1.452079993E-1,8.724591978E0
5.883249042E0,-7.048437815E0,-3.614991668E0,-4.928623921E-1,7.936721851E0
5.893240042E0,-5.975029939E0,-3.196741210E0,-8.137377065E-1,6.825123163E0
5.903231042E0,-4.504867432E0,-2.468667844E0,-9.487540090E-1,5.223819069E0
5.913222042E0,-3.034002088E0,-1.391342626E0,-1.343325291E0,3.597989134E0
5.923213042E0,-1.748360749E0,-8.849795973E-1,-2.081076237E0,2.858466810E0
5.933204042E0,-6.974734247E-1,-4.512995061E-1,-1.996853528E0,2.162767771E0
5.943195042E0,1.021195164E0,1.364940400E0,-7.432249635E-1,1.859646527E0
5.953186042E0,6.034810703E0,4.414051986E0,1.327287401E0,7.593713650E0
5.963177042E0,1.521610404E1,8.053667157E0,4.013603083E0,1.767768046E1
5.973168042E0,1.513649069E1,8.170233740E0,4.187220365E0,1.770307556E1
5.983159042E0,1.509894455E1,8.220834374E0,4.305520647E0,1.772280318E1
5.993150042E0,1.510605009E1,8.197726178E0,4.341005645E0,1.772681003E1
6.003141042E0,1.514256478E1,8.127401716E0,4.312989880E0,1.771874173E1
6.013132042E0,1.518184754E1,8.058923804E0,4.259575565E0,1.770815439E1
6.023123042E0,1.520261569E1,8.028277377E0,4.211683361E0,1.770059429E1
6.033114042E0,1.520135269E1,8.039334462E0,4.177127486E0,1.769633906E1
6.043105042E0,1.518858471E1,8.074531192E0,4.140778270E0,1.769285743E1
6.053096042E0,1.517417600E1,8.116998934E0,4.092561837E0,1.768870689E1
6.063087042E0,1.160467888E1,6.152159643E0,4.032184365E0,1.373958336E1
6.073078042E0,9.253987679E0,5.209319508E0,5.102897260E0,1.178188687E1
6.083069042E0,6.766862222E0,3.802118357E0,5.857919565E0,9.724286604E0
6.093060042E0,4.707524325E0,2.022943073E0,6.165963750E0,8.016994007E0
6.103051042E0,2.767846772E0,1.329420027E-1,6.080939972E0,6.682550432E0
6.113042042E0,5.210915798E-1,-1.906380875E0,5.258439043E0,5.617562251E0
6.123033042E0,-2.374478263E0,-3.893607109E0,3.732163146E0,5.892992880E0
6.133024042E0,-5.654973820E0,-5.312149227E0,1.877940896E0,7.982751426E0
6.143015042E0,-8.902626736E0,-6.413540123E0,-3.117442294E-1,1.097667728E1
6.153006042E0,-1.204335922E1,-7.330073050E0,-2.565496858E0,1.433018654E1
6.162997042E0,-1.472116297E1,-7.933199311E0,-4.496116489E0,1.731656299E1
6.172988042E0,-1.695232948E1,-8.684614470E0,-5.983640549E0,1.996516861E1
6.182979042E0,-1.777146475E1,-8.987000889E0,-6.792060213E0,2.104098920E1
6.192970042E0,-1.766580206E1,-8.731831906E0,-6.625711606E0,2.079003379E1
6.202961042E0,-1.660997968E1,-8.639224289E0,-5.668770325E0,1.956176317E1
6.212952042E0,-1.505362395E1,-8.563569505E0,-4.235269275E0,1.782929675E1
6.222943042E0,-1.347386299E1,-8.225613304E0,-2.647600536E0,1.600673254E1
6.232934042E0,-1.192496246E1,-7.947952421E0,-1.189731799E0,1.438019955E1
6.242925042E0,-1.053997108E1,-7.717925296E0,-1.073981122E-1,1.306403060E1
6.252916042E0,-9.588610967E0,-7.301994721E0,6.836283875E-1,1.207178259E1
6.262907042E0,-9.242739975E0,-6.885912117E0,1.128245988E0,1.158088800E1
6.272898042E0,-9.370762423E0,-6.656301899E0,1.416441214E0,1.158118513E1
6.282889042E0,-9.940516870E0,-6.486018115E0,1.633080554E0,1.198120439E1
6.292880042E0,-1.071979752E1,-6.312356980E0,1.708344744E0,1.255700407E1
6.302871042E0,-1.143008336E1,-6.135475198E0,1.705491303E0,1.308432506E1
6.312862042E0,-1.187500268E1,-5.973872191E0,1.738866041E0,1.340621097E1
6.322853042E0,-1.194969267E1,-5.842040282E0,1.896607547E0,1.343583677E1
6.332844042E0,-1.158363125E1,-5.665976526E0,1.909557960E0,1.303572838E1
6.342835042E0,-1.092303270E1,-5.291671109E0,1.721478760E0,1.225878932E1
6.352826042E0,-9.880592265E0,-4.729807186E0,1.344064379E0,1.103647084E1
6.362817042E0,-8.810269380E0,-4.091499398E0,8.773606753E-1,9.753510939E0
6.372808042E0,-8.113942595E0,-3.539145972E0,4.481189132E-1,8.863544957E0
6.382799042E0,-7.365866781E0,-2.957084598E0,-2.148454142E-1,7.940182700E0
6.392790042E0,-6.378977816E0,-2.358840761E0,-1.517116234E0,6.968294582E0
6.402781042E0,-5.570897875E0,-2.040670661E0,-3.208643217E0,6.744970807E0
6.412772042E0,-4.574805978E0,-2.181536518E0,-4.963275690E0,7.093804120E0
6.422763042E0,-3.514470137E0,-2.053552662E0,-6.077519935E0,7.314699409E0
6.432754042E0,1.242021695E0,-5.267201096E-1,-5.130237086E0,5.304656871E0
6.442745042E0,1.289425189E1,2.717278005E0,-1.263289772E0,1.323787115E1
6.452736042E0,1.277381562E1,3.047908229E0,-1.220549549E0,1.318900494E1
6.462727042E0,1.271227952E1,3.232893667E0,-1.186193649E0,1.317044826E1
6.472718042E0,1.271491311E1,3.224786795E0,-1.199908293E0,1.317224526E1
6.482709042E0,1.276246500E1,3.082131397E0,-1.265205320E0,1.319017784E1
6.492700042E0,1.282097458E1,2.918708152E0,-1.363924447E0,1.321955130E1
6.502691042E0,1.286320084E1,2.810282647E0,-1.463805415E0,1.324773002E1
6.512682042E0,1.288501797E1,2.760535414E0,-1.550621949E0,1.326833344E1
6.522673042E0,1.289922202E1,2.734320007E0,-1.642658878E0,1.328776742E1
6.532664042E0,1.291711801E1,2.703986114E0,-1.752059698E0,1.331289570E1
6.542655042E0,1.294405263E1,2.656354403E0,-1.872250385E0,1.334578730E1
6.552646042E0,1.320127047E1,5.422285042E0,2.046915488E0,1.441750950E1
6.562637042E0,9.353293866E0,3.987898431E0,2.374232680E0,1.044147599E1
6.572628042E0,5.280395338E0,1.848030341E0,2.514193972E0,6.133429905E0
6.582619042E0,1.589056867E0,-5.895399633E-1,2.678186737E0,3.169438956E0
6.592610042E0,-1.713107886E0,-3.009551956E0,2.590413013E0,4.324624976E0
6.602601042E0,-5.282176400E0,-5.104232179E0,1.677246328E0,7.534436203E0
6.612592042E0,-9.173594896E0,-6.692698478E0,-5.631336451E-2,1.135562536E1
6.622584042E0,-1.289424020E1,-7.669814991E0,-2.013563554E0,1.513743474E1
6.632575042E0,-1.578800383E1,-8.002815092E0,-3.742032076E0,1.809168092E1
6.642566042E0,-1.820703437E1,-8.348953886E0,-5.068326182E0,2.066129381E1
6.652557042E0,-1.934969608E1,-8.848264003E0,-6.180094716E0,2.215617488E1
6.662547792E0,-1.968594724E1,-9.027762998E0,-6.703996468E0,2.267114007E1
6.672538792E0,-1.941292904E1,-8.945575120E0,-6.675265004E0,2.239295182E1
6.682529792E0,-1.860455031E1,-8.719704196E0,-6.252008452E0,2.147673493E1
6.692520792E0,-1.730148661E1,-8.437909332E0,-5.553424641E0,2.003447723E1
6.702511792E0,-1.563018397E1,-8.125325369E0,-4.761505235E0,1.824816417E1
6.712502792E0,-1.410453197E1,-7.623741270E0,-3.942439545E0,1.651066573E1
6.722493792E0,-1.257070674E1,-7.072220196E0,-3.148637921E0,1.476322753E1
6.732484792E0,-1.116645814E1,-6.467883561E0,-2.374259577E0,1.312099134E1
6.742475792E0,-1.003111129E1,-5.825506695E0,-1.759185115E0,1.173262350E1
6.752466792E0,-9.287172967E0,-5.355584099E0,-1.342345882E0,1.080443220E1
6.762457792E0,-8.923600114E0,-5.075759747E0,-1.192201079E0,1.033514970E1
6.772448792E0,-8.900843335E0,-4.759465726E0,-1.197057776E0,1.016417598E1
6.782439792E0,-9.310059553E0,-4.504469236E0,-1.373884594E0,1.043336048E1
6.792430792E0,-9.803906617E0,-4.417482840E0,-1.756850322E0,1.089574516E1
6.802421792E0,-1.017689290E1,-4.345125301E0,-2.052758610E0,1.125446938E1
6.812412792E0,-1.015342452E1,-3.891445685E0,-2.280222316E0,1.111012119E1
6.822403792E0,-9.661804658E0,-3.192910114E0,-2.547499713E0,1.048975210E1
6.832394792E0,-8.571683686E0,-2.736059554E0,-2.783028483E0,9.418334812E0
6.842385792E0,-7.032093678E0,-2.570461144E0,-2.800380680E0,7.993731541E0
6.852376792E0,-5.631044675E0,-2.011758226E0,-2.773298131E0,6.591435186E0
6.862367792E0,-4.486894260E0,-9.982211611E-1,-2.930216934E0,5.451131705E0
6.872358792E0,-3.314818128E0,-7.272971481E-2,-2.858690869E0,4.377833062E0
6.882349792E0,-1.918024728E0,3.457870844E-1,-2.864245139E0,3.464431812E0
6.892340792E0,3.273739100E-2,1.685436523E-1,-2.728846428E0,2.734242405E0
6.902331792E0,3.263574300E0,5.194403261E-2,-2.425030366E0,4.066249828E0
6.912322792E0,8.443291694E0,5.102175128E-1,-1.364655933E0,8.568067598E0
6.922313792E0,8.345131561E0,7.738497555E-1,-1.361809509E0,8.490853276E0
6.932304792E0,8.254578071E0,1.036342961E0,-1.315332915E0,8.422717290E0
6.942295792E0,8.190011947E0,1.237626343E0,-1.237392454E0,8.374912223E0
6.952286792E0,8.159187765E0,1.338868835E0,-1.165435449E0,8.350039193E0
6.962277792E0,8.154223478E0,1.355287524E0,-1.137402728E0,8.343970864E0
6.972268792E0,8.159119937E0,1.338753937E0,-1.154725104E0,8.348466345E0
6.982259792E0,8.161701483E0,1.330963107E0,-1.186014724E0,8.354128609E0
6.992250792E0,8.158763841E0,1.342148539E0,-1.208094980E0,8.356212276E0
7.002241792E0,8.154802938E0,1.356478602E0,-1.218788953E0,8.356212758E0
7.012232792E0,8.155372456E0,1.354813315E0,-1.224540274E0,8.357339164E0
7.022223792E0,8.164014641E0,1.325172902E0,-1.229698688E0,8.361780740E0
7.032214792E0,1.345365852E1,7.565410616E0,2.292268165E0,1.560419363E1
7.042205792E0,9.775248828E0,6.526742803E0,1.471774001E0,1.184567347E1
7.052196792E0,6.301402221E0,4.821208523E0,6.770520240E-1,7.963047219E0
7.062187792E0,2.909443531E0,2.795335410E0,4.069643822E-3,4.034696801E0
7.072178792E0,-6.224390298E-1,6.714676407E-1,-5.627646858E-1,1.074710766E0
7.082169792E0,-4.426693667E0,-1.216228457E0,-1.269003087E0,4.762897995E0
7.092160792E0,-8.153963277E0,-2.989053372E0,-1.879648867E0,8.885642186E0
7.102151792E0,-1.179328901E1,-4.583271284E0,-2.396104774E0,1.287747489E1
7.112142792E0,-1.506217024E1,-6.088956504E0,-3.013488302E0,1.652348255E1
7.122133792E0,-1.743891606E1,-7.677941451E0,-3.400838857E0,1.935541999E1
7.132124792E0,-1.872421592E1,-8.716608680E0,-3.251580491E0,2.090809184E1
7.142115792E0,-1.942880190E1,-9.668031358E0,-2.919663295E0,2.189688579E1
7.152106792E0,-1.895969966E1,-1.001793868E1,-2.305906795E0,2.156725557E1
7.162097792E0,-1.798553015E1,-9.876651242E0,-1.152002056E0,2.055126865E1
7.172088792E0,-1.661820438E1,-9.676935498E0,-7.184236329E-2,1.923052154E1
7.182079792E0,-1.513996628E1,-9.597496980E0,6.929791816E-1,1.793908435E1
7.192070792E0,-1.402305453E1,-9.437946931E0,1.256836785E0,1.694994217E1
7.202061792E0,-1.344261079E1,-9.250044901E0,1.597447622E0,1.639569927E1
7.212052792E0,-1.334020733E1,-9.136708905E0,1.557141595E0,1.624393029E1
7.222043792E0,-1.346743573E1,-8.931503211E0,1.103226922E0,1.619755180E1
7.232034792E0,-1.332306330E1,-8.484855457E0,4.360934564E-1,1.580148617E1
7.242025792E0,-1.288911570E1,-7.887334337E0,-3.091890693E-1,1.511406445E1
7.252016792E0,-1.217076888E1,-7.282681952E0,-1.055351089E0,1.422247649E1
7.262007792E0,-1.136279828E1,-6.751969948E0,-1.595926176E0,1.331349929E1
7.271998792E0,-1.025998651E1,-6.348541889E0,-2.012118123E0,1.223192245E1
7.281989792E0,-9.048864430E0,-5.861818489E0,-2.182613575E0,1.100030297E1
7.291980792E0,-7.954541649E0,-5.211891114E0,-2.204960464E0,9.762191991E0
7.301971792E0,-6.987390545E0,-4.635517033E0,-2.188948449E0,8.666206789E0
7.311962792E0,-5.995539633E0,-4.148440169E0,-2.253396460E0,7.631110465E0
7.321953792E0,-5.135534078E0,-3.542034204E0,-2.316376820E0,6.654721493E0
7.331944792E0,-4.186346206E0,-3.051914156E0,-2.271226959E0,5.656690417E0
7.341935792E0,-2.918850532E0,-2.794687538E0,-2.098313098E0,4.553337756E0
7.351926792E0,-1.238498163E0,-2.477037840E0,-1.833807281E0,3.321512202E0
7.361917792E0,3.588816315E-1,-2.000853169E0,-1.767785200E0,2.693932802E0
7.371908792E0,2.299562566E0,-1.178527949E0,-1.859940827E0,3.183755016E0
7.381899792E0,5.219170312E0,7.184856865E-1,-1.908245845E0,5.603334956E0
7.391890792E0,1.047405425E1,3.195567673E0,-1.583203804E0,1.106453792E1
7.401881792E0,1.038698687E1,3.394626190E0,-1.416709017E0,1.101907653E1
7.411872792E0,1.030355763E1,3.611990585E0,-1.195193099E0,1.098354507E1
7.421863792E0,1.024261444E1,3.799427176E0,-9.802541292E-1,1.096848647E1
7.431854792E0,1.021388590E1,3.911283242E0,-8.186767765E-1,1.096776337E1
7.441845792E0,1.021101959E1,3.942793302E0,-7.309124085E-1,1.097017653E1
7.451836792E0,1.021825377E1,3.927891673E0,-7.159633438E-1,1.097058096E1
7.461827792E0,1.022275846E1,3.903851138E0,-7.589989241E-1,1.096908946E1
7.471818792E0,1.021980913E1,3.888485532E0,-8.471927702E-1,1.096734033E1
7.481809792E0,1.021191188E1,3.879926963E0,-9.740678481E-1,1.096748766E1
7.491800792E0,1.020446252E1,3.869300525E0,-1.133379843E0,1.097210517E1
7.501791792E0,1.233321623E1,7.714217577E0,-2.994920468E-1,1.455015707E1
7.511782792E0,9.132385474E0,6.511235402E0,6.715351760E-1,1.123599619E1
7.521773792E0,5.914866183E0,5.073100433E0,1.658835200E0,7.967039864E0
7.531764792E0,2.900446420E0,3.450187603E0,2.486510330E0,5.147729359E0
7.541755792E0,1.778541738E-1,1.557568149E0,2.871981590E0,3.271991580E0
7.551746792E0,-2.336922766E0,-5.974690801E-1,2.979657481E0,3.833606138E0
7.561737792E0,-4.932926887E0,-2.501227772E0,3.130761228E0,6.355436563E0
7.571728792E0,-7.573841717E0,-3.660939381E0,2.996571722E0,8.930005464E0
7.581719792E0,-9.887753935E0,-4.599155246E0,2.380646490E0,1.116187191E1
7.591710792E0,-1.195000608E1,-5.626858653E0,1.306677867E0,1.327296466E1
7.601701792E0,-1.376731954E1,-6.519287603E0,2.187370285E-3,1.523286588E1
7.611692792E0,-1.571768639E1,-7.439852185E0,-1.352597221E0,1.744209234E1
7.621683792E0,-1.756181868E1,-8.497370253E0,-2.958181243E0,1.973255211E1
7.631674792E0,-1.907187967E1,-9.075148249E0,-4.397497349E0,2.157389378E1
7.641665792E0,-1.999646012E1,-9.332339784E0,-5.276658967E0,2.268907475E1
7.651656792E0,-1.979635904E1,-9.375424992E0,-5.706212386E0,2.263526640E1
7.661647792E0,-1.849003142E1,-9.010233631E0,-5.180765215E0,2.121098537E1
7.671638875E0,-1.657018236E1,-8.576842684E0,-4.490891417E0,1.919117713E1
7.681629875E0,-1.421506423E1,-7.826300515E0,-3.644973559E0,1.663144200E1
7.691620875E0,-1.222308977E1,-6.841320666E0,-2.540946153E0,1.423601065E1
7.701611875E0,-1.045431990E1,-6.093751221E0,-1.657220199E0,1.221363939E1
7.711602875E0,-9.069582285E0,-5.618883635E0,-8.613053906E-1,1.070378546E1
7.721593875E0,-8.087136034E0,-5.260338219E0,-1.099978209E-1,9.648058195E0
7.731584875E0,-7.509610637E0,-5.034767257E0,5.538295555E-1,9.058137802E0
7.741575875E0,-7.209591756E0,-4.947896343E0,1.034730299E0,8.805143855E0
7.751566875E0,-7.126803369E0,-4.968531168E0,1.254675654E0,8.777917704E0
7.761557875E0,-7.211430121E0,-5.083372822E0,1.262431401E0,8.912863551E0
7.771548875E0,-7.182482895E0,-5.080327592E0,1.058756508E0,8.861080878E0
7.781539875E0,-7.188224861E0,-4.766444670E0,7.978139842E-1,8.661759556E0
7.791530875E0,-7.485547006E0,-4.370539346E0,5.307576485E-1,8.684280732E0
7.801521875E0,-7.663929183E0,-4.187253986E0,-1.097869556E-2,8.733214014E0
7.811512875E0,-7.328056930E0,-4.030508553E0,-4.742641167E-1,8.376774082E0
7.821503875E0,-6.407690569E0,-3.600083315E0,-8.537648213E-1,7.399190001E0
7.831494875E0,-4.873093498E0,-2.922358861E0,-1.219519782E0,5.811578964E0
7.841485875E0,-3.033830765E0,-2.119947211E0,-1.617205364E0,4.039017019E0
7.851476875E0,-1.108894043E0,-1.722627153E0,-2.515607829E0,3.244283135E0
7.861467875E0,6.703686565E-1,-1.498853626E0,-3.425951478E0,3.799091978E0
7.871458875E0,3.167229728E0,-1.338307795E-1,-3.985193217E0,5.092250956E0
7.881449875E0,7.150904422E0,2.389699734E0,-3.814833419E0,8.449796027E0
7.891440875E0,1.243711891E1,5.186557467E0,-3.146219512E0,1.383766607E1
7.901431875E0,1.238885365E1,5.328811453E0,-3.014643127E0,1.381911718E1
7.911422875E0,1.234852775E1,5.464848679E0,-2.867302648E0,1.380478660E1
7.921413875E0,1.232187731E1,5.570612531E0,-2.736549550E0,1.379670568E1
7.931404875E0,1.230949056E1,5.632253879E0,-2.644396262E0,1.379270363E1
7.941395875E0,1.230450874E1,5.659358062E0,-2.603545275E0,1.379158138E1
7.951386875E0,1.229672141E1,5.678417062E0,-2.614349760E0,1.379451349E1
7.961377875E0,1.228057024E1,5.708401583E0,-2.669223540E0,1.380300722E1
7.971368875E0,1.225808886E1,5.747190258E0,-2.763974161E0,1.381776000E1
7.981359875E0,1.223447897E1,5.783348855E0,-2.898022749E0,1.383936905E1
7.991350875E0,1.221433765E1,5.808698874E0,-3.067244679E0,1.386863428E1
8.001341875E0,1.220184566E1,5.817352168E0,-3.259917451E0,1.390516759E1
8.011332875E0,1.238477697E1,4.564154105E0,2.626990271E0,1.345790776E1
8.021323875E0,9.233604285E0,3.504459412E0,3.654972882E0,1.053088366E1
8.031314875E0,6.164339393E0,2.633261702E0,4.326615647E0,7.978267375E0
8.041305875E0,3.240429266E0,1.560514854E0,4.601395022E0,5.840241826E0
8.051296875E0,7.167131031E-1,-8.577163696E-2,4.376553792E0,4.435680054E0
8.061287875E0,-1.779003083E0,-1.677346023E0,3.950322762E0,4.645792889E0
8.071278875E0,-4.387525508E0,-2.852902417E0,3.265207427E0,6.168550221E0
8.081269875E0,-6.872025565E0,-3.710297483E0,2.543485599E0,8.213425702E0
8.091260875E0,-8.951572024E0,-4.314819474E0,1.857178017E0,1.010927391E1
8.101251875E0,-1.064728620E1,-4.955638057E0,1.036844579E0,1.178974549E1
8.111242875E0,-1.211314340E1,-5.849170961E0,5.323137023E-2,1.345153811E1
8.121233875E0,-1.327480623E1,-6.703014135E0,-1.009181986E0,1.490534559E1
8.131224875E0,-1.487214275E1,-7.584791797E0,-2.020034668E0,1.681636812E1
8.141215875E0,-1.609258296E1,-8.098638092E0,-3.068911720E0,1.827504814E1
8.151206875E0,-1.655386045E1,-7.926759773E0,-3.601053953E0,1.870378052E1
8.161197875E0,-1.714860882E1,-8.074125980E0,-4.067816128E0,1.938590784E1
8.171188875E0,-1.677054773E1,-8.263520218E0,-4.165140109E0,1.915425357E1
8.181179875E0,-1.514068432E1,-7.827855290E0,-3.554791952E0,1.741126606E1
8.191170875E0,-1.350022458E1,-6.963295923E0,-2.398706785E0,1.537847027E1
8.201161875E0,-1.180546525E1,-6.279343600E0,-1.392857054E0,1.344392862E1
8.211152875E0,-1.026337907E1,-5.878566669E0,-5.702654940E-1,1.184143989E1
8.221143875E0,-8.899006140E0,-5.665744391E0,1.683167803E-1,1.055089097E1
8.231134875E0,-7.897929491E0,-5.664992439E0,7.843735743E-1,9.751136933E0
8.241125875E0,-7.450757827E0,-5.765270433E0,1.213413023E0,9.498658144E0
8.251116875E0,-7.518917066E0,-6.041168380E0,1.316500604E0,9.734629068E0
8.261107875E0,-8.141429771E0,-6.374004759E0,1.146359493E0,1.040312239E1
8.271098875E0,-9.148621438E0,-6.565370094E0,8.333475137E-1,1.129140499E1
8.281089875E0,-1.007881755E1,-6.726455623E0,5.992776604E-1,1.213206092E1
8.291080875E0,-1.073282862E1,-6.952142360E0,3.259927976E-1,1.279187887E1
8.301071875E0,-1.104764739E1,-7.069132281E0,4.138894955E-2,1.311582468E1
8.311062875E0,-1.095364755E1,-6.854620158E0,-1.792171597E-1,1.292286079E1
8.321053875E0,-1.040260127E1,-6.631123204E0,-4.909111762E-1,1.234612903E1
8.331044875E0,-9.080603117E0,-6.431993936E0,-9.685596979E-1,1.116987049E1
8.341035875E0,-7.708774989E0,-5.505803162E0,-9.641989175E-1,9.522014484E0
8.351026875E0,-6.698950905E0,-4.738937321E0,-1.097513022E0,8.278768326E0
8.361017875E0,-5.946205505E0,-4.889028915E0,-1.680107371E0,7.879259129E0
8.371008875E0,-4.630605957E0,-4.502125672E0,-2.033203182E0,6.770935111E0
8.380999875E0,-7.419567025E-1,-2.315579844E0,-2.606056069E0,3.564258408E0
8.390990875E0,5.905536366E0,1.494829864E0,-3.297112759E0,6.926819519E0
8.400981875E0,1.380827695E1,5.739619868E0,-2.802373411E0,1.521397533E1
8.410972875E0,1.367815067E1,6.031074332E0,-2.729645158E0,1.519594110E1
8.420963875E0,1.357657050E1,6.282274225E0,-2.594418941E0,1.518292612E1
8.430954875E0,1.350546368E1,6.479458709E0,-2.439682903E0,1.517672518E1
8.440945875E0,1.344766980E1,6.656259799E0,-2.306341828E0,1.518106815E1
8.450936875E0,1.338606705E1,6.854747043E0,-2.210436966E0,1.520067037E1
8.460927875E0,1.331873402E1,7.081216722E0,-2.157112699E0,1.523763241E1
8.470918875E0,1.325776627E1,7.297576565E0,-2.141546241E0,1.528427985E1
8.480909875E0,1.321406418E1,7.455834380E0,-2.167972147E0,1.532648237E1
8.490900875E0,1.318922053E1,7.534354300E0,-2.253266652E0,1.535575604E1
8.500891875E0,1.317916566E1,7.547302959E0,-2.398454186E0,1.537546005E1
8.510882875E0,1.317858094E1,7.527095566E0,-2.585306640E0,1.539532311E1
8.520873875E0,1.239102180E1,2.837994064E0,1.129153476E0,1.276192067E1
8.530864875E0,7.585416280E0,1.587726041E0,1.914974821E0,7.982890622E0
8.540855875E0,3.970191016E0,7.926161018E-1,2.287661728E0,4.650167004E0
8.550846875E0,1.013297330E0,3.899040341E-1,2.293792534E0,2.537770837E0
8.560837875E0,-1.651819711E0,-9.652554363E-2,1.914631589E0,2.530541377E0
8.570828875E0,-4.231787258E0,-6.353265855E-1,1.302591248E0,4.473075812E0
8.580819875E0,-6.666186032E0,-1.064937892E0,6.492017359E-1,6.781857550E0
8.590810875E0,-8.919186636E0,-1.605854748E0,-7.441444382E-2,9.062902252E0
8.600801875E0,-1.112865706E1,-2.490164255E0,-1.145938566E0,1.146128706E1
8.610792875E0,-1.304459316E1,-3.599686874E0,-2.567318850E0,1.377353558E1
8.620783875E0,-1.464044332E1,-4.671811578E0,-3.955086488E0,1.586855738E1
8.630774875E0,-1.622634386E1,-5.375464633E0,-5.027469932E0,1.781755620E1
8.640765875E0,-1.773706558E1,-5.937101975E0,-6.463860676E0,1.978974912E1
8.650756875E0,-1.882721345E1,-6.533265372E0,-7.347323506E0,2.123983723E1
8.660747875E0,-1.864117259E1,-6.756427281E0,-7.400189937E0,2.116377651E1
8.670738500E0,-1.739195356E1,-6.386765138E0,-6.539189186E0,1.964769230E1
8.680729500E0,-1.555995775E1,-5.576980734E0,-4.940292624E0,1.725170978E1
8.690720500E0,-1.394270794E1,-4.860743302E0,-3.477794647E0,1.516973915E1
8.700711500E0,-1.262956247E1,-4.421721779E0,-2.398671117E0,1.359452444E1
8.710702500E0,-1.144309459E1,-4.088871367E0,-1.422834560E0,1.223469415E1
8.720693500E0,-1.033075420E1,-3.726134666E0,-4.833992583E-1,1.099282660E1
8.730684500E0,-9.387861435E0,-3.337835985E0,3.692657018E-1,9.970428705E0
8.740675500E0,-8.579528895E0,-3.074651639E0,1.114171740E0,9.181676178E0
8.750666500E0,-7.835490584E0,-3.077918771E0,1.652135460E0,8.578930483E0
8.760657500E0,-7.520899272E0,-3.298275478E0,1.958081664E0,8.442548833E0
8.770648500E0,-7.471899020E0,-3.594446014E0,2.021253812E0,8.534329739E0
8.780639500E0,-7.525218610E0,-3.723989908E0,2.027921977E0,8.637678132E0
8.790630500E0,-7.913560853E0,-3.497983036E0,1.969991273E0,8.873623629E0
8.800621500E0,-8.144277365E0,-3.146963863E0,1.581764220E0,8.873252695E0
8.810612500E0,-7.814998432E0,-2.898482925E0,1.083954499E0,8.405376917E0
8.820603500E0,-7.123027237E0,-2.501721277E0,6.071000290E-1,7.573948561E0
8.830594500E0,-6.633388415E0,-2.080630825E0,5.954572359E-2,6.952295462E0
8.840585500E0,-6.593816214E0,-2.179327733E0,-5.109449065E-1,6.963400486E0
8.850576500E0,-6.877071127E0,-2.539946572E0,-8.531298137E-1,7.380600677E0
8.860567500E0,-6.086098970E0,-2.514626666E0,-7.319731665E-1,6.625687335E0
8.870558500E0,-3.546512294E0,-2.104983017E0,-2.812826478E-1,4.133741995E0
8.880549500E0,1.942684776E-1,-7.376391184E-1,5.858173335E-1,9.617867012E-1
8.890540500E0,5.835135305E0,1.528175658E0,5.001562089E-1,6.052625967E0
8.900531500E0,1.292040999E1,3.814921420E0,-4.325010002E-1,1.347878618E1
8.910522500E0,1.287167696E1,4.009378470E0,-4.502525622E-1,1.348917755E1
8.920513500E0,1.283153232E1,4.180359534E0,-4.071626759E-1,1.350145951E1
8.930504500E0,1.280508653E1,4.300650501E0,-3.180873621E-1,1.351173621E1
8.940495500E0,1.279363651E1,4.359075880E0,-2.017160761E-1,1.351737279E1
8.950486500E0,1.279349501E1,4.370622377E0,-7.667919835E-2,1.351967952E1
8.960477500E0,1.279759040E1,4.367916870E0,4.098901827E-2,1.352252557E1
8.970468500E0,1.279946151E1,4.379331805E0,1.413985384E-1,1.352866422E1
8.980459500E0,1.279620227E1,4.413956969E0,2.132713437E-1,1.353777283E1
8.990450500E0,1.278844418E1,4.461831340E0,2.411940642E-1,1.354660172E1
9.000441500E0,1.277842556E1,4.505625815E0,2.102074758E-1,1.355112582E1
9.010432500E0,1.276914486E1,4.530931688E0,1.165700912E-1,1.354968601E1
9.020423500E0,1.193306085E1,3.700612739E0,1.601885659E0,1.259597212E1
9.030414500E0,9.240129778E0,3.450971130E0,2.445164083E0,1.016208775E1
9.040405500E0,6.885462466E0,2.786564586E0,3.058339954E0,8.032930900E0
9.050396500E0,4.484753010E0,1.845302907E0,3.412018148E0,5.929588537E0
9.060387500E0,1.682533965E0,8.661081474E-1,3.329775891E0,3.829944040E0
9.070378500E0,-1.126114678E0,-1.554840423E-1,2.771569110E0,2.995647657E0
9.080369500E0,-3.821251908E0,-1.282154644E0,1.873098232E0,4.444590382E0
9.090360500E0,-6.208949556E0,-2.325111390E0,8.733489007E-1,6.687296604E0
9.100351500E0,-8.333238909E0,-3.252840858E0,-3.887894087E-1,8.954049451E0
9.110342500E0,-1.023774487E1,-4.164477620E0,-1.836731912E0,1.120392244E1
9.120333500E0,-1.180558454E1,-4.968392004E0,-3.176173629E0,1.319639437E1
9.130324500E0,-1.333056411E1,-5.652497524E0,-4.528983103E0,1.517123448E1
9.140315500E0,-1.463016626E1,-6.275195001E0,-5.887977762E0,1.697315878E1
9.150306500E0,-1.595312453E1,-6.738230746E0,-6.968957198E0,1.866741279E1
9.160297500E0,-1.720079288E1,-6.932350119E0,-7.359717264E0,1.995219767E1
9.170288500E0,-1.718749748E1,-6.932831930E0,-7.735062901E0,2.008246564E1
9.180279500E0,-1.635567492E1,-7.020804459E0,-7.464784713E0,1.930084993E1
9.190270500E0,-1.490011349E1,-6.565128019E0,-5.706783074E0,1.725345360E1
9.200261500E0,-1.326673356E1,-5.985832086E0,-3.928419092E0,1.507543968E1
9.210252500E0,-1.165380251E1,-5.638796328E0,-2.503145074E0,1.318608631E1
9.220243500E0,-1.036959959E1,-5.464415985E0,-1.169133228E0,1.177944439E1
9.230234500E0,-9.431147788E0,-5.432132338E0,-1.348215902E-1,1.088452053E1
9.240225500E0,-8.877438685E0,-5.459581507E0,7.293957138E-1,1.044739039E1
9.250216500E0,-8.796045443E0,-5.484367855E0,1.450168539E0,1.046669456E1
9.260207500E0,-9.095773718E0,-5.545195270E0,1.899977882E0,1.082091521E1
9.270198500E0,-9.619883630E0,-5.707827387E0,2.164387804E0,1.139324489E1
9.280189500E0,-1.028090902E1,-5.893223299E0,2.180408006E0,1.204912238E1
9.290180500E0,-1.104665804E1,-5.966732740E0,1.893654703E0,1.269710525E1
9.300171500E0,-1.145529539E1,-5.922758755E0,1.450972531E0,1.297721792E1
9.310162500E0,-1.110158211E1,-5.952010036E0,8.074209595E-1,1.262234041E1
9.320153500E0,-1.023666197E1,-5.746807265E0,3.131230760E-1,1.174364033E1
9.330144500E0,-9.278510317E0,-5.172988418E0,1.696458890E-1,1.062446905E1
9.340135500E0,-8.124765206E0,-4.659557568E0,-5.711381178E-2,9.366245159E0
9.350126500E0,-6.711930555E0,-4.298218352E0,-4.435452211E-1,7.982570083E0
9.360117500E0,-5.198105718E0,-4.341881850E0,-9.369818097E-1,6.837410033E0
9.370108500E0,-3.706886217E0,-4.844777187E0,-1.294405730E0,6.236053048E0
9.380099500E0,-1.799946055E0,-4.972424244E0,-1.841589925E0,5.599666250E0
9.390090500E0,8.071882403E-1,-3.834076606E0,-2.525368586E0,4.661457151E0
9.400081500E0,5.186969111E0,-1.916181978E0,-2.839468732E0,6.216026433E0
9.410072500E0,1.137784551E1,1.063330200E0,-1.917356392E0,1.158716078E1
9.420063500E0,1.127736111E1,1.311758220E0,-1.748322743E0,1.148721966E1
9.430054500E0,1.120026206E1,1.524584590E0,-1.497075487E0,1.140225694E1
9.440045500E0,1.115639391E1,1.674046732E0,-1.231418939E0,1.134830164E1
9.450036500E0,1.113775532E1,1.766429231E0,-1.008990855E0,1.132201080E1
9.460027500E0,1.112477684E1,1.841384103E0,-8.593921816E-1,1.130884212E1
9.470018500E0,1.110186862E1,1.937115595E0,-7.853792953E-1,1.129693429E1
9.480009500E0,1.106717592E1,2.059652770E0,-7.760670197E-1,1.128391920E1
9.490000500E0,1.102763939E1,2.187740999E0,-8.277821338E-1,1.127298827E1
9.499991500E0,1.098883727E1,2.303518500E0,-9.439709866E-1,1.126728997E1
9.509982500E0,1.095343705E1,2.406093134E0,-1.113405828E0,1.126972671E1
9.519973500E0,1.092269707E1,2.502962641E0,-1.312820367E0,1.128244790E1
9.529964500E0,1.077853748E1,3.271625331E0,2.836961446E0,1.161588364E1
9.539955500E0,7.714221670E0,2.341976807E0,4.731006158E0,9.347539281E0
9.549946500E0,5.724724086E0,1.518948021E0,5.691182118E0,8.213965111E0
9.559937500E0,4.257658848E0,9.385073483E-1,5.871600881E0,7.313285979E0
9.569928500E0,2.898212199E0,4.406015866E-1,5.279350441E0,6.038650908E0
9.579919500E0,1.220203979E0,1.847633900E-1,4.419065974E0,4.588156421E0
9.589910500E0,-1.068083986E0,3.501722038E-2,3.194332157E0,3.368350863E0
9.599901500E0,-3.475108436E0,-3.934772676E-1,1.705119420E0,3.890839914E0
9.609892500E0,-5.819760636E0,-1.368287054E0,1.200603674E-1,5.979651981E0
9.619883500E0,-8.257567753E0,-2.730454997E0,-1.433565370E0,8.814642327E0
9.629874500E0,-1.080094752E1,-4.183975745E0,-3.170652688E0,1.200912814E1
9.639865500E0,-1.333252643E1,-5.450729408E0,-4.668339794E0,1.514133774E1
9.649856500E0,-1.560859722E1,-6.601419933E0,-5.686446458E0,1.787575805E1
9.659847500E0,-1.733427312E1,-7.097980104E0,-6.302040737E0,1.976294673E1
9.669838542E0,-1.839816231E1,-6.857284150E0,-6.519181184E0,2.068850999E1
9.679829542E0,-1.840184722E1,-6.328239187E0,-6.160587820E0,2.041145352E1
9.689820542E0,-1.708265807E1,-5.776423997E0,-4.924463042E0,1.869317034E1
9.699811542E0,-1.513400212E1,-5.442280766E0,-3.491821532E0,1.645749852E1
9.709802542E0,-1.334190303E1,-5.441995422E0,-2.186559277E0,1.457404309E1
9.719793542E0,-1.189551471E1,-5.400895343E0,-9.091537410E-1,1.309578181E1
9.729784542E0,-1.077472042E1,-5.257594121E0,2.508268587E-1,1.199165585E1
9.739775542E0,-9.929307758E0,-5.163573816E0,1.282814210E0,1.126495714E1
9.749766542E0,-9.486536708E0,-5.201044528E0,1.974990642E0,1.099753749E1
9.759757542E0,-9.371853513E0,-5.357011989E0,2.340753862E0,1.104573874E1
9.769748542E0,-9.609074467E0,-5.704372852E0,2.358469171E0,1.142088257E1
9.779739542E0,-1.020489873E1,-6.091954372E0,1.875614873E0,1.203203213E1
9.789730542E0,-1.100350793E1,-6.365872452E0,1.179048352E0,1.276681925E1
9.799721542E0,-1.176271041E1,-6.515723140E0,6.390895611E-1,1.346196270E1
9.809712542E0,-1.228733312E1,-6.675827506E0,1.907069385E-2,1.398376172E1
9.819703542E0,-1.255338728E1,-6.763070887E0,-4.155581081E-1,1.426531979E1
9.829694542E0,-1.253317463E1,-6.673656435E0,-7.235818273E-1,1.421765547E1
9.839685542E0,-1.193996758E1,-6.512015421E0,-1.025681148E0,1.363895863E1
9.849676542E0,-1.067753034E1,-6.022229834E0,-1.198100919E0,1.231715682E1
9.859667542E0,-9.231899237E0,-5.236917781E0,-1.292061582E0,1.069217913E1
9.869658542E0,-7.708379132E0,-4.554424923E0,-1.524940978E0,9.082254137E0
9.879649542E0,-5.755603817E0,-4.294658567E0,-1.672924651E0,7.373584229E0
9.889640542E0,-3.890760099E0,-4.418155562E0,-1.888613234E0,6.182634768E0
9.899631542E0,-1.551039441E0,-4.386899563E0,-1.855175346E0,5.009220168E0
9.909622542E0,1.897746000E0,-3.603405410E0,-1.942136307E0,4.511968957E0
9.919613542E0,6.268715701E0,-1.832858571E0,-2.467239661E0,6.981650136E0
9.929604542E0,1.195402780E1,8.467852923E-1,-2.787359515E0,1.230386927E1
9.939595542E0,1.187573475E1,1.156109432E0,-2.535710557E0,1.219833976E1
9.949586542E0,1.181696088E1,1.462432781E0,-2.273535440E0,1.212222081E1
9.959577542E0,1.177969891E1,1.727262680E0,-2.050994944E0,1.208103154E1
9.969568542E0,1.175971196E1,1.916198643E0,-1.899922772E0,1.206533668E1
9.979559542E0,1.174925831E1,2.014416078E0,-1.836797547E0,1.206137505E1
9.989550542E0,1.174050970E1,2.034512666E0,-1.865897970E0,1.206069588E1
9.999541542E0,1.172995665E1,2.005164614E0,-1.973367163E0,1.206261771E1
1.000953254E1,1.171895570E1,1.947234056E0,-2.138737092E0,1.207061885E1
1.001952354E1,1.171000244E1,1.873029673E0,-2.346720361E0,1.208881689E1
1.002951454E1,1.170437859E1,1.795446038E0,-2.584790915E0,1.212011752E1
1.003950554E1,1.325971222E1,5.051825924E0,-2.147386440E0,1.435103418E1
1.004949654E1,8.433654313E0,4.513075753E0,-4.192920669E-1,9.574454745E0
1.005948754E1,4.923352656E0,3.701311189E0,1.274309435E0,6.289910208E0
1.006947854E1,2.408472805E0,2.919660371E0,2.593800890E0,4.588350574E0
1.007946954E1,3.755339170E-1,2.272955835E0,3.234715367E0,3.971238781E0
1.008946054E1,-1.535998063E0,1.556268313E0,3.241161337E0,3.909781059E0
1.009945154E1,-3.403719780E0,6.239210066E-1,2.926776432E0,4.532174539E0
1.010944254E1,-5.400790093E0,-1.966725603E-1,2.615019266E0,6.003793758E0
1.011943354E1,-7.389559114E0,-8.178091228E-1,2.384704458E0,7.807766071E0
1.012942454E1,-9.026266696E0,-1.424805656E0,2.022011611E0,9.359064728E0
1.013941554E1,-1.044180568E1,-2.203466208E0,1.468874366E0,1.077237955E1
1.014940654E1,-1.180009634E1,-3.071711367E0,5.296477374E-1,1.220484375E1
1.015939754E1,-1.293575309E1,-3.894541494E0,-8.692447400E-1,1.353723560E1
1.016938854E1,-1.407605136E1,-4.798142719E0,-2.636538189E0,1.510326882E1
1.017937954E1,-1.546705718E1,-5.862129561E0,-4.363270673E0,1.710650613E1
1.018937054E1,-1.705073812E1,-6.876950090E0,-5.708349543E0,1.925111341E1
1.019936154E1,-1.810190143E1,-7.190298868E0,-6.471238108E0,2.052452572E1
1.020935254E1,-1.824607974E1,-7.091869179E0,-6.477919722E0,2.061983216E1
1.021934354E1,-1.725416509E1,-6.851089025E0,-5.671774040E0,1.941166285E1
1.022933454E1,-1.548026721E1,-6.481666033E0,-4.392136037E0,1.734766631E1
1.023932554E1,-1.370857023E1,-6.073631537E0,-2.897660222E0,1.527122564E1
1.024931654E1,-1.213489621E1,-5.720978944E0,-1.722514887E0,1.352598846E1
1.025930754E1,-1.088289157E1,-5.479176697E0,-8.702662486E-1,1.221540296E1
1.026929854E1,-1.001314280E1,-5.435454141E0,-2.421255988E-1,1.139586834E1
1.027928954E1,-9.611623853E0,-5.541239043E0,2.150377876E-1,1.109661590E1
1.028928054E1,-9.441181026E0,-5.679391208E0,5.849729955E-1,1.103329403E1
1.029927154E1,-9.443214102E0,-5.889093996E0,7.653648609E-1,1.115533523E1
1.030926254E1,-9.724734732E0,-6.190378214E0,6.860836333E-1,1.154824484E1
1.031925354E1,-1.016383607E1,-6.391053486E0,4.484065962E-1,1.201458267E1
1.032924454E1,-1.070324639E1,-6.147458482E0,2.333962905E-1,1.234525022E1
1.033923554E1,-1.101576253E1,-6.056969311E0,-1.984205854E-1,1.257271936E1
1.034922654E1,-1.093119658E1,-6.184858443E0,-7.488248420E-1,1.258190253E1
1.035921754E1,-1.035198193E1,-6.135810243E0,-1.104657151E0,1.208436861E1
1.036920854E1,-9.413514925E0,-5.839594392E0,-1.323510246E0,1.115646921E1
1.037919954E1,-7.994873988E0,-5.219552135E0,-1.818205740E0,9.719444773E0
1.038919054E1,-5.418946867E0,-5.059826669E0,-2.674467323E0,7.881599237E0
1.039918154E1,-2.641138194E0,-5.334506056E0,-3.522018893E0,6.916442937E0
1.040917254E1,7.387693852E-1,-5.453205119E0,-4.297261455E0,6.982097270E0
1.041916354E1,5.552103755E0,-5.428497709E0,-4.385894719E0,8.917988337E0
1.042915454E1,1.331494736E1,-3.966641463E0,-2.468854662E0,1.411089335E1
1.043914554E1,1.323143392E1,-3.565110241E0,-2.445380430E0,1.391979670E1
1.044913654E1,1.317087548E1,-3.198644771E0,-2.351373575E0,1.375617123E1
1.045912754E1,1.313738263E1,-2.928077730E0,-2.209508429E0,1.363988229E1
1.046911854E1,1.312749264E1,-2.782863299E0,-2.026673012E0,1.357139620E1
1.047910954E1,1.313419355E1,-2.735402619E0,-1.815931174E0,1.353835565E1
1.048910054E1,1.314843971E1,-2.720573495E0,-1.609682336E0,1.352309374E1
1.049909154E1,1.316227071E1,-2.690517053E0,-1.435176570E0,1.351088391E1
1.050908254E1,1.317169058E1,-2.643253132E0,-1.311309446E0,1.349813884E1
1.051907354E1,1.317432650E1,-2.610660167E0,-1.265380590E0,1.348998196E1
1.052906454E1,1.316926048E1,-2.622488207E0,-1.316251220E0,1.349219712E1
1.053905554E1,1.316001720E1,-2.685636382E0,-1.452406122E0,1.350955880E1
1.054904654E1,1.054084933E1,5.663639978E0,-1.945321870E0,1.212314314E1
1.055903754E1,6.313670264E0,4.529413750E0,-1.326539104E0,7.882748704E0
1.056902854E1,1.730572935E0,2.901687199E0,-6.170952594E-1,3.434454519E0
1.057901954E1,-3.144912075E0,1.590326883E0,3.231744397E-1,3.538933917E0
1.058901054E1,-7.595062432E0,2.394947903E-1,1.036066972E0,7.669143751E0
1.059900154E1,-1.106732444E1,-9.897076151E-1,1.075512289E0,1.116341875E1
1.060899254E1,-1.365333275E1,-1.955788532E0,4.824274510E-1,1.380113547E1
1.061898354E1,-1.572987315E1,-2.829893624E0,-2.945295149E-1,1.598511667E1
1.062897454E1,-1.720080925E1,-3.869890510E0,-1.087307950E0,1.766426138E1
1.063896554E1,-1.803938066E1,-4.879000063E0,-1.959473301E0,1.878998222E1
1.064895654E1,-1.838193629E1,-5.525771989E0,-2.957067348E0,1.942096766E1
1.065894754E1,-1.870715842E1,-6.016807126E0,-3.989819534E0,2.005189278E1
1.066893925E1,-1.921359746E1,-6.616623278E0,-4.985674619E0,2.092364649E1
1.067893025E1,-1.894316374E1,-6.369635135E0,-5.480046762E0,2.072309380E1
1.068892125E1,-1.788957734E1,-5.754601604E0,-5.374372957E0,1.954574894E1
1.069891225E1,-1.573784174E1,-4.939319648E0,-4.885802422E0,1.720312781E1
1.070890325E1,-1.344644890E1,-4.132378744E0,-4.053582251E0,1.463950379E1
1.071889425E1,-1.133729975E1,-3.543247502E0,-3.061130245E0,1.226619284E1
1.072888525E1,-9.688141102E0,-3.130601892E0,-2.074513176E0,1.039058955E1
1.073887625E1,-8.550085241E0,-2.871203910E0,-1.108742015E0,9.087193096E0
1.074886725E1,-7.686252099E0,-3.068995920E0,-3.465024912E-1,8.283554265E0
1.075885825E1,-7.439809501E0,-3.455337538E0,2.734439071E-1,8.207611984E0
1.076884925E1,-7.626012914E0,-3.608279065E0,6.317881429E-1,8.460195448E0
1.077884025E1,-8.039846093E0,-3.710042252E0,6.856538630E-1,8.881084389E0
1.078883125E1,-8.618552628E0,-3.804128337E0,5.267486878E-1,9.435481227E0
1.079882225E1,-9.228098547E0,-3.853932581E0,2.148863447E-1,1.000283836E1
1.080881325E1,-9.722344975E0,-3.914821976E0,-1.659849107E-1,1.048224088E1
1.081880425E1,-1.002383969E1,-3.920232405E0,-6.735372627E-1,1.078421238E1
1.082879525E1,-1.008710891E1,-3.919004197E0,-1.283286080E0,1.089748517E1
1.083878625E1,-9.556121498E0,-3.972256545E0,-1.762506334E0,1.049784305E1
1.084877725E1,-8.578870499E0,-4.037288692E0,-2.025079061E0,9.695239255E0
1.085876825E1,-7.319738681E0,-3.893929875E0,-2.189881665E0,8.575362729E0
1.086875925E1,-5.829607347E0,-4.049727767E0,-2.230616731E0,7.440448092E0
1.087875025E1,-3.851106622E0,-5.003601598E0,-2.121352005E0,6.660869724E0
1.088874125E1,-1.318206237E0,-5.832871263E0,-1.530698001E0,6.172770142E0
1.089873225E1,3.102821478E0,-5.413862713E0,-7.806172498E-1,6.288622575E0
1.090872325E1,1.003991954E1,-3.320772933E0,2.862219371E-2,1.057489179E1
1.091871425E1,9.989233532E0,-3.024699753E0,-3.358637016E-2,1.043717985E1
1.092870525E1,9.957462101E0,-2.745963860E0,2.914252281E-2,1.032919253E1
1.093869625E1,9.947229474E0,-2.525468866E0,1.959414390E-1,1.026468510E1
1.094868725E1,9.956215475E0,-2.392227486E0,4.123095413E-1,1.024787676E1
1.095867825E1,9.975387325E0,-2.338047770E0,6.143776198E-1,1.026412585E1
1.096866925E1,9.994538126E0,-2.326841435E0,7.641774376E-1,1.029023569E1
1.097866025E1,1.000789200E1,-2.329100653E0,8.546772793E-1,1.031082370E1
1.098865125E1,1.001363630E1,-2.341199712E0,8.867184131E-1,1.032184081E1
1.099864225E1,1.001122725E1,-2.371730071E0,8.561330898E-1,1.032389163E1
1.100863325E1,1.000209039E1,-2.420705473E0,7.675312543E-1,1.031943464E1
1.101862425E1,9.989504843E0,-2.475821035E0,6.402104723E-1,1.031163257E1
1.102861525E1,1.182166906E1,4.213329937E0,2.806139456E-1,1.255319691E1
1.103860625E1,7.794211580E0,3.707177408E0,2.007242860E0,8.861259639E0
1.104859725E1,5.095802248E0,3.198896201E0,3.176002890E0,6.803464692E0
1.105858825E1,3.346560908E0,2.532904185E0,3.739172788E0,5.621075223E0
1.106857925E1,1.382416851E0,1.357350861E0,3.629826347E0,4.114500822E0
1.107857025E1,-1.475022714E0,1.016928743E-1,3.195940726E0,3.521373392E0
1.108856125E1,-4.681465039E0,-6.684722583E-1,2.496903756E0,5.347662895E0
1.109855225E1,-7.477087255E0,-1.274855272E0,1.503959999E0,7.732657076E0
1.110854325E1,-9.745408148E0,-2.038722223E0,4.774029386E-1,9.967812289E0
1.111853425E1,-1.175420388E1,-2.935015159E0,-5.181720650E-1,1.212617521E1
1.112852525E1,-1.357850359E1,-4.106267126E0,-1.659270233E0,1.428251964E1
1.113851625E1,-1.545126970E1,-5.348065749E0,-2.457568367E0,1.653430328E1
1.114850725E1,-1.734250015E1,-6.676018710E0,-3.179666755E0,1.885316466E1
1.115849825E1,-1.893733523E1,-7.855155355E0,-3.791629329E0,2.084952240E1
1.116848925E1,-1.970494367E1,-8.492759138E0,-3.585739510E0,2.175475329E1
1.117848025E1,-1.946575981E1,-8.312047430E0,-2.877558664E0,2.136085863E1
1.118847125E1,-1.849102194E1,-7.913387775E0,-1.811106051E0,2.019454638E1
1.119846225E1,-1.689639034E1,-7.634427057E0,-7.138432165E-1,1.855483913E1
1.120845325E1,-1.535654247E1,-7.334440920E0,1.926482141E-1,1.701924010E1
1.121844425E1,-1.400310383E1,-6.924546425E0,8.656358385E-1,1.564562513E1
1.122843525E1,-1.274818844E1,-6.583436236E0,1.319487362E0,1.440829581E1
1.123842625E1,-1.171828327E1,-6.274119698E0,1.606259376E0,1.338890622E1
1.124841725E1,-1.093846117E1,-6.059452624E0,1.688108701E0,1.261810642E1
1.125840825E1,-1.040472381E1,-6.036601120E0,1.598631098E0,1.213484454E1
1.126839925E1,-1.018478547E1,-6.149358827E0,1.426314822E0,1.198243895E1
1.127839025E1,-1.017470955E1,-6.225469694E0,1.238948983E0,1.199233847E1
1.128838125E1,-1.040891393E1,-6.099673281E0,1.037069185E0,1.210896427E1
1.129837225E1,-1.098815080E1,-6.102258335E0,8.055802560E-1,1.259468040E1
1.130836325E1,-1.156042716E1,-6.174588393E0,7.244923119E-1,1.312607736E1
1.131835425E1,-1.182426405E1,-6.057369261E0,5.568852373E-1,1.329718255E1
1.132834525E1,-1.152283424E1,-5.941431254E0,4.374068141E-1,1.297180168E1
1.133833625E1,-1.082746113E1,-5.691611888E0,5.223083123E-1,1.224341319E1
1.134832725E1,-9.853758223E0,-5.099111187E0,5.382748655E-1,1.110798028E1
1.135831825E1,-8.475669481E0,-4.332219619E0,3.778318727E-1,9.526166957E0
1.136830925E1,-6.425932127E0,-3.696257148E0,1.705328020E-1,7.415119827E0
1.137830025E1,-3.425380790E0,-3.266835292E0,-3.982083960E-1,4.750159609E0
1.138829125E1,4.302568388E-1,-2.716681004E0,-9.788975751E-1,2.919540561E0
1.139828225E1,5.870513299E0,-1.161357016E0,-1.010398865E0,6.068985284E0
1.140827325E1,1.323985508E1,1.423983830E0,-5.552398674E-1,1.332778240E1
1.141826425E1,1.317745009E1,1.698591881E0,-4.470195635E-1,1.329399231E1
1.142825525E1,1.312788324E1,1.998706510E0,-2.333179379E-1,1.328121167E1
1.143824625E1,1.309791275E1,2.299612999E0,2.873329081E-2,1.329828425E1
1.144823725E1,1.308981436E1,2.561289786E0,2.886630034E-1,1.334116830E1
1.145822825E1,1.309775838E1,2.771013039E0,5.227738237E-1,1.339787597E1
1.146821925E1,1.311192268E1,2.934389800E0,7.097176404E-1,1.345499383E1
1.147821025E1,1.312412816E1,3.044333241E0,8.306656882E-1,1.349817433E1
1.148820125E1,1.312800018E1,3.093278822E0,8.723551664E-1,1.351568593E1
1.149819225E1,1.311758980E1,3.083115776E0,8.154757914E-1,1.349969503E1
1.150818325E1,1.309159893E1,3.025308448E0,6.478048360E-1,1.345221561E1
1.151817425E1,1.496259216E1,5.547668642E0,-2.720943332E0,1.618824648E1
1.152816525E1,9.837907591E0,4.669285288E0,-1.177785865E0,1.095325661E1
1.153815625E1,5.311297873E0,4.423381804E0,4.539205205E-1,6.926921070E0
1.154814725E1,1.851422603E0,4.268334695E0,2.143986869E0,5.122804546E0
1.155813825E1,-5.358797729E-1,3.616108779E0,3.074646084E0,4.776699527E0
1.156812925E1,-2.396739782E0,2.463986855E0,3.038574611E0,4.587867530E0
1.157812025E1,-4.129164530E0,1.269266796E0,2.452468425E0,4.967458031E0
1.158811125E1,-6.268925616E0,1.752290663E-1,1.907608498E0,6.555082287E0
1.159810225E1,-8.766871346E0,-8.966420151E-1,1.096844686E0,8.880600676E0
1.160809325E1,-1.110844908E1,-2.159929595E0,-2.130473953E-1,1.131849487E1
1.161808425E1,-1.326208385E1,-3.480602480E0,-1.741205512E0,1.382133345E1
1.162807525E1,-1.571768288E1,-4.591189291E0,-3.458060294E0,1.673567313E1
1.163806625E1,-1.813792730E1,-5.451493639E0,-5.413915338E0,1.969806257E1
1.164805725E1,-2.066946060E1,-6.442229487E0,-7.099486932E0,2.278446043E1
1.165804825E1,-2.213032662E1,-6.929829385E0,-8.496137660E0,2.469733279E1
1.166803879E1,-2.208102992E1,-6.857180069E0,-8.748710479E0,2.472109900E1
1.167802979E1,-2.040341697E1,-6.468572947E0,-7.864729586E0,2.280341710E1
1.168802079E1,-1.768170181E1,-5.910522287E0,-6.135882164E0,1.962717255E1
1.169801179E1,-1.514741329E1,-5.322387117E0,-4.411485059E0,1.665031935E1
1.170800279E1,-1.316566795E1,-4.918859071E0,-2.904359962E0,1.435149100E1
1.171799379E1,-1.165107537E1,-4.748646038E0,-1.659477224E0,1.269058947E1
1.172798479E1,-1.046932619E1,-4.651443972E0,-6.470283258E-1,1.147437874E1
1.173797579E1,-9.396097239E0,-4.485713122E0,2.127065027E-1,1.041410148E1
1.174796679E1,-8.285075979E0,-4.355008849E0,9.337254953E-1,9.406403635E0
1.175795779E1,-7.589599378E0,-3.995969051E0,1.529431640E0,8.712574161E0
1.176794879E1,-7.088549715E0,-3.468219246E0,1.942999356E0,8.127196829E0
1.177793979E1,-6.685064353E0,-2.978064115E0,2.143524939E0,7.625854079E0
1.178793079E1,-6.510912051E0,-2.618767624E0,2.051479239E0,7.311531076E0
1.179792179E1,-6.694484802E0,-2.403694168E0,1.717751745E0,7.317413715E0
1.180791279E1,-7.156190305E0,-2.541913868E0,1.175849340E0,7.684725595E0
1.181790379E1,-7.495965575E0,-2.922113278E0,6.079116225E-1,8.068320919E0
1.182789479E1,-7.287495965E0,-3.312144781E0,1.128536010E-1,8.005662772E0
1.183788579E1,-6.592580112E0,-3.625111444E0,-2.509940708E-1,7.527718349E0
1.184787679E1,-5.590436931E0,-4.133410778E0,-3.901975644E-1,6.963499399E0
1.185786779E1,-4.302895832E0,-4.912945197E0,-7.685825837E-1,6.575915315E0
1.186785879E1,-1.744761204E0,-5.391418176E0,-1.525274270E0,5.868393579E0
1.187784979E1,2.631858078E0,-5.285656078E0,-2.204876264E0,6.302881599E0
1.188784079E1,9.546210467E0,-4.472684941E0,-2.247280272E0,1.077892914E1
1.189783179E1,9.492710783E0,-4.169971956E0,-2.183600585E0,1.059567533E1
1.190782279E1,9.449731994E0,-3.854034907E0,-2.066069212E0,1.041247626E1
1.191781379E1,9.423598448E0,-3.569398004E0,-1.916299800E0,1.025753454E1
1.192780479E1,9.414017785E0,-3.354164042E0,-1.759904323E0,1.014748296E1
1.193779579E1,9.414066902E0,-3.205870467E0,-1.624119111E0,1.007670700E1
1.194778679E1,9.416367781E0,-3.087600298E0,-1.523026600E0,1.002600957E1
1.195777779E1,9.418044763E0,-2.971364960E0,-1.451744363E0,9.981790349E0
1.196776879E1,9.418845831E0,-2.862047463E0,-1.407311518E0,9.944169054E0
1.197775979E1,9.417090497E0,-2.786623643E0,-1.404735381E0,9.920692831E0
1.198775079E1,9.410492499E0,-2.765232190E0,-1.461743102E0,9.916681452E0
1.199774179E1,9.399426643E0,-2.802095668E0,-1.582968746E0,9.935127146E0
1.200773279E1,9.387278468E0,-2.891304006E0,-1.761245674E0,9.979109290E0
1.201772379E1,1.199756500E1,4.457081062E0,2.677493842E0,1.307578337E1
1.202771479E1,7.486958524E0,3.841563966E0,1.972057679E0,8.642984041E0
1.203770579E1,3.291208826E0,3.091660605E0,8.234867692E-1,4.590049160E0
1.204769679E1,-5.697205335E-1,2.201301423E0,-5.211804575E-1,2.332796286E0
1.205768779E1,-3.963649735E0,1.160301886E0,-1.707837206E0,4.469175272E0
1.206767879E1,-7.125568437E0,2.189658009E-1,-2.579703253E0,7.581328409E0
1.207766979E1,-1.028893842E1,-5.498186579E-1,-3.309080840E0,1.082194855E1
1.208766079E1,-1.353843496E1,-1.522335751E0,-3.979510308E0,1.419306977E1
1.209765179E1,-1.622769574E1,-2.912776152E0,-4.382463573E0,1.705955336E1
1.210764279E1,-1.809702252E1,-4.194926703E0,-4.561825159E0,1.912877107E1
1.211763379E1,-1.906370058E1,-5.014081562E0,-4.793103004E0,2.028643710E1
1.212762479E1,-1.951307781E1,-5.702050338E0,-4.985116210E0,2.093143491E1
1.213761579E1,-1.961782250E1,-6.218511508E0,-4.879050057E0,2.115027126E1
1.214760679E1,-1.922654904E1,-6.386058210E0,-4.391545469E0,2.072987215E1
1.215759779E1,-1.828288679E1,-6.197915275E0,-3.587624652E0,1.963540562E1
1.216758879E1,-1.697247665E1,-5.988255172E0,-2.632700661E0,1.818942760E1
1.217757979E1,-1.553669284E1,-5.925881753E0,-1.771197635E0,1.672250101E1
1.218757079E1,-1.400406979E1,-5.756193216E0,-9.875374210E-1,1.517309992E1
1.219756179E1,-1.264373378E1,-5.314121493E0,-3.377702594E-1,1.371925581E1
1.220755279E1,-1.147192838E1,-4.873762420E0,1.199240176E-1,1.246487395E1
1.221754379E1,-1.042201520E1,-4.718689583E0,3.921821094E-1,1.144719350E1
1.222753479E1,-9.684495363E0,-4.796661619E0,5.465801410E-1,1.082109805E1
1.223752579E1,-9.355567848E0,-4.877592346E0,6.852936745E-1,1.057294587E1
1.224751679E1,-9.245338477E0,-4.983077871E0,6.492631316E-1,1.052277963E1
1.225750779E1,-9.392175511E0,-5.041091605E0,4.303597498E-1,1.066821330E1
1.226749879E1,-9.913738961E0,-5.017364189E0,1.791505380E-1,1.111252710E1
1.227748979E1,-1.043881659E1,-5.088217825E0,-2.846775413E-2,1.161290932E1
1.228748079E1,-1.085672177E1,-5.184438436E0,-2.892184889E-1,1.203455262E1
1.229747179E1,-1.101458490E1,-5.179591094E0,-5.877445026E-1,1.218583965E1
1.230746279E1,-1.050045326E1,-5.235679926E0,-1.005642666E0,1.177638230E1
1.231745379E1,-9.449827888E0,-4.692698709E0,-1.433748972E0,1.064783097E1
1.232744479E1,-7.334703460E0,-4.002572604E0,-2.076363820E0,8.609863472E0
1.233743579E1,-4.508047147E0,-4.364233124E0,-2.975253943E0,6.944145439E0
1.234742679E1,-2.362231854E0,-4.559521356E0,-3.905265287E0,6.451392973E0
1.235741779E1,2.269795561E-1,-3.980047959E0,-4.606062269E0,6.091642726E0
1.236740879E1,5.239060786E0,-2.349298983E0,-3.788468324E0,6.878913858E0
1.237739979E1,1.374911365E1,3.517034434E-1,-1.888885714E0,1.388271266E1
1.238739079E1,1.369409018E1,6.822085373E-1,-1.664888238E0,1.381178364E1
1.239738179E1,1.367126967E1,9.537292586E-1,-1.408856352E0,1.377672276E1
1.240737279E1,1.367626670E1,1.111205740E0,-1.187175543E0,1.377259724E1
1.241736379E1,1.369236759E1,1.156717250E0,-1.046498551E0,1.378093191E1
1.242735479E1,1.370109748E1,1.149179458E0,-1.004729404E0,1.378586838E1
1.243734579E1,1.369298623E1,1.145773894E0,-1.053372538E0,1.378115609E1
1.244733679E1,1.366833904E1,1.172943859E0,-1.172185621E0,1.376856233E1
1.245732779E1,1.363175418E1,1.236001694E0,-1.344189509E0,1.375351838E1
1.246731879E1,1.225816838E1,2.933905650E0,-3.017833368E0,1.296062547E1
1.247730979E1,9.303296079E0,2.709059451E0,-7.719285066E-1,9.720400952E0
1.248730079E1,6.624704130E0,2.569923200E0,1.163867226E0,7.200402557E0
1.249729179E1,4.310272679E0,2.670537994E0,2.566325408E0,5.682978959E0
1.250728279E1,2.946389163E0,2.970814445E0,3.430948509E0,5.410947721E0
1.251727379E1,2.838691052E0,3.523391527E0,3.981893048E0,6.027265299E0
1.252726479E1,3.223489882E0,4.106249292E0,3.976068637E0,6.562110337E0
1.253725579E1,3.203860195E0,5.145947385E0,3.966213740E0,7.244055912E0
1.254724679E1,4.731789100E-1,5.181722404E0,3.496715067E0,6.269063855E0
1.255723779E1,-3.196272263E0,3.300382522E0,2.307695459E0,5.141414154E0
1.256722879E1,-6.849638915E0,1.410472961E0,1.475334955E0,7.147279235E0
1.257721979E1,-1.006650566E1,4.412089661E-1,7.700554973E-1,1.010555228E1
1.258721079E1,-1.238925594E1,-5.199899644E-1,-2.336868972E-1,1.240236517E1
1.259720179E1,-1.415641549E1,-1.886005375E0,-1.472268090E0,1.435718249E1
1.260719279E1,-1.624155832E1,-3.137009563E0,-2.764979298E0,1.677123001E1
1.261718379E1,-1.806280695E1,-3.885676238E0,-4.233529728E0,1.895484763E1
1.262717479E1,-1.929704425E1,-4.009474072E0,-5.382605837E0,2.043096289E1
1.263716579E1,-1.968375336E1,-3.755270757E0,-5.627576106E0,2.081398130E1
1.264715679E1,-1.898132501E1,-3.334013953E0,-5.066874903E0,1.992685548E1
1.265714779E1,-1.717430616E1,-3.016783792E0,-4.124391448E0,1.791838110E1
1.266713879E1,-1.489723081E1,-2.745703366E0,-3.014164240E0,1.544511441E1
1.267712988E1,-1.283906353E1,-2.342827869E0,-1.859463109E0,1.318286759E1
1.268712088E1,-1.108187699E1,-2.015126661E0,-7.361445701E-1,1.128763226E1
1.269711188E1,-9.693290745E0,-1.834871475E0,2.864469087E-1,9.869584116E0
1.270710288E1,-8.890723559E0,-1.658705246E0,1.153580804E0,9.117401887E0
1.271709388E1,-8.423331054E0,-1.616115296E0,1.745654658E0,8.752807828E0
1.272708488E1,-8.085650257E0,-1.792048075E0,2.022274736E0,8.525184543E0
1.273707588E1,-8.058427375E0,-2.015385985E0,2.059886366E0,8.558222027E0
1.274706688E1,-8.269833457E0,-2.194602999E0,1.880614243E0,8.760316071E0
1.275705788E1,-8.779526474E0,-2.355423356E0,1.452025030E0,9.205242039E0
1.276704888E1,-9.526249242E0,-2.611496319E0,8.585349798E-1,9.914959403E0
1.277703987E1,-9.967561412E0,-2.829789836E0,3.520877516E-1,1.036744698E1
1.278703088E1,-9.893526306E0,-2.754112247E0,-1.707569696E-4,1.026971261E1
1.279702188E1,-9.431160067E0,-2.291085127E0,-2.823982783E-1,9.709562300E0
1.280701288E1,-8.548849139E0,-1.830925920E0,-6.499987113E-1,8.766847190E0
1.281700388E1,-7.371443270E0,-1.604916563E0,-9.907849646E-1,7.608915028E0
1.282699488E1,-5.400415871E0,-1.711694322E0,-1.248743069E0,5.801185076E0
1.283698588E1,-2.334804904E0,-2.386264641E0,-1.631922805E0,3.716011965E0
1.284697688E1,2.273645952E0,-3.132915342E0,-1.241480827E0,4.065205912E0
1.285696788E1,1.011946038E1,-3.089935969E0,-2.310246233E-1,1.058322045E1
1.286695888E1,1.009641767E1,-2.847482926E0,-2.573943965E-1,1.049342941E1
1.287694988E1,1.008313280E1,-2.656668691E0,-2.681147182E-1,1.043069226E1
1.288694088E1,1.007807613E1,-2.520725020E0,-2.371724224E-1,1.039124265E1
1.289693188E1,1.008067229E1,-2.441507235E0,-1.452634748E-1,1.037313901E1
1.290692288E1,1.009212348E1,-2.423004744E0,1.642957963E-2,1.037892953E1
1.291691388E1,1.011260277E1,-2.454523137E0,2.233696313E-1,1.040861722E1
1.292690488E1,1.013945552E1,-2.507237540E0,4.379355486E-1,1.045402247E1
1.293689588E1,1.016843198E1,-2.557513947E0,6.331495209E-1,1.050422605E1
1.294688688E1,1.019493390E1,-2.605461992E0,7.882995410E-1,1.055208632E1
1.295687788E1,1.021415253E1,-2.667989485E0,8.816664188E-1,1.059360257E1
1.296686888E1,1.022234799E1,-2.760639786E0,8.948964751E-1,1.062630557E1
1.297685988E1,1.368118070E1,2.617261381E0,-1.369716114E0,1.399645972E1
1.298685088E1,8.752129930E0,2.821545846E0,-1.466465167E0,9.311896658E0
1.299684188E1,4.139115322E0,2.245416472E0,-1.267464684E0,4.876539501E0
1.300683288E1,5.006280792E-1,1.192967649E0,-5.884136434E-1,1.421277911E0
1.301682388E1,-2.276552019E0,1.354595214E-1,2.144513118E-1,2.290639155E0
1.302681488E1,-4.419857102E0,-7.621813443E-1,9.525921214E-1,4.585137834E0
1.303680588E1,-6.274015617E0,-1.188198659E0,1.590673038E0,6.580678440E0
1.304679688E1,-7.952502725E0,-1.339908763E0,1.778233590E0,8.258315190E0
1.305678788E1,-9.682755817E0,-1.572386456E0,1.308529680E0,9.896484694E0
1.306677888E1,-1.116247267E1,-2.307990158E0,-2.747844178E-2,1.139861263E1
1.307676988E1,-1.253447739E1,-3.785443559E0,-1.429410923E0,1.317140547E1
1.308676088E1,-1.428225108E1,-5.238039277E0,-2.346596984E0,1.539240945E1
1.309675188E1,-1.592523097E1,-6.057096781E0,-3.105439861E0,1.731892490E1
1.310674288E1,-1.718673500E1,-6.676745519E0,-4.055577906E0,1.887883743E1
1.311673388E1,-1.851684325E1,-7.467501329E0,-4.936413581E0,2.056709116E1
1.312672488E1,-1.909708584E1,-7.453358084E0,-5.461811635E0,2.121515074E1
1.313671587E1,-1.882914771E1,-7.061287072E0,-5.450027157E0,2.083509958E1
1.314670688E1,-1.761900562E1,-6.623706011E0,-4.897826051E0,1.944971826E1
1.315669788E1,-1.600298958E1,-6.171437913E0,-4.023524639E0,1.761735145E1
1.316668888E1,-1.446176411E1,-5.752357442E0,-3.175181941E0,1.588439541E1
1.317667988E1,-1.309853957E1,-5.359335673E0,-2.478984379E0,1.436800547E1
1.318667088E1,-1.205604417E1,-5.120400900E0,-1.868689431E0,1.323097527E1
1.319666188E1,-1.139890016E1,-5.117915833E0,-1.365128388E0,1.256946948E1
1.320665288E1,-1.111174691E1,-5.286141981E0,-9.217503977E-1,1.233952350E1
1.321664388E1,-1.144806238E1,-5.548946843E0,-2.302820635E-1,1.272407062E1
1.322663488E1,-1.214915056E1,-5.606417956E0,3.475842261E-1,1.338486445E1
1.323662588E1,-1.263479924E1,-5.551506754E0,6.168467528E-1,1.381440838E1
1.324661688E1,-1.310319863E1,-5.333782171E0,8.246258068E-1,1.417120511E1
1.325660788E1,-1.335255899E1,-5.034605289E0,9.188817537E-1,1.429973516E1
1.326659888E1,-1.322504057E1,-4.820550711E0,8.580309498E-1,1.410232692E1
1.327658988E1,-1.269253464E1,-4.774843318E0,5.881363757E-1,1.357370505E1
1.328658088E1,-1.171605431E1,-4.470041707E0,3.605323370E-1,1.254500638E1
1.329657188E1,-1.016542300E1,-3.798037292E0,4.908328235E-1,1.086286468E1
1.330656288E1,-8.211833171E0,-2.918060573E0,5.930469040E-1,8.735043569E0
1.331655388E1,-5.629874647E0,-2.152496322E0,1.944223324E-1,6.030466731E0
1.332654488E1,-2.572762608E0,-2.565790973E0,-3.493477098E-1,3.650265001E0
1.333653588E1,3.465457606E-1,-4.256230958E0,-9.061500263E-1,4.365398470E0
1.334652688E1,3.880032797E0,-5.955834700E0,-1.000522918E0,7.178277481E0
1.335651788E1,9.941227891E0,-5.958406890E0,2.455398246E-1,1.159270954E1
1.336650888E1,9.918573439E0,-5.586308212E0,3.139673408E-1,1.138786696E1
1.337649988E1,9.916297703E0,-5.229395338E0,4.547006122E-1,1.121990590E1
1.338649088E1,9.933315439E0,-4.942211096E0,6.510033361E-1,1.111395571E1
1.339648188E1,9.961014869E0,-4.768516631E0,8.669187176E-1,1.107755010E1
1.340647288E1,9.988181033E0,-4.708413394E0,1.057310053E0,1.109282748E1
1.341646388E1,1.000800076E1,-4.714085778E0,1.191653487E0,1.112666715E1
1.342645487E1,1.001924144E1,-4.729474480E0,1.265323580E0,1.115142017E1
1.343644588E1,1.002189725E1,-4.729577683E0,1.281453417E0,1.115569148E1
1.344643688E1,1.001460343E1,-4.723925765E0,1.235559937E0,1.114156025E1
1.345642788E1,9.996205752E0,-4.731460779E0,1.118250904E0,1.111581466E1
1.346641888E1,9.969686290E0,-4.764943105E0,9.350762022E-1,1.108935052E1
1.347640988E1,9.941003358E0,-4.827598945E0,7.051521344E-1,1.107368497E1
1.348640088E1,1.096448829E1,4.130912848E0,-2.305686940E0,1.194155085E1
1.349639187E1,6.752169923E0,3.925695459E0,-6.835020145E-1,7.840284339E0
1.350638288E1,3.116914437E0,3.382066371E0,8.868822813E-1,4.684024842E0
1.351637388E1,-8.111140609E-2,2.630117362E0,1.975902223E0,3.290636107E0
1.352636488E1,-3.039913623E0,1.889402608E0,2.354645092E0,4.284305143E0
1.353635588E1,-5.852407395E0,1.076974020E0,2.496646478E0,6.453199904E0
1.354634688E1,-8.895703048E0,5.045504645E-1,2.221663036E0,9.182804067E0
1.355633788E1,-1.164050010E1,-3.478198689E-1,9.573312896E-1,1.168497772E1
1.356632888E1,-1.357898657E1,-1.545584281E0,-4.783624667E-1,1.367503337E1
1.357631988E1,-1.524156282E1,-2.617625078E0,-1.540673497E0,1.554126356E1
1.358631088E1,-1.679405237E1,-3.362079418E0,-2.379297538E0,1.729175612E1
1.359630188E1,-1.781581588E1,-3.838959031E0,-3.150499674E0,1.849504123E1
1.360629288E1,-1.867384683E1,-4.542750372E0,-3.621146740E0,1.955663162E1
1.361628388E1,-1.896974986E1,-4.779017646E0,-3.843728020E0,1.993651586E1
1.362627488E1,-1.858563106E1,-4.638811355E0,-3.520587494E0,1.947662160E1
1.363626588E1,-1.773856949E1,-4.285168828E0,-2.777520990E0,1.845898540E1
1.364625688E1,-1.639645691E1,-3.911133553E0,-1.836925017E0,1.695626900E1
1.365624788E1,-1.480854609E1,-3.556694636E0,-1.061765412E0,1.526664534E1
1.366623888E1,-1.309530489E1,-3.108211441E0,-2.871777376E-1,1.346218629E1
1.367623038E1,-1.141816908E1,-2.521045740E0,4.498964667E-1,1.170182308E1
1.368622138E1,-9.914054711E0,-1.988342028E0,9.775386822E-1,1.015862032E1
1.369621238E1,-8.789942120E0,-1.735078507E0,1.332083434E0,9.058036551E0
1.370620338E1,-8.172079121E0,-1.662267077E0,1.547525264E0,8.481794824E0
1.371619438E1,-8.098407712E0,-1.728149556E0,1.601000390E0,8.434092163E0
1.372618538E1,-8.290824376E0,-1.921843983E0,1.374316703E0,8.620904798E0
1.373617638E1,-8.661315070E0,-2.220238946E0,1.040549521E0,9.001698896E0
1.374616738E1,-9.296616805E0,-2.541995729E0,8.853479719E-1,9.678464100E0
1.375615838E1,-1.012301081E1,-2.856527399E0,6.600113373E-1,1.053900904E1
1.376614938E1,-1.068475282E1,-3.198826327E0,3.161637012E-1,1.115779513E1
1.377614038E1,-1.104374145E1,-3.540874409E0,-5.986591347E-2,1.159765497E1
1.378613138E1,-1.070351068E1,-3.543126172E0,-5.728787608E-1,1.128924595E1
1.379612238E1,-9.398657150E0,-3.050808156E0,-1.228177242E0,9.957439729E0
1.380611338E1,-7.241735070E0,-2.403168796E0,-1.966339102E0,7.879367776E0
1.381610438E1,-4.376666644E0,-2.490838439E0,-2.921787003E0,5.822055164E0
1.382609538E1,-1.073786775E0,-4.099335544E0,-3.761902084E0,5.666522499E0
1.383608638E1,2.247690747E0,-6.388632739E0,-3.643891239E0,7.690558193E0
1.384607738E1,5.407798566E0,-8.540356643E0,-2.483747520E0,1.040917762E1
1.385606838E1,1.120716879E1,-8.378140848E0,-1.511267849E0,1.407401176E1
1.386605938E1,1.116946127E1,-7.889380277E0,-1.452594548E0,1.375169870E1
1.387605038E1,1.116777961E1,-7.467724108E0,-1.302144520E0,1.349747328E1
1.388604138E1,1.119086558E1,-7.192680439E0,-1.102360364E0,1.334860752E1
1.389603237E1,1.122184764E1,-7.094703324E0,-8.975240676E-1,1.330677381E1
1.390602338E1,1.124658136E1,-7.124847475E0,-7.434911580E-1,1.333423500E1
1.391601438E1,1.125857049E1,-7.191806281E0,-6.708336563E-1,1.337637862E1
1.392600538E1,1.125933882E1,-7.221539957E0,-6.654397461E-1,1.339276521E1
1.393599638E1,1.125381788E1,-7.192664067E0,-6.974348330E-1,1.337420086E1
1.394598738E1,1.124640712E1,-7.130742638E0,-7.439878790E-1,1.333726665E1
1.395597838E1,1.123820347E1,-7.070929130E0,-7.987879841E-1,1.330162841E1
1.396596937E1,1.122861638E1,-7.035132476E0,-8.626676457E-1,1.327852063E1
1.397596038E1,9.929066852E0,4.919306967E0,4.995979460E-1,1.109213900E1
1.398595138E1,7.772341824E0,5.191236409E0,1.190537400E0,9.422081096E0
1.399594238E1,4.939358824E0,5.206733869E0,1.540763544E0,7.340387965E0
1.400593338E1,1.895800631E0,4.957384036E0,1.723481870E0,5.580332093E0
1.401592438E1,-9.302329534E-1,4.578888796E0,1.677333598E0,4.964373470E0
1.402591538E1,-3.336917095E0,4.276010042E0,1.567321744E0,5.645863533E0
1.403590638E1,-5.609718710E0,4.094152280E0,1.534627476E0,7.112391186E0
1.404589738E1,-7.775516278E0,3.796058595E0,1.711573577E0,8.820328698E0
1.405588838E1,-9.532107568E0,3.043218470E0,1.375288510E0,1.010018177E1
1.406587938E1,-1.117198025E1,1.795548949E0,8.446699890E-1,1.134683242E1
1.407587038E1,-1.292442001E1,2.775817989E-1,-1.418967211E-1,1.292817926E1
1.408586138E1,-1.460099216E1,-1.331926582E0,-1.235776284E0,1.471360403E1
1.409585238E1,-1.595137972E1,-3.006728336E0,-2.294552672E0,1.639365432E1
1.410584338E1,-1.719411302E1,-4.292062111E0,-2.781850269E0,1.793872935E1
1.411583438E1,-1.816676343E1,-4.720748680E0,-2.910673785E0,1.899444086E1
1.412582538E1,-1.834725528E1,-4.862466769E0,-2.770492637E0,1.918178795E1
1.413581638E1,-1.781466749E1,-4.856351166E0,-2.201528149E0,1.859551695E1
1.414580738E1,-1.672165682E1,-4.594542962E0,-1.413633381E0,1.739890776E1
1.415579838E1,-1.540982697E1,-4.166637873E0,-6.580187523E-1,1.597675271E1
1.416578938E1,-1.415945370E1,-3.858053699E0,-9.159780264E-2,1.467593601E1
1.417578038E1,-1.306896903E1,-3.569706445E0,4.206218699E-1,1.355424946E1
1.418577138E1,-1.223897548E1,-3.274572912E0,9.352715722E-1,1.270393961E1
1.419576238E1,-1.161487292E1,-3.029076101E0,1.444766296E0,1.208999275E1
1.420575338E1,-1.109891344E1,-2.916864232E0,1.640003657E0,1.159239356E1
1.421574338E1,-1.046943261E1,-3.074779401E0,1.579141159E0,1.102528795E1
1.422573538E1,-1.006005267E1,-3.114582860E0,1.501424646E0,1.063764833E1
1.423572638E1,-1.007933679E1,-2.954222093E0,1.337970557E0,1.058823042E1
1.424571638E1,-9.981211152E0,-2.703994592E0,9.749051694E-1,1.038684759E1
1.425570837E1,-9.741361290E0,-2.512695331E0,6.304597286E-1,1.007994231E1
1.426569838E1,-9.725355121E0,-2.330994274E0,2.594680019E-1,1.000416864E1
1.427568938E1,-9.412089958E0,-2.214376236E0,-3.483080383E-1,9.675340717E0
1.428568038E1,-8.882865486E0,-2.144815127E0,-1.270837358E0,9.226080358E0
1.429567138E1,-8.019457437E0,-2.197832855E0,-2.003382382E0,8.553111002E0
1.430566238E1,-6.254370727E0,-2.232300583E0,-2.527740802E0,7.105616978E0
1.431565338E1,-3.334774675E0,-2.476594329E0,-2.660742738E0,4.932929507E0
1.432564438E1,1.293912810E0,-2.282586345E0,-2.177313659E0,3.409560903E0
1.433563538E1,7.695311190E0,-1.085240155E0,-7.593486607E-1,7.808467897E0
1.434562638E1,7.670748791E0,-8.589054009E-1,-6.992287588E-1,7.750292018E0
1.435561738E1,7.656738278E0,-6.376157704E-1,-5.580488698E-1,7.703480607E0
1.436560838E1,7.654814544E0,-4.398421794E-1,-3.704784143E-1,7.676385940E0
1.437559938E1,7.664267737E0,-3.033202189E-1,-1.742612059E-1,7.672246742E0
1.438559038E1,7.682357853E0,-2.540550516E-1,1.483672500E-2,7.686571816E0
1.439558137E1,7.705390036E0,-2.699909435E-1,1.900390403E-1,7.712460408E0
1.440557238E1,7.729609203E0,-3.037264908E-1,3.460135178E-1,7.743308954E0
1.441556338E1,7.751878324E0,-3.237293039E-1,4.787733798E-1,7.773393220E0
1.442555438E1,7.768156972E0,-3.224213183E-1,5.738271792E-1,7.795992296E0
1.443554538E1,7.773441101E0,-3.041862281E-1,6.086954418E-1,7.803167687E0
1.444553638E1,7.765316979E0,-2.787933785E-1,5.703551026E-1,7.791224453E0
1.445552738E1,7.746291309E0,-2.613584432E-1,4.639439638E-1,7.764572189E0
1.446551838E1,1.096926196E1,2.923138295E0,-1.769497265E0,1.148914992E1
1.447550938E1,9.093094524E0,3.711628601E0,-1.156849544E0,9.889330400E0
1.448550038E1,7.377417955E0,3.993927788E0,-3.509535380E-1,8.396482790E0
1.449549138E1,5.135990746E0,3.762522766E0,3.141721395E-1,6.374455478E0
1.450548238E1,2.011717588E0,2.812452549E0,5.653112213E-1,3.503779926E0
1.451547338E1,-1.474079558E0,1.083539931E0,7.939162302E-1,1.994309982E0
1.452546438E1,-5.288290249E0,-3.738195133E-1,1.339478992E0,5.468085474E0
1.453545538E1,-8.553024051E0,-1.191985024E0,1.633993889E0,8.788912603E0
1.454544638E1,-1.130100725E1,-2.215800617E0,1.354094692E0,1.159552110E1
1.455543738E1,-1.396636227E1,-3.612953036E0,4.784659624E-1,1.443404428E1
1.456542838E1,-1.655486500E1,-4.919427420E0,-9.285413539E-1,1.729527422E1
1.457541938E1,-1.883912774E1,-5.952265559E0,-2.643823235E0,1.993318842E1
1.458541038E1,-2.058162607E1,-6.885243781E0,-3.897375054E0,2.204993075E1
1.459540138E1,-2.159248803E1,-7.207157561E0,-4.738851367E0,2.325156708E1
1.460539238E1,-2.152854990E1,-6.884887685E0,-5.115562913E0,2.317432034E1
1.461538338E1,-2.023324428E1,-6.290563238E0,-4.738936737E0,2.171204462E1
1.462537438E1,-1.803245288E1,-5.582391747E0,-3.536104835E0,1.920511630E1
1.463536538E1,-1.543573248E1,-5.007536774E0,-2.286784061E0,1.638800302E1
1.464535638E1,-1.295063074E1,-4.245535524E0,-1.003384472E0,1.366565728E1
1.465534738E1,-1.096336913E1,-3.407898200E0,2.815141976E-1,1.148427112E1
1.466533838E1,-9.475273801E0,-2.847574142E0,1.393410201E0,9.991550635E0
1.467532867E1,-8.445987845E0,-2.639452149E0,2.248069646E0,9.129908842E0
1.468531967E1,-8.006307049E0,-2.704355658E0,2.709382217E0,8.874415140E0
1.469531067E1,-8.178446739E0,-2.954711213E0,2.860167875E0,9.154117635E0
1.470530167E1,-9.024872135E0,-3.338257569E0,2.656814579E0,9.982531961E0
1.471529267E1,-1.016314376E1,-3.706365815E0,2.156488216E0,1.103073343E1
1.472528367E1,-1.114155718E1,-3.915449967E0,1.612162725E0,1.191906513E1
1.473527467E1,-1.178369022E1,-3.926411450E0,9.665822426E-1,1.245818379E1
1.474526567E1,-1.215392890E1,-3.715388361E0,2.760459546E-1,1.271213199E1
1.475525667E1,-1.174132013E1,-3.449110253E0,-3.525297280E-1,1.224251760E1
1.476524767E1,-1.072966879E1,-3.110416426E0,-9.751085063E-1,1.121388957E1
1.477523867E1,-9.000419664E0,-2.497325632E0,-1.622084280E0,9.480260906E0
1.478522967E1,-7.191015152E0,-1.773185396E0,-2.123333334E0,7.704766694E0
1.479522067E1,-5.094681337E0,-1.670730191E0,-2.100647160E0,5.758457761E0
1.480521167E1,-1.746724114E0,-1.956173425E0,-1.436318239E0,2.990095263E0
1.481520267E1,2.204871587E0,-1.364550391E0,-1.059003260E0,2.800882787E0
1.482519367E1,6.112645914E0,-3.592216471E-1,-8.233557916E-1,6.178300334E0
1.483518467E1,9.483009083E0,1.308140401E0,-1.262098110E-1,9.573642018E0
1.484517567E1,9.448638564E0,1.487998855E0,-7.383162260E-2,9.565373094E0
1.485516667E1,9.413278697E0,1.724398129E0,3.720597938E-2,9.569992112E0
1.486515767E1,9.386488509E0,1.983644229E0,1.917933512E-1,9.595717568E0
1.487514867E1,9.376160572E0,2.219518423E0,3.764870131E-1,9.642634058E0
1.488513967E1,9.382436973E0,2.406354213E0,5.745789850E-1,9.703133781E0
1.489513067E1,9.398327951E0,2.544466762E0,7.577171414E-1,9.766115638E0
1.490512167E1,9.414579703E0,2.644051569E0,8.971147625E-1,9.819884652E0
1.491511267E1,9.424124697E0,2.705015224E0,9.726691210E-1,9.852782292E0
1.492510367E1,9.423138272E0,2.714916607E0,9.715876785E-1,9.854455322E0
1.493509467E1,9.410903558E0,2.667149240E0,8.878482413E-1,9.821764880E0
1.494508567E1,9.390202661E0,2.566682381E0,7.225544715E-1,9.761447096E0
1.495507667E1,9.367604342E0,2.424207662E0,4.884250863E-1,9.688516551E0
1.496506767E1,1.357599280E1,3.799414604E0,2.432098188E-2,1.409764956E1
1.497505867E1,8.580724651E0,2.720262716E0,8.142785740E-1,9.038346883E0
1.498504967E1,3.961933578E0,1.372023571E0,1.354874711E0,4.406251450E0
1.499504067E1,-7.899722832E-1,-1.642322078E-2,1.422235805E0,1.626985131E0
1.500503167E1,-5.398063536E0,-1.486911711E0,9.524839479E-1,5.679544176E0
1.501502267E1,-9.134318563E0,-2.807489725E0,2.904920125E-1,9.560447677E0
1.502501367E1,-1.204163429E1,-3.729063244E0,-6.030321211E-1,1.262024235E1
1.503500467E1,-1.431551355E1,-4.500099027E0,-2.111047749E0,1.515392167E1
1.504499567E1,-1.599585130E1,-5.424856063E0,-3.589722049E0,1.726795953E1
1.505498667E1,-1.719560523E1,-6.397741531E0,-4.534514569E0,1.889925285E1
1.506497767E1,-1.805402560E1,-7.313027247E0,-5.148447654E0,2.014782175E1
1.507496867E1,-1.906508988E1,-8.068561769E0,-5.471109878E0,2.141290229E1
1.508495967E1,-1.989411279E1,-8.478496025E0,-5.840083804E0,2.240016066E1
1.509495067E1,-2.019948012E1,-8.620574595E0,-6.198318733E0,2.282000128E1
1.510494167E1,-1.983614583E1,-8.512171894E0,-6.095008957E0,2.242942010E1
1.511493267E1,-1.851275487E1,-8.133807340E0,-5.390814158E0,2.092705885E1
1.512492367E1,-1.640117795E1,-7.692580540E0,-4.492627455E0,1.866435466E1
1.513491467E1,-1.423572478E1,-7.204212903E0,-3.635176549E0,1.636371144E1
1.514490567E1,-1.240723028E1,-6.721635178E0,-2.786296492E0,1.438343460E1
1.515489667E1,-1.109393629E1,-6.224325979E0,-1.899738146E0,1.286182963E1
1.516488767E1,-1.021396308E1,-5.776823362E0,-1.090327964E0,1.178497115E1
1.517487867E1,-9.720507195E0,-5.379668781E0,-3.475982229E-1,1.111530120E1
1.518486967E1,-9.603107969E0,-5.121520057E0,3.969533642E-1,1.089069430E1
1.519486067E1,-9.742480447E0,-5.170077674E0,8.962555142E-1,1.106566321E1
1.520485167E1,-9.778527362E0,-5.542114956E0,1.142047829E0,1.129773910E1
1.521484267E1,-9.806962956E0,-5.704689771E0,1.393673472E0,1.143076260E1
1.522483367E1,-9.910691392E0,-5.460060979E0,1.726348321E0,1.144614993E1
1.523482467E1,-9.927269418E0,-5.229835049E0,2.092775785E0,1.141409494E1
1.524481567E1,-9.633812867E0,-5.265962656E0,2.284272097E0,1.121421473E1
1.525480667E1,-9.287156010E0,-5.163903599E0,2.473236566E0,1.091027343E1
1.526479767E1,-8.256992971E0,-4.699263086E0,2.479611200E0,9.818832832E0
1.527478867E1,-7.056626841E0,-3.966537383E0,2.463251860E0,8.461501693E0
1.528477967E1,-5.655377862E0,-3.608262985E0,2.163530602E0,7.048668328E0
1.529477067E1,-3.294627693E0,-3.726557128E0,1.467308482E0,5.186019074E0
1.530476167E1,2.836706507E-1,-3.184844465E0,1.399119422E0,3.490163099E0
1.531475267E1,4.114674545E0,-1.141279724E0,1.775519897E0,4.624449905E0
1.532474367E1,8.097712478E0,9.985763794E-1,1.352519453E0,8.270393644E0
1.533473467E1,8.031400959E0,1.266561582E0,1.480775789E0,8.264398136E0
1.534472567E1,7.969894683E0,1.592659045E0,1.694932401E0,8.302323767E0
1.535471667E1,7.926057522E0,1.942205012E0,1.954483141E0,8.391337945E0
1.536470767E1,7.906384565E0,2.271360860E0,2.219676737E0,8.520385077E0
1.537469867E1,7.902744089E0,2.566710155E0,2.447350796E0,8.662037351E0
1.538468967E1,7.900159619E0,2.845590182E0,2.601214282E0,8.790689463E0
1.539468067E1,7.890484816E0,3.127726523E0,2.673052004E0,8.898743218E0
1.540467167E1,7.876625746E0,3.397553014E0,2.681029945E0,8.987353403E0
1.541466267E1,7.862832164E0,3.597711684E0,2.646275557E0,9.042700555E0
1.542465367E1,7.845002249E0,3.680995038E0,2.564936402E0,9.037294037E0
1.543464467E1,7.820483120E0,3.643015034E0,2.432059450E0,8.963616900E0
1.544463567E1,7.793335083E0,3.511235750E0,2.255981075E0,8.840492001E0
1.545462667E1,1.568403449E1,4.767086402E0,-6.493179493E-1,1.640535475E1
1.546461767E1,8.968305586E0,2.975106301E0,5.232497871E-1,9.463379572E0
1.547460867E1,2.669273241E0,1.669737918E0,1.275281242E0,3.396967265E0
1.548459967E1,-2.270014247E0,7.867038359E-1,1.473556817E0,2.818374939E0
1.549459067E1,-5.568235053E0,-1.464663202E-1,1.179347144E0,5.693641513E0
1.550458167E1,-8.116606001E0,-8.312479247E-1,1.029629188E0,8.223770568E0
1.551457267E1,-1.055746361E1,-9.798508175E-1,7.343465513E-1,1.062823647E1
1.552456367E1,-1.266767462E1,-1.366197552E0,-7.213300645E-2,1.274133742E1
1.553455467E1,-1.420588527E1,-2.372185862E0,-1.325785983E0,1.446347644E1
1.554454567E1,-1.537138972E1,-3.439793300E0,-2.782845465E0,1.599550026E1
1.555453667E1,-1.629472822E1,-4.293917140E0,-4.218427539E0,1.737098221E1
1.556452767E1,-1.720018827E1,-5.022982779E0,-5.373279528E0,1.870692293E1
1.557451867E1,-1.802164723E1,-5.200545176E0,-6.027250838E0,1.970160378E1
1.558450967E1,-1.836221714E1,-4.772370823E0,-6.302155927E0,1.999159100E1
1.559450067E1,-1.802569116E1,-4.445521701E0,-6.515184027E0,1.967576753E1
1.560449167E1,-1.696107458E1,-4.237221368E0,-6.248411245E0,1.856541782E1
1.561448267E1,-1.544637909E1,-3.802710387E0,-5.270110086E0,1.675784275E1
1.562447367E1,-1.391307659E1,-3.339474083E0,-4.039208041E0,1.486744729E1
1.563446467E1,-1.260992752E1,-3.101297986E0,-2.808241677E0,1.328587756E1
1.564445567E1,-1.139933169E1,-3.045498884E0,-1.852963929E0,1.194375576E1
1.565444667E1,-1.029204680E1,-3.069261383E0,-8.589723516E-1,1.077424829E1
1.566443767E1,-9.457810507E0,-3.106013473E0,1.040669717E-1,9.955316630E0
1.567442892E1,-8.787727194E0,-3.057616653E0,8.348122412E-1,9.341845659E0
1.568441992E1,-8.376055731E0,-3.040457707E0,1.327409170E0,9.009145785E0
1.569441092E1,-8.462216792E0,-3.196372835E0,1.574783814E0,9.181822063E0
1.570440192E1,-8.919470226E0,-3.356303246E0,1.652336605E0,9.672225020E0
1.571439292E1,-9.552653514E0,-3.348960898E0,1.507076565E0,1.023425659E1
1.572438392E1,-9.964362985E0,-3.324333302E0,1.030909143E0,1.055473805E1
1.573437492E1,-9.728109745E0,-3.371822049E0,5.194795024E-1,1.030898453E1
1.574436592E1,-9.039814110E0,-3.067399338E0,2.640251938E-1,9.549706128E0
1.575435692E1,-8.314695050E0,-2.459376326E0,-1.012802070E-1,8.671386473E0
1.576434792E1,-7.128856326E0,-1.950955370E0,-7.277947462E-1,7.426742527E0
1.577433892E1,-4.612666699E0,-1.520567261E0,-1.479661310E0,5.077225272E0
1.578432992E1,-1.077196872E0,-1.402751128E0,-2.390225399E0,2.973422487E0
1.579432092E1,2.203865865E0,-1.650633018E0,-2.945431974E0,4.032019795E0
1.580431192E1,5.499926126E0,-1.725627360E0,-2.629805705E0,6.335838952E0
1.581430292E1,9.804436959E0,-9.157659186E-1,-1.475774081E0,9.957083932E0
1.582429392E1,9.764541991E0,-7.370424101E-1,-1.527927736E0,9.910805970E0
1.583428492E1,9.725125326E0,-5.735375959E-1,-1.496954450E0,9.856362443E0
1.584427592E1,9.694230977E0,-4.622563112E-1,-1.390798250E0,9.804392633E0
1.585426692E1,9.676222138E0,-4.155848591E-1,-1.237552083E0,9.763888610E0
1.586425792E1,9.668640638E0,-4.108943689E-1,-1.066693518E0,9.735978689E0
1.587424892E1,9.663941815E0,-4.054109962E-1,-8.957554311E-1,9.713830721E0
1.588423992E1,9.656479014E0,-3.705382021E-1,-7.311522174E-1,9.691205760E0
1.589423092E1,9.646447531E0,-3.080506164E-1,-5.795198822E-1,9.668748029E0
1.590422192E1,9.636515450E0,-2.364207628E-1,-4.578977966E-1,9.650284721E0
1.591421292E1,9.627516001E0,-1.715763107E-1,-3.901788533E-1,9.636946732E0
1.592420392E1,9.618437029E0,-1.181701818E-1,-3.890971184E-1,9.627029222E0
1.593419492E1,1.214285193E1,2.733815977E0,2.860574841E0,1.277127603E1
1.594418592E1,7.358675290E0,2.156803673E0,3.389847261E0,8.384090205E0
1.595417692E1,3.517883157E0,1.698018708E0,3.996842040E0,5.588695351E0
1.596416792E1,1.048988149E0,1.197496902E0,4.578193855E0,4.847085097E0
1.597415892E1,-4.491047537E-1,8.405789115E-1,4.684471677E0,4.780433336E0
1.598414992E1,-2.250241302E0,4.811314157E-1,3.916997725E0,4.542900454E0
1.599414092E1,-4.494802034E0,-5.742492020E-2,2.498135764E0,5.142686579E0
1.600413192E1,-7.122134367E0,-9.124294974E-1,2.935003684E-1,7.186338984E0
1.601412292E1,-1.012099469E1,-1.940415617E0,-2.123077226E0,1.052174906E1
1.602411392E1,-1.305423405E1,-2.801355411E0,-4.185591915E0,1.399213345E1
1.603410492E1,-1.530201601E1,-3.647418864E0,-5.759003388E0,1.675176046E1
1.604409592E1,-1.679370154E1,-4.668879492E0,-6.939823446E0,1.876134314E1
1.605408692E1,-1.798588449E1,-5.311303135E0,-7.540461132E0,2.021288045E1
1.606407692E1,-1.895164454E1,-5.405885357E0,-7.765352063E0,2.118228316E1
1.607406892E1,-1.922893003E1,-5.379216791E0,-7.697322047E0,2.139945070E1
1.608405992E1,-1.878665249E1,-5.304145558E0,-7.238697442E0,2.081996668E1
1.609404992E1,-1.750136081E1,-4.962883927E0,-6.158959955E0,1.920574484E1
1.610404092E1,-1.566639578E1,-4.514444001E0,-4.716144290E0,1.697227676E1
1.611403192E1,-1.388481232E1,-4.139346871E0,-3.437527796E0,1.489089665E1
1.612402292E1,-1.214567614E1,-3.919443616E0,-2.281341473E0,1.296472160E1
1.613401392E1,-1.059163123E1,-3.677676744E0,-1.310369214E0,1.128826939E1
1.614400592E1,-9.478669279E0,-3.316344836E0,-3.952554059E-1,1.004985280E1
1.615399592E1,-8.670467132E0,-2.948902881E0,1.822588631E-1,9.160035304E0
1.616398692E1,-8.097715986E0,-2.663402929E0,4.505665576E-1,8.536376842E0
1.617397792E1,-7.966285197E0,-2.331544643E0,5.953202283E-1,8.321791059E0
1.618396892E1,-8.218187340E0,-1.999066699E0,6.409951687E-1,8.482083802E0
1.619395992E1,-8.567675419E0,-1.786276727E0,5.106525457E-1,8.766790328E0
1.620395092E1,-9.074845948E0,-1.674466123E0,3.385304340E-1,9.234244346E0
1.621394192E1,-9.385593885E0,-1.586133406E0,1.307191471E-1,9.519573481E0
1.622393292E1,-9.007262076E0,-1.425018495E0,-4.077965140E-2,9.119381053E0
1.623392392E1,-8.200336375E0,-9.626206809E-1,-5.761970557E-2,8.256844147E0
1.624391492E1,-6.902705321E0,4.987528771E-3,-1.617082572E-1,6.904601015E0
1.625390592E1,-4.677738023E0,7.318967141E-1,-5.304279021E-1,4.764269049E0
1.626389692E1,-1.762577670E0,1.040064860E0,-1.033953788E0,2.292918531E0
1.627388792E1,1.446753765E0,8.988857380E-1,-1.367514052E0,2.184304628E0
1.628387892E1,5.075082055E0,5.186130913E-1,-1.132236128E0,5.225645994E0
1.629386992E1,9.507189658E0,6.177064396E-1,-1.348952651E-2,9.527245059E0
1.630386092E1,9.493008991E0,7.125010613E-1,-5.490418553E-2,9.519868273E0
1.631385192E1,9.479803054E0,8.165008814E-1,-3.998441180E-2,9.514984939E0
1.632384292E1,9.470185554E0,9.112828584E-1,3.023131091E-2,9.513977339E0
1.633383392E1,9.467825033E0,9.639909759E-1,1.362564969E-1,9.517749487E0
1.634382492E1,9.475253921E0,9.443761986E-1,2.537832292E-1,9.525580780E0
1.635381592E1,9.491153669E0,8.582156488E-1,3.590190411E-1,9.536636029E0
1.636380692E1,9.510258277E0,7.457965690E-1,4.339136144E-1,9.549319664E0
1.637379792E1,9.527620414E0,6.436147213E-1,4.799172413E-1,9.561386470E0
1.638378892E1,9.540577844E0,5.655125847E-1,4.994493536E-1,9.570364661E0
1.639377992E1,9.548330668E0,5.091356318E-1,4.871326324E-1,9.574295579E0
1.640377092E1,9.552027277E0,4.641012539E-1,4.393714786E-1,9.573383016E0
1.641376192E1,9.554231678E0,4.187600434E-1,3.604633033E-1,9.570195229E0
1.642375292E1,1.152312426E1,3.497849427E0,1.444818921E0,1.212867862E1
1.643374392E1,8.427729914E0,3.373135626E0,2.228793715E0,9.347309607E0
1.644373492E1,5.132076035E0,2.695945608E0,3.103879824E0,6.575743084E0
1.645372592E1,1.949935323E0,1.717560833E0,3.876091189E0,4.666513247E0
1.646371692E1,-7.785018003E-1,6.161300303E-1,4.421548117E0,4.531640875E0
1.647370792E1,-3.098261819E0,-7.888595581E-1,4.341991485E0,5.392069710E0
1.648369892E1,-5.470107665E0,-2.033389855E0,3.564602410E0,6.838358174E0
1.649368992E1,-8.102091458E0,-2.841811711E0,2.242933452E0,8.874149552E0
1.650368092E1,-1.070680735E1,-3.408262774E0,4.766796015E-1,1.124629726E1
1.651367192E1,-1.307193591E1,-4.026752594E0,-1.581389413E0,1.376920613E1
1.652366292E1,-1.479698264E1,-4.691306780E0,-3.387346407E0,1.588814559E1
