"Time (s)","Linear Acceleration x (m/s^2)","Linear Acceleration y (m/s^2)","Linear Acceleration z (m/s^2)","Absolute acceleration (m/s^2)"
4.187500017E-4,-2.833732467E-1,2.873427022E-1,-2.806605041E-2,4.045416278E-1
1.040975000E-2,-4.500875976E-1,1.977235973E-2,-3.539424884E-1,5.729267639E-1
2.040075000E-2,-5.360655682E-1,-2.404389694E-1,-6.321997869E-1,8.630491075E-1
3.039075000E-2,-8.325661795E-1,-2.530718789E-1,-7.349493992E-1,1.139018191E0
4.038175000E-2,-1.183791028E0,-1.311670804E-1,-4.741448700E-1,1.281943587E0
5.037275000E-2,-1.534552778E0,-7.072207332E-3,6.717690647E-2,1.536038730E0
6.036375000E-2,-1.828616562E0,1.041611302E-1,8.295924318E-1,2.010699300E0
7.035375000E-2,-2.018360464E0,1.490996137E-1,1.783215417E0,2.697381486E0
8.034475000E-2,-2.132812986E0,-1.499723107E-2,3.058405443E0,3.728667323E0
9.033575000E-2,-1.518235245E0,-4.546321267E-1,3.746999286E0,4.068382022E0
1.003257500E-1,-5.249495727E-1,-8.421873343E-1,3.699180171E0,3.829985052E0
1.103167500E-1,4.903115442E-1,-9.653467990E-1,3.157088901E0,3.337590476E0
1.203077500E-1,1.502586780E0,-1.346254453E0,2.031465390E0,2.863043785E0
1.302987500E-1,6.924725935E-1,-8.988092856E-1,1.409059104E0,1.809094797E0
1.402887500E-1,-1.462026107E-1,-2.081389502E-1,9.174895316E-1,9.520945681E-1
1.502797500E-1,-7.362963054E-1,-1.785480921E-1,9.147828555E-1,1.187787583E0
1.602707500E-1,-1.092050261E0,-5.946653402E-1,5.410516351E-1,1.356074302E0
1.702607500E-1,-1.219539151E0,-1.067723798E0,8.866834760E-2,1.623321263E0
1.802517500E-1,-1.308429692E0,-1.259250077E0,-3.974030882E-1,1.858932014E0
1.902427500E-1,-1.309871031E0,-1.074116266E0,-6.452180278E-1,1.812675971E0
2.002337500E-1,-1.120109587E0,-7.766301066E-1,-9.231332642E-1,1.646200120E0
2.102237500E-1,-8.474685395E-1,-6.554170337E-1,-1.625251132E0,1.946590778E0
2.202147500E-1,-1.290601532E0,-1.290647725E0,-2.176372257E0,2.840426036E0
2.302056250E-1,-1.938326846E0,-1.805953777E0,-2.611705064E0,3.720159049E0
2.401956250E-1,-2.020931631E0,-1.244801607E0,-2.215729866E0,3.247022411E0
2.501866250E-1,-1.544825312E0,-4.796804291E-1,-1.029025755E0,1.917152201E0
2.601776250E-1,-6.568797147E-1,-7.130182475E-2,-2.717166030E-1,7.144262189E-1
2.701686250E-1,8.339009526E-1,-9.602737547E-1,-1.864837285E0,2.257240480E0
2.801586250E-1,1.417675561E0,-1.331864894E0,-2.166551274E0,2.911633994E0
2.901496250E-1,1.965626619E0,-1.200113385E0,-3.184442176E0,3.929965918E0
3.001406250E-1,1.998111995E0,-1.102553468E0,-4.232227553E0,4.808307993E0
3.101306250E-1,1.185111037E0,-6.672962371E-1,-4.944061739E0,5.127720636E0
3.201216250E-1,-5.297621235E-2,-2.174754918E-2,-4.541638232E0,4.541999258E0
3.301126250E-1,-2.630499769E0,5.362349913E-2,7.125715202E-1,2.725832476E0
3.401036250E-1,-3.390527000E0,-2.286044973E-1,-5.227697307E-1,3.438200335E0
3.500936250E-1,-4.082054975E0,-1.442810549E0,-8.938404679E-2,4.330457783E0
3.600846250E-1,-5.951101964E0,-2.858113748E0,1.769708349E0,6.834932071E0
3.700756250E-1,-4.466809074E0,-3.329468035E0,8.123840761E-1,5.630071810E0
3.800656250E-1,-6.407412533E-1,-3.369782833E0,2.305089355E-2,3.430235711E0
3.900566250E-1,2.021820992E-2,-3.496632621E0,3.397091961E-1,3.513153968E0
4.000476250E-1,-9.330497034E-2,-2.849577983E0,6.461255157E-1,2.923401902E0
4.100386250E-1,1.221751591E-1,-2.096449298E0,7.585522699E-1,2.232807196E0
4.200286250E-1,-1.216228530E-1,-2.461172006E0,6.373371506E-1,2.545261952E0
4.300196250E-1,-1.059044410E0,-3.465020235E0,-1.635203093E-1,3.626937990E0
4.400106250E-1,-3.016948391E0,-4.232038396E0,-2.054929681E0,5.588815847E0
4.500006250E-1,-4.214576271E0,-3.857259647E0,-2.769086382E0,6.348932549E0
4.599916250E-1,-2.891870017E0,-3.515795701E0,-2.905798377E0,5.400684754E0
4.699826250E-1,-1.189433445E0,-3.393492123E0,-1.830142831E0,4.034843676E0
4.799736250E-1,-2.720975126E-1,-3.044337042E0,-4.429774565E-1,3.088406403E0
4.899636250E-1,-2.731336758E-2,-3.066041029E0,1.193217909E-1,3.068483551E0
4.999546250E-1,-2.696423764E-1,-3.366870919E0,1.719519943E-1,3.382025175E0
5.099456250E-1,-4.907225304E-1,-3.367856175E0,-4.836465955E-2,3.403763058E0
5.199366250E-1,-9.389608730E-1,-3.647799518E0,-4.374150002E-1,3.792020666E0
5.299266250E-1,-7.965508394E-1,-3.696250132E0,-5.608380282E-1,3.822472704E0
5.399176250E-1,-9.595117164E-1,-3.603149010E0,-1.310619475E0,3.952349798E0
5.499086250E-1,-9.465765059E-1,-3.368631223E0,-2.207029794E0,4.136987299E0
5.598986250E-1,-6.916077903E-1,-2.966484874E0,-3.112016224E0,4.354652549E0
5.698896250E-1,-6.355417630E-1,-2.657545773E0,-3.745211207E0,4.636061891E0
5.798806250E-1,-9.111298075E-1,-2.761462490E0,-3.639074303E0,4.658185740E0
5.898716250E-1,-1.171746933E0,-3.416207678E0,-3.197718279E0,4.823781501E0
5.998616250E-1,-1.062753664E0,-4.027688441E0,-2.503245061E0,4.859830796E0
6.098526250E-1,-9.776465634E-1,-4.473190141E0,-2.172047072E0,5.067840893E0
6.198436250E-1,-1.081461246E0,-4.575134299E0,-2.177284423E0,5.180924603E0
6.298336250E-1,-1.258279878E0,-4.476067556E0,-2.615227427E0,5.334591222E0
6.398246250E-1,-9.619084901E-1,-4.187620607E0,-3.216352186E0,5.367155268E0
6.498156250E-1,-7.153191268E-1,-3.874500747E0,-3.981803001E0,5.601624106E0
6.598066250E-1,-6.159562218E-1,-3.508064220E0,-4.671549915E0,5.874461273E0
6.697966250E-1,-1.066343855E0,-3.249872812E0,-5.144711283E0,6.177929807E0
6.797876250E-1,-1.341096917E0,-3.373523589E0,-5.202449614E0,6.343869823E0
6.897786250E-1,-8.153240561E-1,-3.492351290E0,-4.452080523E0,5.716842820E0
6.997686250E-1,7.560332894E-2,-3.343577366E0,-3.184267344E0,4.617876567E0
7.097596250E-1,1.057684713E0,-3.197387619E0,-2.060770465E0,3.948260307E0
7.197506250E-1,1.755067506E0,-3.318635483E0,-1.012041348E0,3.888165520E0
7.297416250E-1,2.221760684E0,-3.277305316E0,-3.577443480E-1,3.975541685E0
7.397316250E-1,2.497610099E0,-3.051962688E0,-5.948957205E-1,3.988287023E0
7.497226250E-1,2.317003056E0,-2.751493572E0,-1.470847217E0,3.886207865E0
7.597136250E-1,1.737097843E0,-2.425415405E0,-2.499076581E0,3.891726167E0
7.697046250E-1,1.300277504E0,-2.220048620E0,-3.186619095E0,4.095592596E0
7.796946250E-1,1.311374350E0,-2.180140349E0,-3.094254722E0,4.005886533E0
7.896856250E-1,1.894117802E0,-2.039571531E0,-2.035395011E0,3.448241165E0
7.996766250E-1,3.115986484E0,-1.392253329E0,-2.822793058E-1,3.424532480E0
8.096666250E-1,3.840339559E0,-7.900091938E-1,7.865785593E-1,3.998878378E0
8.196576250E-1,3.873561684E0,-5.299800785E-1,5.879503977E-1,3.953611599E0
8.296486250E-1,3.436477051E0,-2.878411773E-1,-1.862718254E-1,3.453537934E0
8.396396250E-1,3.171373649E0,-4.168125186E-1,-1.006318385E0,3.353210431E0
8.496296250E-1,2.638956013E0,-8.487901564E-1,-1.473918759E0,3.139581194E0
8.596206250E-1,2.237539396E0,-1.072021867E0,-1.258941198E0,2.782219684E0
8.696116250E-1,2.258052013E0,-1.153182901E0,-6.873507249E-1,2.626990810E0
8.796016250E-1,3.048659304E0,-8.313099052E-1,1.609052883E-1,3.164062297E0
8.895926250E-1,4.572230279E0,-4.005613156E-2,9.447368257E-1,4.668985103E0
8.995836250E-1,5.771212959E0,1.043795383E0,1.383873246E0,6.025903499E0
9.095746250E-1,5.641670820E0,1.808806049E0,1.426898959E0,6.093953528E0
9.195646250E-1,5.065526535E0,2.091427563E0,1.125565624E0,5.594687328E0
9.295556250E-1,4.117868879E0,2.250359562E0,7.322837998E-1,4.749442265E0
9.395466250E-1,3.370127526E0,2.275341353E0,6.284850508E-1,4.114599770E0
9.495376250E-1,3.722975416E0,2.222809382E0,7.369995792E-1,4.398249183E0
9.595276250E-1,4.507051367E0,2.263670602E0,7.093660766E-1,5.093222639E0
9.695186250E-1,5.126225896E0,2.539910319E0,6.509529769E-1,5.757870799E0
9.795096250E-1,5.300544843E0,3.002160783E0,8.775033474E-1,6.154572051E0
9.894996250E-1,5.444033761E0,3.602976225E0,1.293064379E0,6.655145134E0
9.994906250E-1,5.365256563E0,4.158419027E0,1.848653947E0,7.035335686E0
1.009481625E0,4.914694099E0,4.386224210E0,2.183062057E0,6.939664318E0
1.019472625E0,4.348808169E0,4.551418285E0,2.137299408E0,6.647976358E0
1.029462625E0,3.901792626E0,4.690639905E0,1.702277089E0,6.334337826E0
1.039453625E0,3.478104549E0,4.833284777E0,1.040028534E0,6.044792167E0
1.049444625E0,3.062418387E0,4.994690441E0,4.946528826E-1,5.879627578E0
1.059434625E0,2.907206971E0,5.049336179E0,8.146867096E-2,5.827030579E0
1.069425625E0,3.047213287E0,5.131125863E0,9.153706469E-2,5.968445398E0
1.079416625E0,3.081858625E0,5.203820202E0,2.530534236E-1,6.053233294E0
1.089407625E0,2.974464569E0,5.160546713E0,2.691151403E-1,5.962474722E0
1.099397625E0,2.565390438E0,4.993620400E0,1.326119274E-1,5.615608491E0
1.109388625E0,1.958192176E0,4.811368243E0,-1.564083044E-1,5.196945692E0
1.119379625E0,1.514413651E0,4.697248428E0,-4.490053511E-1,4.955723691E0
1.129370625E0,1.460281883E0,4.675276930E0,-6.188201880E-1,4.936960196E0
1.139360625E0,1.803991744E0,4.714065605E0,-4.748430276E-1,5.069741279E0
1.149351625E0,2.371851109E0,4.806876120E0,1.201444942E-1,5.361545525E0
1.159342625E0,2.548434682E0,4.739121509E0,5.638353109E-1,5.410332916E0
1.169332625E0,2.557034183E0,4.470398388E0,6.646623588E-1,5.192750871E0
1.179323625E0,2.472554196E0,4.100866053E0,5.028927423E-1,4.814927595E0
1.189314625E0,2.049554336E0,3.667547320E0,2.067698246E-1,4.206462894E0
1.199305625E0,1.752779490E0,3.260588127E0,-3.926986378E-2,3.702055240E0
1.209295625E0,1.786654165E0,2.948402944E0,-1.910642034E-1,3.452784175E0
1.219286625E0,1.993361424E0,2.729641942E0,-2.663138123E-1,3.390480489E0
1.229277458E0,2.273048367E0,2.451335235E0,-3.353892732E-1,3.359803458E0
1.239268458E0,2.557665097E0,2.112901316E0,-3.746187912E-1,3.338613778E0
1.249258458E0,2.946347063E0,1.746616233E0,-3.075957396E-1,3.438930709E0
1.259249458E0,3.698587849E0,1.423029564E0,-7.151437104E-2,3.963543808E0
1.269240458E0,4.489129651E0,1.131531538E0,2.120861131E-1,4.634396310E0
1.279230458E0,4.729560726E0,8.352253470E-1,4.459074962E-1,4.823399169E0
1.289221458E0,4.555472159E0,6.188026464E-1,4.627656037E-1,4.620540587E0
1.299212458E0,4.229857677E0,5.431320745E-1,2.190367714E-1,4.270206731E0
1.309203458E0,3.790154661E0,5.210348618E-1,-9.657787621E-2,3.827019332E0
1.319193458E0,3.399582875E0,5.167225403E-1,-3.190539068E-1,3.453398515E0
1.329184458E0,3.087006513E0,4.669375920E-1,-5.293034095E-1,3.166670496E0
1.339175458E0,2.874796439E0,3.300609979E-1,-6.845808989E-1,2.973557774E0
1.349166458E0,2.879422172E0,3.301425666E-2,-7.869317311E-1,2.985200753E0
1.359156458E0,3.194745555E0,-3.292204607E-1,-7.610145324E-1,3.300595157E0
1.369147458E0,3.906784394E0,-6.309645626E-1,-4.903305477E-1,3.987669072E0
1.379138458E0,4.448597336E0,-8.075566149E-1,-1.104550731E-1,4.522650359E0
1.389129458E0,4.645860758E0,-9.475474361E-1,2.157020313E-1,4.746408715E0
1.399119458E0,4.820178536E0,-9.688830489E-1,4.491877842E-1,4.937066451E0
1.409110458E0,4.511709259E0,-6.117231300E-1,6.553261095E-1,4.599910644E0
1.419101458E0,3.664481624E0,-2.700068772E-2,7.628259999E-1,3.743134798E0
1.429091458E0,2.841712309E0,4.575077873E-1,7.244647568E-1,2.968078739E0
1.439082458E0,2.247556261E0,6.510152498E-1,5.863312306E-1,2.412284045E0
1.449073458E0,1.899311299E0,6.547165373E-1,3.138376788E-1,2.033354678E0
1.459064458E0,1.668112392E0,4.623497204E-1,7.317147195E-2,1.732547339E0
1.469054458E0,1.395855507E0,1.134071861E-1,-8.180664003E-2,1.402842155E0
1.479045458E0,1.258347121E0,-4.316606091E-1,-2.314871381E-1,1.350316501E0
1.489036458E0,1.320263287E0,-1.088614730E0,-3.364867590E-1,1.743961157E0
1.499027458E0,1.430091539E0,-1.920287601E0,-3.687043691E-1,2.422521247E0
1.509017458E0,1.597836462E0,-2.726828847E0,-3.253607136E-1,3.177190034E0
1.519008458E0,1.747345088E0,-3.383968470E0,-3.138224030E-1,3.821379589E0
1.528999458E0,1.720466607E0,-3.685624571E0,-3.098462963E-1,4.079195822E0
1.538989458E0,1.586026840E0,-4.564135979E0,-4.429838884E-1,4.852118413E0
1.548980458E0,1.356062281E0,-5.010270347E0,-4.579679632E-1,5.210705184E0
1.558971458E0,6.720824754E-1,-5.088609588E0,-4.752032526E-1,5.154751257E0
1.568962458E0,-1.165572274E-1,-5.203024980E0,-4.777222331E-1,5.226210201E0
1.578952458E0,-6.716532898E-1,-5.415493501E0,-5.806613318E-1,5.487791504E0
1.588943458E0,-1.196244428E0,-5.546735426E0,-6.158077025E-1,5.707582128E0
1.598934458E0,-1.603730455E0,-5.600278965E0,-5.541149727E-1,5.851676619E0
1.608925458E0,-1.929133269E0,-5.594266273E0,-3.709556202E-1,5.929163379E0
1.618915458E0,-2.183519894E0,-5.494116917E0,-1.319834248E-1,5.913586006E0
1.628906458E0,-2.294303581E0,-5.301778606E0,9.563355088E-2,5.777701193E0
1.638897458E0,-2.356901532E0,-5.108739797E0,2.525483338E-1,5.631872496E0
1.648888458E0,-2.383089457E0,-4.940212517E0,3.452020705E-1,5.495814730E0
1.658878458E0,-2.502528192E0,-4.760229665E0,3.883427910E-1,5.391961048E0
1.668869458E0,-2.616919026E0,-4.636960711E0,3.833808804E-1,5.338225428E0
1.678860458E0,-2.796955381E0,-4.583199656E0,3.236632669E-1,5.378980982E0
1.688851458E0,-3.094535973E0,-4.579143443E0,1.968512293E-1,5.530231276E0
1.698841458E0,-3.404803269E0,-4.594612836E0,4.450785438E-2,5.718840211E0
1.708832458E0,-3.641827172E0,-4.585700218E0,-5.776113510E-2,5.856183739E0
1.718823458E0,-3.760328014E0,-4.559926568E0,-5.722786903E-2,5.910691339E0
1.728813458E0,-3.842824041E0,-4.524235164E0,-3.088263592E-2,5.936072284E0
1.738804458E0,-3.855303168E0,-4.550156456E0,4.491794519E-3,5.963833202E0
1.748795458E0,-3.929036558E0,-4.622560188E0,4.050951004E-2,6.066879922E0
1.758786458E0,-4.148346906E0,-4.676774695E0,4.850850105E-2,6.251668311E0
1.768776458E0,-4.331767629E0,-4.680663970E0,1.123372553E-2,6.377534962E0
1.778767458E0,-4.418598197E0,-4.717345308E0,-9.789057612E-2,6.464281812E0
1.788758458E0,-4.470903295E0,-4.767193991E0,-2.437271146E-1,6.540223064E0
1.798749458E0,-4.551000794E0,-4.810698737E0,-3.886703082E-1,6.633663782E0
1.808739458E0,-4.538538038E0,-4.837948224E0,-5.853694733E-1,6.659333898E0
1.818730458E0,-4.432039776E0,-4.880027127E0,-8.087892079E-1,6.641670070E0
1.828721458E0,-4.325183664E0,-4.926350523E0,-1.075534508E0,6.643261073E0
1.838712458E0,-4.113220342E0,-4.939614347E0,-1.283166797E0,6.554760752E0
1.848702458E0,-3.687266470E0,-4.902785075E0,-1.350755932E0,6.281542573E0
1.858693458E0,-3.157123985E0,-4.857560662E0,-1.256967763E0,5.928178084E0
1.868684458E0,-2.650311306E0,-4.815706877E0,-1.168748481E0,5.619711359E0
1.878675458E0,-1.949737102E0,-4.811797137E0,-1.071472959E0,5.301218799E0
1.888665458E0,-9.241483408E-1,-4.716794793E0,-9.670662459E-1,4.902797201E0
1.898656458E0,-1.588612479E-1,-4.523629392E0,-1.013272113E0,4.638445877E0
1.908647458E0,9.637380838E-2,-4.395578878E0,-1.235735353E0,4.566995013E0
1.918637458E0,-2.057576716E-2,-4.368533167E0,-1.598636945E0,4.651896976E0
1.928628458E0,-1.684161830E-1,-4.334974827E0,-1.918080862E0,4.743353766E0
1.938619458E0,-8.560148299E-2,-4.189965633E0,-1.999816750E0,4.643533854E0
1.948610458E0,2.072019339E-1,-3.867825273E0,-1.795503341E0,4.269290015E0
1.958600458E0,8.459353995E-1,-3.484463104E0,-1.529253885E0,3.898167167E0
1.968591458E0,1.856675157E0,-3.374616433E0,-1.388249449E0,4.094205081E0
1.978582458E0,2.395898368E0,-3.433605776E0,-1.251900566E0,4.370038059E0
1.988573458E0,2.678687843E0,-3.518086640E0,-1.225480433E0,4.588475178E0
1.998563458E0,2.799238134E0,-3.690373972E0,-1.190586589E0,4.782477456E0
2.008554458E0,2.984667960E0,-3.637120163E0,-1.039965822E0,4.818549038E0
2.018545458E0,3.176776477E0,-3.281184067E0,-8.149380668E-1,4.639202702E0
2.028536458E0,3.381835406E0,-2.537146340E0,-4.646875834E-1,4.253217231E0
2.038526458E0,3.600009055E0,-1.392682661E0,-4.731106438E-2,3.860293840E0
2.048517458E0,3.887242999E0,-5.836018234E-2,3.595229980E-1,3.904269564E0
2.058508458E0,4.063607887E0,1.214702919E0,7.274485910E-1,4.303207373E0
2.068499458E0,4.025488134E0,2.238111253E0,9.522962523E-1,4.703250456E0
2.078489458E0,3.799467521E0,2.896589597E0,9.885326171E-1,4.878870922E0
2.088480458E0,3.331794350E0,3.127845806E0,8.911367154E-1,4.656006618E0
2.098471458E0,2.747962146E0,3.077192254E0,7.010542595E-1,4.184720445E0
2.108462458E0,2.148299775E0,2.717455760E0,4.830525184E-1,3.497584519E0
2.118452458E0,1.610915514E0,2.213450621E0,2.687660980E-1,2.750754017E0
2.128443458E0,1.241202500E0,1.721134652E0,1.249503207E-1,2.125676532E0
2.138434458E0,1.122271303E0,1.312608405E0,5.770280913E-2,1.727936144E0
2.148425458E0,1.109172955E0,9.216989422E-1,6.774832562E-2,1.443739388E0
2.158415458E0,1.203761609E0,5.687072110E-1,1.667602515E-1,1.341744716E0
2.168406458E0,1.469008268E0,2.044420481E-1,3.919971912E-1,1.534093752E0
2.178397458E0,1.638116761E0,-9.593234360E-2,7.293195538E-1,1.795699459E0
2.188388458E0,1.599530400E0,-2.019040641E-1,1.068808602E0,1.934325355E0
2.198378458E0,1.373029146E0,-1.903505507E-1,1.447727326E0,2.004334498E0
2.208369458E0,1.084983609E0,-5.299828559E-2,1.841256780E0,2.137808406E0
2.218360458E0,7.708068645E-1,2.367157549E-1,2.212810644E0,2.355145116E0
2.228351708E0,4.300937015E-1,6.086021787E-1,2.539603633E0,2.646689218E0
2.238341708E0,1.427925146E-1,9.422638920E-1,2.798313689E0,2.956147907E0
2.248332708E0,-1.199965596E-2,1.217696693E0,2.974675946E0,3.214284712E0
2.258323708E0,-8.727846444E-2,1.484951870E0,3.216335814E0,3.543658513E0
2.268314708E0,-2.235735530E-1,1.664098571E0,3.535918601E0,3.914323638E0
2.278304708E0,-4.815211326E-1,1.718285596E0,3.776841720E0,4.177188213E0
2.288295708E0,-7.729902148E-1,1.632458410E0,3.988707686E0,4.378609749E0
2.298286708E0,-9.751582807E-1,1.542520925E0,4.249476547E0,4.624754631E0
2.308277708E0,-1.105558206E0,1.568248089E0,4.496253606E0,4.888553723E0
2.318267708E0,-1.082990878E0,1.639496119E0,4.596546510E0,4.998905539E0
2.328258708E0,-9.553566849E-1,1.637673834E0,4.517541271E0,4.899271489E0
2.338249708E0,-6.581298494E-1,1.668370839E0,4.370898950E0,4.724547998E0
2.348240708E0,-3.286848557E-1,1.716327948E0,4.204372587E0,4.553082935E0
2.358230708E0,1.396630847E-1,1.794986447E0,3.895253685E0,4.291210015E0
2.368221708E0,5.144000262E-1,1.903111697E0,3.522473806E0,4.036615319E0
2.378212708E0,6.897328806E-1,1.947763959E0,3.170811732E0,3.784648323E0
2.388203708E0,8.529660916E-1,1.918167985E0,2.869691820E0,3.555566160E0
2.398193708E0,9.946552366E-1,1.835722537E0,2.716005943E0,3.425770651E0
2.408184708E0,1.042811151E0,1.700111865E0,2.694388787E0,3.352247959E0
2.418175708E0,1.176389038E0,1.596516453E0,2.634865301E0,3.297767594E0
2.428166708E0,1.356185072E0,1.532819809E0,2.478808085E0,3.214539475E0
2.438156708E0,1.622742092E0,1.548713418E0,2.228045418E0,3.161643802E0
2.448147708E0,2.023055339E0,1.571735953E0,1.954145464E0,3.222078725E0
2.458138708E0,2.412659996E0,1.524578743E0,1.635539893E0,3.289416262E0
2.468129708E0,2.668217819E0,1.376900588E0,1.269508871E0,3.259891767E0
2.478119708E0,2.932295619E0,1.179494787E0,8.613474905E-1,3.275894542E0
2.488110708E0,3.136277491E0,9.392049211E-1,5.366342099E-1,3.317577228E0
2.498101708E0,3.413977550E0,8.604288930E-1,3.161905253E-1,3.534905521E0
2.508092708E0,3.715705572E0,9.750907454E-1,1.494606793E-1,3.844425621E0
2.518082708E0,3.859121400E0,1.292809148E0,2.127684832E-2,4.069966361E0
2.528073708E0,3.852073751E0,1.688066601E0,-1.434346850E-1,4.208160470E0
2.538064708E0,3.862274219E0,2.123905484E0,-2.806232281E-1,4.416660055E0
2.548055708E0,4.026910177E0,2.332475958E0,-5.290339990E-1,4.683623239E0
2.558045708E0,4.289479980E0,2.095528069E0,-7.998874068E-1,4.840526444E0
2.568036708E0,4.418858398E0,1.882252048E0,-8.864447634E-1,4.884154648E0
2.578027708E0,4.257968166E0,1.861293580E0,-9.068094461E-1,4.734660502E0
2.588018708E0,3.834235650E0,1.950301359E0,-9.193296504E-1,4.398886838E0
2.598008708E0,3.432838914E0,2.071859417E0,-9.340728930E-1,4.116974207E0
2.607999708E0,3.104016649E0,2.187383442E0,-8.013550580E-1,3.880945195E0
2.617990708E0,2.780709477E0,2.299281900E0,-6.174987173E-1,3.660648456E0
2.627981708E0,2.512313508E0,2.454931565E0,-4.718059107E-1,3.544151375E0
2.637971708E0,2.347226145E0,2.706919370E0,-3.210460532E-1,3.597214703E0
2.647962708E0,2.462053766E0,3.111100258E0,-1.802777716E-1,3.971542979E0
2.657953708E0,2.706208348E0,3.574219618E0,-9.568610273E-2,4.484168299E0
2.667944708E0,2.832490080E0,3.863178491E0,-1.125914995E-1,4.791641154E0
2.677934708E0,2.772256742E0,3.911499004E0,-1.185919853E-1,4.795758121E0
2.687925708E0,2.529747566E0,3.670238501E0,-3.845121704E-2,4.457774321E0
2.697916708E0,2.225384789E0,3.247057085E0,1.166590420E-1,3.938188226E0
2.707907708E0,1.883720284E0,2.750958259E0,2.793695120E-1,3.345776558E0
2.717897708E0,1.531990381E0,2.241507316E0,3.971908343E-1,2.743922400E0
2.727888708E0,1.325239853E0,1.782806112E0,4.611044097E-1,2.268760802E0
2.737879708E0,1.264108967E0,1.306251312E0,5.184549972E-1,1.890253834E0
2.747870708E0,1.319766274E0,8.237960869E-1,5.237303551E-1,1.641559166E0
2.757860708E0,1.525229831E0,3.822301483E-1,5.422754574E-1,1.663276464E0
2.767851708E0,1.742034062E0,-3.081307232E-2,4.588545473E-1,1.801715742E0
2.777842708E0,2.145727585E0,-4.232831571E-1,3.413733868E-1,2.213560771E0
2.787833708E0,2.432168646E0,-7.612349725E-1,3.046233440E-1,2.566655098E0
2.797823708E0,2.589970379E0,-8.919246277E-1,2.784549344E-1,2.753363989E0
2.807814708E0,2.461226969E0,-8.738310036E-1,3.483652680E-1,2.634877071E0
2.817805708E0,2.072158502E0,-8.323315600E-1,4.772276683E-1,2.283497960E0
2.827796708E0,1.672612994E0,-8.555882755E-1,6.162124760E-1,1.977216058E0
2.837786708E0,1.284944351E0,-9.547186075E-1,7.646183907E-1,1.774038017E0
2.847777708E0,9.082597017E-1,-1.144163717E0,9.060331551E-1,1.718994583E0
2.857768708E0,5.057391304E-1,-1.337369755E0,9.949682088E-1,1.741921832E0
2.867759708E0,8.870226145E-2,-1.492320824E0,1.083772066E0,1.846469990E0
2.877750708E0,-2.973016798E-1,-1.605171209E0,1.133858292E0,1.987611009E0
2.887740708E0,-5.562374389E-1,-1.663453185E0,1.158540412E0,2.102068618E0
2.897731708E0,-8.676420182E-1,-1.751162443E0,1.155848500E0,2.270541418E0
2.907722708E0,-1.195751508E0,-1.824832682E0,1.154808865E0,2.468485265E0
2.917713708E0,-1.467254103E0,-1.942778916E0,1.142882884E0,2.689499174E0
2.927703708E0,-1.627870100E0,-2.037031354E0,1.236266134E0,2.885794822E0
2.937694708E0,-1.743403480E0,-2.153986777E0,1.339381928E0,3.077833439E0
2.947685708E0,-1.820107255E0,-2.226787536E0,1.393663970E0,3.195883667E0
2.957676708E0,-1.872438666E0,-2.279218203E0,1.434954522E0,3.280237286E0
2.967666708E0,-1.973197301E0,-2.410217029E0,1.478664944E0,3.448057966E0
2.977657708E0,-2.069953517E0,-2.594294395E0,1.574755309E0,3.673543964E0
2.987648708E0,-2.145980769E0,-2.796353410E0,1.697404312E0,3.912289260E0
2.997639708E0,-2.219632298E0,-3.046288843E0,1.737399559E0,4.150325346E0
3.007629708E0,-2.331305346E0,-3.330397157E0,1.830884551E0,4.458549997E0
3.017620708E0,-2.495785183E0,-3.652064770E0,1.937576648E0,4.829153552E0
3.027611708E0,-2.560132037E0,-3.968509356E0,1.943017044E0,5.106726720E0
3.037602708E0,-2.515483868E0,-4.237590327E0,1.894074825E0,5.279427082E0
3.047592708E0,-2.475451491E0,-4.496586897E0,1.823850642E0,5.447346599E0
3.057583708E0,-2.498776034E0,-4.805081025E0,1.783464216E0,5.702054887E0
3.067574708E0,-2.469282094E0,-5.091299307E0,1.697934362E0,5.907763011E0
3.077565708E0,-2.453892222E0,-5.285770683E0,1.587833630E0,6.040047549E0
3.087556708E0,-2.572206538E0,-5.507783614E0,1.462339226E0,6.252228629E0
3.097546708E0,-2.680210458E0,-5.739346218E0,1.305702551E0,6.467494280E0
3.107537708E0,-2.722979917E0,-5.902528558E0,1.272204437E0,6.623667197E0
3.117528708E0,-2.724434119E0,-5.952438052E0,1.304810558E0,6.675072331E0
3.127519708E0,-2.650431173E0,-5.972519145E0,1.365452617E0,6.675345024E0
3.137509708E0,-2.469668010E0,-5.902256078E0,1.428734985E0,6.555697564E0
3.147500708E0,-2.068496391E0,-5.614430396E0,1.460832398E0,6.159101987E0
3.157491708E0,-1.699518372E0,-5.233105981E0,1.438952702E0,5.687208963E0
3.167482708E0,-1.432062635E0,-4.878093452E0,1.333240013E0,5.255866061E0
3.177472708E0,-1.041030089E0,-5.004923068E0,1.041054647E0,5.216971664E0
3.187463708E0,-8.665749013E-1,-5.410100614E0,8.042950380E-1,5.537782158E0
3.197454708E0,-5.692434007E-1,-5.584086855E0,6.663425562E-1,5.652439868E0
3.207445708E0,1.422457999E-1,-5.454185697E0,5.262584719E-1,5.481361461E0
3.217435708E0,6.106276542E-1,-5.041396245E0,4.486299598E-1,5.098020309E0
3.227426708E0,5.259172869E-1,-4.717870680E0,4.049888273E-1,4.764337173E0
3.237417958E0,3.749585509E-1,-4.422966067E0,4.512954131E-1,4.461713829E0
3.247408958E0,2.260095030E-1,-3.900264164E0,4.612143373E-1,3.933936897E0
3.257398958E0,1.592752308E-1,-3.060049095E0,3.657842696E-1,3.085946726E0
3.267389958E0,2.367075688E-1,-1.853744532E0,3.010143694E-1,1.892883756E0
3.277380958E0,3.793135571E-1,-6.115512219E-1,1.760947466E-1,7.408664059E-1
3.287371958E0,6.005318516E-1,3.308540265E-1,-4.111615866E-3,6.856528255E-1
3.297362958E0,7.392383319E-1,9.088219115E-1,-1.953259465E-1,1.187679588E0
3.307352958E0,7.533084869E-1,1.170661544E0,-3.410271585E-1,1.433255612E0
3.317343958E0,6.720772129E-1,1.245581480E0,-3.848578870E-1,1.466723081E0
3.327334958E0,4.538959622E-1,1.175151329E0,-2.365875547E-1,1.281786199E0
3.337325958E0,3.099533004E-1,9.564765729E-1,5.548305988E-2,1.006974107E0
3.347315958E0,3.463440317E-1,6.037982525E-1,3.602411091E-1,7.837730378E-1
3.357306958E0,4.309251755E-1,2.712026328E-1,5.071569340E-1,7.186484054E-1
3.367297958E0,6.276009518E-1,5.994711667E-2,5.503504622E-1,8.368764800E-1
3.377288958E0,7.913662595E-1,-4.487211764E-2,5.036407109E-1,9.391102327E-1
3.387278958E0,8.808269048E-1,-1.510669094E-1,3.991449738E-1,9.787716574E-1
3.397269958E0,9.377600741E-1,-2.168100786E-1,3.400813714E-1,1.020811396E0
3.407260958E0,9.920333451E-1,-2.427635300E-1,3.114263602E-1,1.067731552E0
3.417251958E0,1.047520498E0,-2.130172822E-1,4.009902088E-1,1.141695539E0
3.427241958E0,9.941067678E-1,-8.116929352E-2,5.609014705E-1,1.144310788E0
3.437232958E0,9.331144613E-1,1.006858376E-1,7.794784315E-1,1.220011009E0
3.447223958E0,1.030082932E0,3.850631243E-1,1.024740915E0,1.503142841E0
3.457214958E0,1.126425165E0,8.163888341E-1,1.334605923E0,1.927821919E0
3.467205958E0,1.067900968E0,1.253558544E0,1.571173743E0,2.276051061E0
3.477195958E0,9.680866581E-1,1.552320273E0,1.587614067E0,2.422273402E0
3.487186958E0,9.459941232E-1,1.770553564E0,1.514687301E0,2.514764884E0
3.497177958E0,7.680247593E-1,1.953374363E0,1.528489069E0,2.596500003E0
3.507168958E0,5.460749781E-1,2.103736683E0,1.606006630E0,2.702436532E0
3.517158958E0,5.121552801E-1,2.217660617E0,1.733816531E0,2.861195800E0
3.527149958E0,5.701345164E-1,2.309367762E0,1.867200730E0,3.024015773E0
3.537140958E0,7.082808334E-1,2.384205983E0,1.889482130E0,3.123498460E0
3.547131958E0,8.178173089E-1,2.406642627E0,1.844740405E0,3.140672069E0
3.557121958E0,9.270228320E-1,2.439440536E0,1.826266712E0,3.185198826E0
3.567112958E0,1.064690262E0,2.551397467E0,1.843897383E0,3.323123823E0
3.577103958E0,1.274199507E0,2.652492609E0,1.764298067E0,3.431041984E0
3.587094958E0,1.536473442E0,2.695567001E0,1.585247991E0,3.484227789E0
3.597085958E0,1.729740876E0,2.744580701E0,1.412827635E0,3.538475469E0
3.607075958E0,1.846758864E0,2.795735359E0,1.285518547E0,3.588761964E0
3.617066958E0,1.934080598E0,2.849215163E0,1.135484841E0,3.626019943E0
3.627057958E0,1.989161369E0,2.919163942E0,9.448657568E-1,3.656644961E0
3.637048958E0,1.933339756E0,2.922011536E0,7.481886649E-1,3.582700142E0
3.647038958E0,1.827448434E0,2.910800085E0,5.506942785E-1,3.480745481E0
3.657029958E0,1.783692550E0,2.814648763E0,3.726817182E-1,3.353013337E0
3.667020958E0,1.899534078E0,2.640575691E0,2.335518996E-1,3.261198581E0
3.677011958E0,2.057755056E0,2.525312745E0,2.049613539E-1,3.263980620E0
3.687001958E0,2.061099079E0,2.392846121E0,2.291267268E-1,3.166439803E0
3.696992958E0,1.958202116E0,2.104515240E0,1.975063001E-1,2.881414351E0
3.706983958E0,1.889324255E0,1.758385216E0,1.717129163E-1,2.586687077E0
3.716974958E0,1.924380652E0,1.444854004E0,1.912906368E-1,2.414008305E0
3.726964958E0,2.087567085E0,1.203199691E0,2.146559644E-1,2.419029354E0
3.736955958E0,2.288310184E0,1.098886241E0,2.481465498E-1,2.550586439E0
3.746946958E0,2.496373998E0,1.158128183E0,2.726860714E-1,2.765411673E0
3.756937958E0,2.647585334E0,1.293140393E0,2.496199751E-1,2.957064474E0
3.766928958E0,2.781658480E0,1.542781710E0,1.553499949E-1,3.184640157E0
3.776918958E0,2.970129443E0,1.894709833E0,3.304846287E-3,3.523010812E0
3.786909958E0,3.139105205E0,2.213038685E0,-1.553206126E-1,3.843910275E0
3.796900958E0,3.398517512E0,1.939051901E0,-4.024615145E-1,3.933423296E0
3.806891958E0,3.454582955E0,1.455871620E0,-3.103072031E-1,3.761648060E0
3.816881958E0,3.359449341E0,1.397109442E0,1.077338520E-1,3.639975446E0
3.826872958E0,3.222177767E0,1.563279417E0,5.621877117E-1,3.625234768E0
3.836863958E0,2.991881670E0,1.995218792E0,8.637027490E-1,3.698409982E0
3.846854958E0,2.890323136E0,2.412703850E0,9.199705783E-1,3.875752000E0
3.856844958E0,2.855604708E0,2.334497049E0,7.073062487E-1,3.755614044E0
3.866835958E0,2.843117394E0,2.074822494E0,5.775775833E-1,3.566763346E0
3.876826958E0,2.876521368E0,1.909914640E0,7.671560092E-1,3.537043604E0
3.886817958E0,2.904591511E0,1.924051453E0,1.105479342E0,3.655230556E0
3.896808958E0,3.153141446E0,2.210719387E0,1.433497542E0,4.109074883E0
3.906798958E0,3.459439652E0,2.579381364E0,1.663970225E0,4.624903008E0
3.916789958E0,3.487128557E0,2.827874873E0,1.738982985E0,4.814665481E0
3.926780958E0,3.473096994E0,2.880377899E0,1.673672948E0,4.812500463E0
3.936771958E0,3.582128270E0,2.814397918E0,1.568066533E0,4.817811872E0
3.946761958E0,3.478998004E0,2.592560403E0,1.499361749E0,4.590520908E0
3.956752958E0,3.124042193E0,2.243482213E0,1.478518764E0,4.120542416E0
3.966743958E0,2.655001942E0,1.828206818E0,1.584121671E0,3.591770726E0
3.976734958E0,2.273405632E0,1.427436903E0,1.888988625E0,3.282411812E0
3.986724958E0,1.866308445E0,1.013825333E0,2.316083436E0,3.142481742E0
3.996715958E0,1.531784559E0,6.280687290E-1,2.663385680E0,3.135993869E0
4.006706958E0,1.265850268E0,2.849932909E-1,2.956327676E0,3.228540135E0
4.016697958E0,1.044700386E0,7.947155446E-2,3.171624495E0,3.340197084E0
4.026688958E0,9.779900873E-1,-8.178617477E-2,3.287581798E0,3.430939764E0
4.036678958E0,9.346651429E-1,-2.946841738E-1,3.303373958E0,3.445680948E0
4.046669958E0,8.262723827E-1,-4.632360122E-1,3.289831806E0,3.423493387E0
4.056660958E0,7.095847625E-1,-6.774503656E-1,3.262366557E0,3.406682417E0
4.066651958E0,5.523075253E-1,-9.529471935E-1,3.337209456E0,3.514273596E0
4.076641958E0,3.649130344E-1,-1.264781689E0,3.490838031E0,3.730788710E0
4.086632958E0,1.504476893E-1,-1.551128318E0,3.731304774E0,4.043670225E0
4.096623958E0,-1.422171485E-1,-1.844161677E0,3.986546263E0,4.394736524E0
4.106614958E0,-4.637432581E-1,-2.122955896E0,4.213749182E0,4.741063353E0
4.116604958E0,-6.580146593E-1,-2.340045325E0,4.327437766E0,4.963417475E0
4.126595958E0,-7.095315528E-1,-2.522249097E0,4.376019942E0,5.100463318E0
4.136586958E0,-6.753411287E-1,-2.605634485E0,4.297393602E0,5.070799590E0
4.146577958E0,-6.571323144E-1,-2.618063326E0,4.120077957E0,4.925557921E0
4.156568958E0,-6.537801057E-1,-2.640287424E0,3.913437356E0,4.765872223E0
4.166558958E0,-6.730262160E-1,-2.736997155E0,3.725572456E0,4.671617262E0
4.176549958E0,-5.982754111E-1,-2.962558176E0,3.619151670E0,4.715182205E0
4.186540958E0,-3.906255805E-1,-3.194588265E0,3.673844186E0,4.884169697E0
4.196531958E0,-1.744879317E-1,-3.402030519E0,3.822890298E0,5.120424584E0
4.206521958E0,-9.452316463E-2,-3.520876932E0,4.025919074E0,5.349161933E0
4.216512958E0,-1.805392152E-1,-3.585916388E0,4.048374721E0,5.411167031E0
4.226503958E0,-3.278586441E-1,-3.581336557E0,4.005910779E0,5.383380350E0
4.236495708E0,-2.776252145E-1,-3.472112030E0,3.907253048E0,5.234430637E0
4.246485708E0,-2.237016070E-1,-3.340849640E0,3.836370176E0,5.092058018E0
4.256476708E0,-1.022192699E-1,-3.249810539E0,3.743119658E0,4.958090569E0
4.266467708E0,1.043383008E-1,-3.194197086E0,3.680185199E0,4.874171171E0
4.276458708E0,-1.629887974E-1,-3.358187219E0,3.734737675E0,5.025161912E0
4.286448708E0,-5.241970360E-1,-3.661069774E0,3.786417121E0,5.292935767E0
4.296439708E0,-9.727632612E-1,-3.992614795E0,3.818415716E0,5.609593554E0
4.306430708E0,-1.511840876E0,-4.204024093E0,3.788580590E0,5.857714939E0
4.316421708E0,-2.000850538E0,-4.303163342E0,3.749657138E0,6.048185370E0
4.326412708E0,-2.384697441E0,-4.351948709E0,3.649846628E0,6.160163948E0
4.336402708E0,-2.537280534E0,-4.413667824E0,3.476147486E0,6.164564665E0
4.346393708E0,-2.411198777E0,-4.494201233E0,3.284535398E0,6.066291870E0
4.356384708E0,-2.158519539E0,-4.466361470E0,3.134357851E0,5.867860812E0
4.366375708E0,-1.835545074E0,-4.320566995E0,2.992913412E0,5.567230511E0
4.376365708E0,-1.368479428E0,-4.050515386E0,2.845766183E0,5.135931854E0
4.386356708E0,-1.066557278E0,-3.743939730E0,2.718517030E0,4.748153743E0
4.396347708E0,-1.034212820E0,-3.501799513E0,2.665250064E0,4.520592206E0
4.406338708E0,-1.317073047E0,-3.349259106E0,2.667412365E0,4.479654751E0
4.416328708E0,-1.774239941E0,-3.277939155E0,2.717609249E0,4.612831289E0
4.426319708E0,-2.123942029E0,-3.319734467E0,2.709845609E0,4.782784743E0
4.436310708E0,-2.229259738E0,-3.548974849E0,2.661471886E0,4.964700803E0
4.446301708E0,-2.170856579E0,-3.793781689E0,2.533712271E0,5.052236699E0
4.456291708E0,-1.933528621E0,-3.886261544E0,2.366002431E0,4.943635223E0
4.466282708E0,-1.530166635E0,-3.817548282E0,2.118070547E0,4.626154738E0
4.476273708E0,-1.133019655E0,-3.594203647E0,1.816451283E0,4.183482838E0
4.486264708E0,-9.761797893E-1,-3.211524140E0,1.617992106E0,3.726219631E0
4.496255708E0,-9.673031312E-1,-2.710189717E0,1.503976956E0,3.246960169E0
4.506245708E0,-1.157389095E0,-2.191794143E0,1.477164841E0,2.885398941E0
4.516236708E0,-1.455243922E0,-1.568026187E0,1.584091412E0,2.661914085E0
4.526227708E0,-1.668725181E0,-7.726671562E-1,1.732520642E0,2.526516582E0
4.536218708E0,-1.609532062E0,8.922164038E-2,1.806077738E0,2.420840919E0
4.546208708E0,-1.317501647E0,8.834895806E-1,1.782813714E0,2.386375739E0
4.556199708E0,-8.500021380E-1,1.447698236E0,1.707824050E0,2.394785336E0
4.566190708E0,-3.669127822E-1,1.754609669E0,1.591155725E0,2.396884775E0
4.576181708E0,9.618260443E-2,1.872324353E0,1.404599725E0,2.342594707E0
4.586171708E0,3.972756189E-1,1.888043276E0,1.221496360E0,2.283547391E0
4.596162708E0,3.520514989E-1,1.710244212E0,1.053158383E0,2.039121895E0
4.606153708E0,2.716990614E-1,1.295006239E0,9.138613343E-1,1.608105742E0
4.616144708E0,3.529665881E-1,7.178381073E-1,7.830389473E-1,1.119386865E0
4.626134708E0,6.630526203E-1,1.417075637E-1,6.573986551E-1,9.444007638E-1
4.636125708E0,1.119255894E0,-2.051302654E-1,6.535200508E-1,1.312212116E0
4.646116708E0,1.594174351E0,-3.011020777E-1,7.094381435E-1,1.770693875E0
4.656107708E0,2.098476820E0,-2.172524205E-1,7.692234385E-1,2.245553000E0
4.666097708E0,2.646608264E0,-1.697622120E-2,7.623036973E-1,2.754256782E0
4.676088708E0,2.949334406E0,3.470418969E-1,7.848483682E-1,3.071644263E0
4.686079708E0,3.005944224E0,7.739804408E-1,8.437394777E-1,3.216619764E0
4.696070708E0,2.856392328E0,1.213735204E0,9.145020430E-1,3.235497530E0
4.706061708E0,2.645325385E0,1.594962555E0,8.897215430E-1,3.214538282E0
4.716051708E0,2.395031810E0,1.903090355E0,8.403957474E-1,3.172411588E0
4.726042708E0,2.187654460E0,2.112783495E0,7.661277764E-1,3.136341484E0
4.736033708E0,1.999139643E0,2.268853867E0,7.076616132E-1,3.105646815E0
4.746024708E0,1.979029314E0,2.339126582E0,6.549314225E-1,3.133210072E0
4.756014708E0,2.067469620E0,2.290504352E0,5.443124811E-1,3.133227871E0
4.766005708E0,2.250222006E0,2.209762490E0,4.632842517E-1,3.187660841E0
4.775996708E0,2.355575384E0,2.186613071E0,4.995334804E-1,3.252621375E0
4.785987708E0,2.093931195E0,2.213314381E0,6.101965682E-1,3.107353898E0
4.795977708E0,1.766384792E0,2.145531996E0,7.089725590E-1,2.868111725E0
4.805968708E0,1.468250468E0,2.022266550E0,8.026763825E-1,2.624806814E0
4.815959708E0,1.201542590E0,1.930931872E0,9.436363797E-1,2.462245339E0
4.825950708E0,1.051415328E0,1.925887479E0,1.071532528E0,2.441863783E0
4.835941708E0,9.860300088E-1,1.974586599E0,1.162102536E0,2.494339536E0
4.845931708E0,1.074453358E0,2.046670489E0,1.207624352E0,2.608000515E0
4.855922708E0,1.234704489E0,2.104773979E0,1.148078647E0,2.696785727E0
4.865913708E0,1.489237880E0,2.108876093E0,1.143253452E0,2.823511341E0
4.875904708E0,1.960078488E0,2.079207906E0,1.064849233E0,3.049412580E0
4.885894708E0,2.151838510E0,2.134056835E0,1.045169844E0,3.205774095E0
4.895885708E0,2.087803313E0,2.118992946E0,8.780809792E-1,3.101625377E0
4.905876708E0,1.885538768E0,1.996542894E0,6.492535568E-1,2.821873518E0
4.915867708E0,1.601222584E0,1.884585087E0,5.409890699E-1,2.531450945E0
4.925857708E0,1.364359480E0,1.805113240E0,5.531208730E-1,2.329346110E0
4.935848708E0,1.238646682E0,1.663939527E0,5.808602102E-1,2.154144595E0
4.945839708E0,1.241040532E0,1.431490778E0,6.227998030E-1,1.994298634E0
4.955830708E0,1.273344060E0,1.159921817E0,8.036332063E-1,1.900697252E0
4.965820708E0,1.249141849E0,9.119507566E-1,1.080202925E0,1.886490896E0
4.975811708E0,1.305779734E0,6.594630146E-1,1.281169242E0,1.944568541E0
4.985802708E0,1.570379106E0,4.847827095E-1,1.420716698E0,2.172450402E0
4.995793708E0,1.750610758E0,3.902142289E-1,1.620013196E0,2.416888067E0
5.005784708E0,1.902123225E0,2.931723762E-1,1.780599958E0,2.621938027E0
5.015774708E0,1.963756971E0,1.681808326E-1,1.868496473E0,2.715861798E0
5.025765708E0,1.939124991E0,6.659101546E-2,1.966135619E0,2.762305082E0
5.035756708E0,1.796420184E0,4.642864645E-2,2.071614711E0,2.742420210E0
5.045747708E0,1.618777680E0,9.042251229E-2,2.172512218E0,2.710798175E0
5.055737708E0,1.507503412E0,2.013599807E-1,2.254244598E0,2.719325484E0
5.065728708E0,1.490645889E0,4.127078828E-1,2.331637029E0,2.798014331E0
5.075719708E0,1.468838698E0,6.989361057E-1,2.452770141E0,2.943141208E0
5.085710708E0,1.382142617E0,1.054034004E0,2.646594815E0,3.166349635E0
5.095700708E0,1.287279729E0,1.456821501E0,2.818658491E0,3.424069753E0
5.105691708E0,1.312998122E0,1.551894304E0,2.864981303E0,3.512898784E0
5.115682708E0,1.641263148E0,1.064111972E0,2.855290128E0,3.461034632E0
5.125673708E0,2.211852577E0,4.830244517E-1,3.009000564E0,3.765592760E0
5.135663708E0,2.733889067E0,-3.792182475E-2,3.320947180E0,4.301659874E0
5.145654708E0,2.890340677E0,-3.978664801E-1,3.768026458E0,4.765541979E0
5.155645708E0,2.754225683E0,-4.877934408E-1,4.332522504E0,5.156980978E0
5.165636708E0,2.502688406E0,-2.561293879E-1,4.852771500E0,5.466117704E0
5.175626708E0,2.224376729E0,3.918172431E-1,5.248576545E0,5.713924074E0
5.185617708E0,2.060078155E0,1.228034278E0,5.283099675E0,5.801993827E0
5.195608708E0,1.960572578E0,2.010563933E0,5.012623851E0,5.745660104E0
5.205599708E0,1.836059044E0,2.393146376E0,4.601768074E0,5.502229711E0
5.215590708E0,1.581974135E0,2.280315579E0,4.253821321E0,5.079121689E0
5.225580708E0,1.224501098E0,1.943142028E0,4.004924061E0,4.616775998E0
5.235570208E0,9.234069139E-1,1.640300404E0,4.002046062E0,4.422628000E0
5.245561208E0,7.455936706E-1,1.411391851E0,4.060727549E0,4.363192077E0
5.255552208E0,7.256423861E-1,1.192106061E0,4.071211606E0,4.303770170E0
5.265542208E0,1.019433398E0,9.096738508E-1,3.949346277E0,4.179005501E0
5.275533208E0,1.531532544E0,5.188026872E-1,3.764942636E0,4.097504267E0
5.285524208E0,1.899798372E0,9.003074884E-2,3.560658463E0,4.036784374E0
5.295515208E0,2.172163432E0,-4.337619522E-1,3.274300432E0,3.953161611E0
5.305505208E0,2.332795801E0,-9.392742106E-1,3.006894397E0,3.919896198E0
5.315496208E0,2.189734315E0,-1.349168413E0,2.786089500E0,3.791765615E0
5.325487208E0,1.843915363E0,-1.703369933E0,2.628270811E0,3.634460132E0
5.335478208E0,1.474975351E0,-1.982128631E0,2.559882946E0,3.557722149E0
5.345469208E0,1.129410169E0,-2.181106163E0,2.565405056E0,3.551632657E0
5.355459208E0,7.882912087E-1,-2.322843840E0,2.612835331E0,3.583840817E0
5.365450208E0,5.009163469E-1,-2.302440566E0,2.720061572E0,3.598733763E0
5.375441208E0,2.924251020E-1,-2.119910374E0,2.857019442E0,3.569606775E0
5.385432208E0,2.128099984E-1,-1.904426151E0,2.875719130E0,3.455703630E0
5.395422208E0,2.249073029E-1,-1.703791810E0,2.727654766E0,3.223909172E0
5.405413208E0,3.235667878E-1,-1.490167002E0,2.467358944E0,2.900543625E0
5.415404208E0,4.663446844E-1,-1.300395910E0,2.208054811E0,2.604613779E0
5.425395208E0,4.370483798E-1,-1.122709259E0,1.993634928E0,2.329392108E0
5.435385208E0,2.562513024E-1,-1.014050159E0,1.808040795E0,2.088773317E0
5.445376208E0,-1.190352774E-1,-1.047348298E0,1.624983184E0,1.936924934E0
5.455367208E0,-5.039142144E-1,-1.169946430E0,1.539072529E0,1.997860964E0
5.465358208E0,-8.522650105E-1,-1.370518937E0,1.547912496E0,2.236226934E0
5.475348208E0,-1.173946071E0,-1.593889445E0,1.673931688E0,2.592427479E0
5.485339208E0,-1.480989797E0,-1.827471385E0,1.806143081E0,2.965659331E0
5.495330208E0,-1.668869022E0,-2.037733020E0,1.956869975E0,3.281283251E0
5.505321208E0,-1.683337957E0,-2.294379010E0,2.113526384E0,3.544685528E0
5.515312208E0,-1.623567134E0,-2.540453818E0,2.366344786E0,3.832683588E0
5.525302208E0,-1.589695968E0,-2.718933059E0,2.669365042E0,4.128588134E0
5.535293208E0,-1.516468363E0,-2.778193420E0,2.837171653E0,4.250597366E0
5.545284208E0,-1.305220740E0,-2.849365729E0,2.763294715E0,4.178311132E0
5.555275208E0,-1.090072441E0,-2.946840568E0,2.639077635E0,4.103274061E0
5.565265208E0,-9.967631578E-1,-3.009907174E0,2.483321843E0,4.027401814E0
5.575256208E0,-1.106610705E0,-3.163933944E0,2.357294465E0,4.097792388E0
5.585247208E0,-1.288165582E0,-3.482311328E0,2.209983222E0,4.320866649E0
5.595238208E0,-1.484261314E0,-3.821762955E0,2.134493330E0,4.622225168E0
5.605228208E0,-1.575404204E0,-4.075994044E0,2.074805245E0,4.837400402E0
5.615219208E0,-1.619056592E0,-4.286639403E0,2.058131032E0,5.023198679E0
5.625210208E0,-1.625611905E0,-4.441805211E0,1.954172215E0,5.117717914E0
5.635201208E0,-1.573364695E0,-4.494920733E0,1.826451192E0,5.100560049E0
5.645192208E0,-1.482467389E0,-4.522138060E0,1.691871969E0,5.050729942E0
5.655182208E0,-1.275828542E0,-4.474157855E0,1.612483591E0,4.924015669E0
5.665173208E0,-9.854166359E-1,-4.367635619E0,1.514743727E0,4.726704497E0
5.675164208E0,-8.316331100E-1,-4.193627744E0,1.430750666E0,4.508345013E0
5.685155208E0,-1.025478834E0,-4.031053514E0,1.370436491E0,4.379394415E0
5.695145208E0,-1.394642209E0,-4.042712570E0,1.271105307E0,4.461419114E0
5.705136208E0,-1.751215945E0,-4.061014355E0,1.101224981E0,4.557553218E0
5.715127208E0,-1.823403330E0,-4.250686044E0,8.317678884E-1,4.699464796E0
5.725118208E0,-1.746826440E0,-4.758894161E0,4.364771068E-1,5.088122297E0
5.735108208E0,-1.756131114E0,-5.171531877E0,1.794659588E-1,5.464517040E0
5.745099208E0,-1.866256405E0,-5.242915270E0,1.428664818E-1,5.566999581E0
5.755090208E0,-1.718596668E0,-5.060428348E0,3.651805446E-2,5.344421684E0
5.765081208E0,-1.329804189E0,-4.707405919E0,-7.648289636E-2,4.892228459E0
5.775072208E0,-9.893792939E-1,-4.177613389E0,-6.991296485E-2,4.293741124E0
5.785062208E0,-7.037697065E-1,-3.450116267E0,5.402110979E-2,3.521578103E0
5.795053208E0,-5.231948233E-1,-2.565490133E0,1.771962158E-1,2.624284845E0
5.805044208E0,-5.286017436E-1,-1.588801198E0,1.371790414E-1,1.680037839E0
5.815035208E0,-6.145505512E-1,-6.344280146E-1,-7.357887670E-2,8.863324076E-1
5.825025208E0,-7.343026972E-1,1.590683855E-1,-3.777826099E-1,8.409654587E-1
5.835016208E0,-8.875704986E-1,7.705457863E-1,-5.840280124E-1,1.312482731E0
5.845007208E0,-1.057937313E0,1.167630640E0,-6.902636616E-1,1.720190859E0
5.854998208E0,-1.283764383E0,1.338381762E0,-6.408945235E-1,1.962157619E0
5.864988208E0,-1.462594457E0,1.215936681E0,-5.139315180E-1,1.970230992E0
5.874979208E0,-1.457233145E0,9.009696856E-1,-3.574638279E-1,1.750158622E0
5.884970208E0,-1.226352326E0,4.766122489E-1,-1.655193993E-1,1.326082929E0
5.894961208E0,-9.344955736E-1,1.551662461E-1,2.790291309E-2,9.477009621E-1
5.904952208E0,-4.766176575E-1,-8.437093645E-3,1.197697607E-1,4.915082620E-1
5.914942208E0,1.269430518E-1,-1.840688869E-2,1.316782732E-1,1.838274180E-1
5.924933208E0,5.071243358E-1,6.660387933E-2,1.277243860E-1,5.271856290E-1
5.934924208E0,8.288170910E-1,1.496855047E-1,1.383524314E-3,8.422264748E-1
5.944915208E0,8.766484845E-1,1.707305110E-1,-8.366525061E-2,8.970291784E-1
5.954905208E0,7.218235695E-1,1.779038751E-1,-6.555291541E-2,7.463084075E-1
5.964896208E0,5.674822193E-1,1.391119847E-1,8.441515602E-2,5.903508551E-1
5.974887208E0,4.812925065E-1,1.336252499E-1,3.037290124E-1,5.845934460E-1
5.984878208E0,4.387399793E-1,2.400665018E-1,6.102763096E-1,7.890258987E-1
5.994868208E0,5.171002704E-1,4.433271199E-1,9.181530444E-1,1.143213295E0
6.004859208E0,5.244812107E-1,6.727379483E-1,1.155192297E0,1.436010491E0
6.014850208E0,5.526004708E-1,8.826018271E-1,1.246702537E0,1.624383108E0
6.024841208E0,6.247206134E-1,1.076420946E0,1.250853914E0,1.764537733E0
6.034832208E0,6.563873792E-1,1.243325332E0,1.193782823E0,1.844402261E0
6.044822208E0,6.584058380E-1,1.381063513E0,1.081129197E0,1.873412665E0
6.054813208E0,6.516832942E-1,1.565007854E0,1.039189239E0,1.988430279E0
6.064804208E0,8.352683240E-1,1.763670514E0,1.095988215E0,2.238168229E0
6.074795208E0,1.011510420E0,1.982450227E0,1.175067129E0,2.516752867E0
6.084785208E0,1.072002205E0,2.119177425E0,1.242977715E0,2.680502805E0
6.094776208E0,1.133508482E0,2.157297178E0,1.220316246E0,2.725425532E0
6.104767208E0,1.290750636E0,2.198681724E0,1.145226083E0,2.794956405E0
6.114758208E0,1.410885190E0,2.280806745E0,1.060690767E0,2.884049467E0
6.124748208E0,1.539709291E0,2.433634836E0,9.428633778E-1,3.030226817E0
6.134739208E0,1.610281675E0,2.628313496E0,8.295995215E-1,3.192064265E0
6.144730208E0,1.603781911E0,2.822520577E0,6.382949245E-1,3.308498033E0
6.154721208E0,1.671846424E0,3.002550500E0,4.119607548E-1,3.461226897E0
6.164712208E0,1.652114410E0,3.079216853E0,2.365547372E-1,3.502430099E0
6.174702208E0,1.631674883E0,3.036549428E0,1.119614621E-1,3.448989812E0
6.184693208E0,1.657061155E0,2.964195689E0,8.625227809E-2,3.397020343E0
6.194684208E0,1.681714770E0,2.886038589E0,7.242829084E-2,3.341052104E0
6.204675208E0,1.761921612E0,2.792148093E0,9.550381579E-2,3.302965292E0
6.214665208E0,1.946634570E0,2.666308703E0,1.001801996E-1,3.302820661E0
6.224656208E0,2.110130321E0,2.551154515E0,1.585812394E-1,3.314541799E0
6.234647583E0,2.255034265E0,2.416074478E0,2.354931752E-1,3.313314421E0
6.244638583E0,2.425692270E0,2.194666149E0,2.216610749E-1,3.278669872E0
6.254629583E0,2.574636641E0,2.060414662E0,2.404492752E-1,3.306339103E0
6.264619583E0,2.662436677E0,2.008863562E0,2.729655683E-1,3.346432738E0
6.274610583E0,2.904613731E0,1.977890276E0,1.718541996E-1,3.518290030E0
6.284601583E0,3.126299803E0,2.075561582E0,1.223902635E-1,3.754555328E0
6.294592583E0,3.311490478E0,2.303249820E0,1.677763514E-1,4.037211640E0
6.304582583E0,3.501118605E0,2.497654538E0,2.246243707E-1,4.306572394E0
6.314573583E0,3.728242587E0,2.695766683E0,2.898092039E-1,4.609874204E0
6.324564583E0,3.906970335E0,2.945733983E0,2.935056674E-1,4.901827361E0
6.334555583E0,3.930552741E0,3.187713693E0,3.294777381E-1,5.071421795E0
6.344545583E0,3.805024715E0,3.443841035E0,4.428950107E-1,5.151156195E0
6.354536583E0,3.788572404E0,3.528689981E0,4.185132909E-1,5.194235961E0
6.364527583E0,3.960449554E0,3.083199391E0,3.565234494E-1,5.031738082E0
6.374518583E0,3.986770211E0,2.777032456E0,6.737207191E-1,4.905114227E0
6.384509583E0,3.981364460E0,2.873638983E0,1.054488040E0,5.022052269E0
6.394499583E0,4.165579820E0,2.855126406E0,1.040904812E0,5.156285956E0
6.404490583E0,4.419841899E0,2.700289212E0,8.098978400E-1,5.242375297E0
6.414481583E0,4.513679186E0,2.600526065E0,8.014182079E-1,5.270512949E0
6.424472583E0,4.534903409E0,2.697336953E0,9.825544238E-1,5.367158351E0
6.434462583E0,4.605303885E0,2.835265169E0,1.191075563E0,5.537708321E0
6.444453583E0,4.472308965E0,3.033084368E0,1.374522525E0,5.575882032E0
6.454444583E0,4.184557543E0,3.186986592E0,1.477842826E0,5.463645741E0
6.464435583E0,3.967944515E0,3.120478607E0,1.446089083E0,5.251013621E0
6.474426583E0,3.950218681E0,2.760873967E0,1.457363538E0,5.034934078E0
6.484416583E0,3.897996029E0,2.402583782E0,1.682109457E0,4.878142484E0
6.494407583E0,3.606404155E0,2.186853976E0,2.055575945E0,4.691894469E0
6.504398583E0,3.203025797E0,1.987208692E0,2.402596353E0,4.469993499E0
6.514389583E0,2.760871629E0,1.757299388E0,2.665418172E0,4.220778047E0
6.524379583E0,2.388472404E0,1.491575596E0,2.832028735E0,3.993743224E0
6.534370583E0,2.049828570E0,1.208741097E0,3.007476779E0,3.835070897E0
6.544361583E0,1.852052348E0,8.981390485E-1,3.093565335E0,3.715763466E0
6.554352583E0,1.736224853E0,5.301898474E-1,3.146532923E0,3.632663961E0
6.564342583E0,1.613715160E0,9.407205194E-2,3.178065788E0,3.565533385E0
6.574333583E0,1.415593368E0,-3.653688249E-1,3.186043729E0,3.505463393E0
6.584324583E0,1.199675574E0,-7.877784079E-1,3.146323593E0,3.458203067E0
6.594315583E0,9.794858050E-1,-1.122175409E0,3.101652035E0,3.440772505E0
6.604306583E0,8.230885738E-1,-1.338823519E0,3.028474131E0,3.411975788E0
6.614296583E0,8.073256499E-1,-1.466507413E0,2.892960230E0,3.342399975E0
6.624287583E0,7.195700526E-1,-1.551935965E0,2.752860943E0,3.241069217E0
6.634278583E0,5.233579606E-1,-1.655936589E0,2.538275145E0,3.075527639E0
6.644269583E0,2.905838138E-1,-1.716026524E0,2.308936969E0,2.891431464E0
6.654259583E0,8.361109078E-2,-1.795666332E0,2.106380063E0,2.769159685E0
6.664250583E0,-1.646874136E-1,-1.903168854E0,1.982364127E0,2.752987679E0
6.674241583E0,-4.374717182E-1,-1.985472361E0,1.933323530E0,2.805569794E0
6.684232583E0,-6.967688352E-1,-1.987930969E0,1.836508403E0,2.794659095E0
6.694223583E0,-8.759286922E-1,-1.987764031E0,1.768809340E0,2.801275316E0
6.704213583E0,-1.119540653E0,-1.977524094E0,1.752520459E0,2.869721376E0
6.714204583E0,-1.307947882E0,-1.979843539E0,1.751232025E0,2.949122192E0
6.724195583E0,-1.393127781E0,-2.016345659E0,1.759454964E0,3.016974743E0
6.734186583E0,-1.440469762E0,-2.081863272E0,1.817838828E0,3.116672236E0
6.744176583E0,-1.421393221E0,-2.226464769E0,1.904910593E0,3.256714360E0
6.754167583E0,-1.430727131E0,-2.386207631E0,2.003679713E0,3.428658539E0
6.764158583E0,-1.609578255E0,-2.525236731E0,2.144926224E0,3.683513434E0
6.774149583E0,-1.895782505E0,-2.672179892E0,2.276983835E0,3.989886222E0
6.784140583E0,-2.184567130E0,-2.915349511E0,2.354500373E0,4.337657009E0
6.794130583E0,-2.459072270E0,-3.152433933E0,2.391319121E0,4.658678275E0
6.804121583E0,-2.631723592E0,-3.349239810E0,2.392244443E0,4.885305501E0
6.814112583E0,-2.684207030E0,-3.543416778E0,2.413690276E0,5.058326857E0
6.824103583E0,-2.671640194E0,-3.829282182E0,2.477205363E0,5.285604011E0
6.834093583E0,-2.548728213E0,-4.099946871E0,2.633356427E0,5.499104101E0
6.844084583E0,-2.311746410E0,-4.220428749E0,2.916394409E0,5.626859394E0
6.854075583E0,-2.105529732E0,-4.312591977E0,3.268648514E0,5.806528061E0
6.864066583E0,-1.950483207E0,-4.416516880E0,3.468730001E0,5.944921691E0
6.874057583E0,-1.794149711E0,-4.606154655E0,3.486292990E0,6.048956332E0
6.884047583E0,-1.737189644E0,-4.739316221E0,3.337295410E0,6.051155820E0
6.894038583E0,-1.553672442E0,-4.761780639E0,2.996420279E0,5.836693190E0
6.904029583E0,-1.279928024E0,-4.750090593E0,2.544719946E0,5.538698041E0
6.914020583E0,-9.850295502E-1,-4.589926878E0,2.156096452E0,5.165894295E0
6.924010583E0,-7.644907022E-1,-4.280822008E0,1.962952394E0,4.771065416E0
6.934001583E0,-5.492868537E-1,-3.939624988E0,1.868356140E0,4.394669016E0
6.943992583E0,-2.289839816E-1,-3.560787687E0,1.805885949E0,3.999108235E0
6.953983583E0,1.775857866E-1,-3.214712919E0,1.648597018E0,3.617151917E0
6.963974583E0,7.478694069E-1,-3.460976885E0,1.170032822E0,3.729161629E0
6.973964583E0,8.739558417E-1,-4.141460640E0,7.316848987E-1,4.295446174E0
6.983955583E0,5.777101690E-1,-4.274949942E0,5.701549816E-1,4.351324252E0
6.993946583E0,1.993497080E-1,-4.119032475E0,4.456528500E-1,4.147863944E0
7.003937583E0,-2.892149806E-2,-3.976843100E0,2.486002207E-1,3.984710726E0
7.013927583E0,-9.210007846E-2,-3.955622385E0,-6.869776726E-2,3.957290773E0
7.023918583E0,-2.763370728E-1,-3.665451970E0,-1.398317769E-1,3.678512369E0
7.033909583E0,-4.099535519E-1,-3.089431061E0,-3.429888994E-2,3.116700597E0
7.043900583E0,-3.872903287E-1,-2.394571050E0,2.601357539E-1,2.439597287E0
7.053891583E0,-3.216769677E-1,-1.744593096E0,4.712399733E-1,1.835523973E0
7.063881583E0,-3.866138059E-1,-1.318704420E0,4.415596528E-1,1.443407949E0
7.073872583E0,-6.477393472E-1,-1.163215261E0,3.287681785E-1,1.371395100E0
7.083863583E0,-9.625668865E-1,-1.163179593E0,2.840071580E-1,1.536288333E0
7.093854583E0,-1.157707184E0,-1.181481305E0,3.292134440E-1,1.686583970E0
7.103844583E0,-1.252052593E0,-1.130622443E0,4.347653344E-1,1.742114721E0
7.113835583E0,-1.306628165E0,-1.180983926E0,4.487656152E-1,1.817523253E0
7.123826583E0,-1.297826352E0,-1.365231007E0,3.616198826E-1,1.918066183E0
7.133817583E0,-1.193241883E0,-1.522170860E0,3.116169794E-1,1.959064945E0
7.143808583E0,-1.026858777E0,-1.547778156E0,3.279586315E-1,1.886163575E0
7.153798583E0,-8.138464648E-1,-1.487181121E0,3.083540869E-1,1.723118104E0
7.163789583E0,-5.111618382E-1,-1.381180165E0,2.299417555E-1,1.490576494E0
7.173780583E0,-1.710263801E-1,-1.239971661E0,1.140791774E-1,1.256898485E0
7.183771583E0,6.924915969E-2,-1.114270558E0,3.686917976E-2,1.117028943E0
7.193761583E0,2.298867917E-1,-1.003124051E0,-3.085868061E-4,1.029128707E0
7.203752583E0,4.167018235E-1,-8.540506040E-1,4.689934731E-2,9.514422697E-1
7.213743583E0,4.793021142E-1,-6.550621077E-1,1.312850480E-1,8.222363684E-1
7.223734583E0,3.898438078E-1,-4.472090864E-1,1.751172383E-1,6.185791854E-1
7.233725125E0,2.940009266E-1,-1.756817870E-1,1.301182361E-1,3.663760234E-1
7.243715125E0,8.685921907E-2,1.459443100E-1,1.627294734E-2,1.706138165E-1
7.253706125E0,-1.136289418E-1,4.131747830E-1,-1.625958645E-1,4.583255970E-1
7.263697125E0,-2.851839101E-1,6.527204441E-1,-2.827234018E-1,7.663591603E-1
7.273688125E0,-4.062791616E-1,8.897458090E-1,-3.649716528E-1,1.043989784E0
7.283678125E0,-4.226823556E-1,1.089657873E0,-3.817999394E-1,1.229547009E0
7.293669125E0,-3.353612065E-1,1.265066741E0,-3.000406618E-1,1.342715680E0
7.303660125E0,-1.654171461E-1,1.382907725E0,-1.456870325E-1,1.400364709E0
7.313651125E0,-2.962608755E-2,1.500666263E0,2.899151847E-2,1.501238637E0
7.323642125E0,1.473515886E-1,1.620449106E0,1.428275979E-1,1.633391417E0
7.333632125E0,2.649355870E-1,1.741672119E0,1.663755778E-1,1.769546120E0
7.343623125E0,3.227095860E-1,1.849871044E0,4.238982841E-2,1.878286787E0
7.353614125E0,5.004836529E-1,1.861124303E0,-1.296259005E-1,1.931597896E0
7.363605125E0,6.129203475E-1,1.852827689E0,-2.260054100E-1,1.964617073E0
7.373595125E0,7.257172304E-1,1.862734042E0,-2.679556739E-1,2.016988808E0
7.383586125E0,8.918986076E-1,1.818531430E0,-2.532407172E-1,2.041242404E0
7.393577125E0,1.074850969E0,1.782722497E0,-1.895586915E-1,2.090295817E0
7.403568125E0,1.375513043E0,1.828866969E0,-1.177173150E-1,2.291429224E0
7.413559125E0,1.750002063E0,1.924104663E0,-1.729050905E-2,2.600958465E0
7.423549125E0,2.019136536E0,2.102431584E0,-2.246142112E-2,2.915070399E0
7.433540125E0,2.261573791E0,2.296070024E0,-2.221414237E-1,3.230479899E0
7.443531125E0,2.499479454E0,2.501643801E0,-4.884633856E-1,3.569904162E0
7.453522125E0,2.618435794E0,2.715586697E0,-7.086789557E-1,3.838338570E0
7.463512125E0,2.694543738E0,2.797069986E0,-8.355706251E-1,3.972699930E0
7.473503125E0,2.763156136E0,2.723714912E0,-8.177950895E-1,3.965153662E0
7.483494125E0,2.927961663E0,2.607122894E0,-6.424183810E-1,3.972751019E0
7.493485125E0,3.098940096E0,2.480704337E0,-3.639166689E-1,3.986196065E0
7.503476125E0,3.256676924E0,2.270571486E0,-1.265512884E-1,3.972084427E0
7.513466125E0,3.435352632E0,2.084904555E0,2.812613055E-2,4.018614909E0
7.523457125E0,3.564228188E0,1.986926856E0,1.222816515E-1,4.082469070E0
7.533448125E0,3.666587207E0,1.949433632E0,1.168577743E-1,4.154251914E0
7.543439125E0,3.662413464E0,2.024423003E0,1.594630726E-1,4.187718872E0
7.553430125E0,3.673336648E0,2.198646348E0,2.441295127E-1,4.288012023E0
7.563420125E0,3.682816154E0,2.437186435E0,3.449178958E-1,4.429670518E0
7.573411125E0,3.585560001E0,2.747385026E0,3.993426096E-1,4.534736984E0
7.583402125E0,3.431042064E0,3.073916352E0,3.764905214E-1,4.621986207E0
7.593393125E0,3.207362092E0,3.352572723E0,2.326441924E-1,4.645539664E0
7.603383125E0,3.193481972E0,3.253825822E0,-1.570959735E-1,4.561840498E0
7.613374125E0,3.303563408E0,2.621112065E0,-4.748874664E-1,4.243733940E0
7.623365125E0,3.021634058E0,2.424051249E0,-2.447094834E-1,3.881517689E0
7.633356125E0,2.632340473E0,2.521034922E0,-9.817475080E-2,3.646158489E0
7.643347125E0,2.441996062E0,2.671747490E0,-1.383041918E-1,3.622251712E0
7.653337125E0,2.565537204E0,2.571607783E0,-3.943338116E-1,3.653853703E0
7.663328125E0,2.892762010E0,2.419012704E0,-3.017045601E-1,3.782951248E0
7.673319125E0,3.561174772E0,2.599589049E0,1.536718440E-1,4.411739341E0
7.683310125E0,3.998068786E0,2.937189446E0,6.339539516E-1,5.001353164E0
7.693300125E0,3.770707406E0,3.307827782E0,8.245989096E-1,5.083298372E0
7.703291125E0,3.128697161E0,3.463127199E0,7.569502059E-1,4.728104222E0
7.713282125E0,2.334407879E0,3.356316987E0,7.070301139E-1,4.149001741E0
7.723273125E0,1.698896813E0,3.071937069E0,8.210006062E-1,3.605147672E0
7.733264125E0,1.316742679E0,2.755264441E0,1.189980818E0,3.277399544E0
7.743254125E0,1.139888964E0,2.492474197E0,1.662680329E0,3.205663793E0
7.753245125E0,1.182987036E0,2.322954645E0,2.013709735E0,3.294025426E0
7.763236125E0,1.313944201E0,2.195292678E0,2.209921242E0,3.380756010E0
7.773227125E0,1.616211337E0,2.097010923E0,2.229087245E0,3.460985964E0
7.783218125E0,2.158901362E0,1.946753561E0,2.008189963E0,3.533204133E0
7.793208125E0,2.783914336E0,1.857805131E0,1.732622384E0,3.768766278E0
7.803199125E0,2.899079341E0,1.795798625E0,1.462993237E0,3.710781985E0
7.813190125E0,2.525322393E0,1.617375517E0,1.266308105E0,3.255256207E0
7.823181125E0,1.933805779E0,1.285243143E0,1.185004910E0,2.606854688E0
7.833171125E0,1.391444952E0,8.946962079E-1,1.270494711E0,2.085846871E0
7.843162125E0,1.040880400E0,5.360315081E-1,1.506142180E0,1.907675562E0
7.853153125E0,8.479181904E-1,2.393022707E-1,1.708902569E0,1.922648908E0
7.863144125E0,7.126212215E-1,-2.576458633E-2,1.826754370E0,1.961000853E0
7.873135125E0,6.269314456E-1,-2.948756701E-1,1.786116221E0,1.915778133E0
7.883125125E0,6.092863029E-1,-5.849019518E-1,1.602422579E0,1.811380196E0
7.893116125E0,5.930263656E-1,-8.729742403E-1,1.345285277E0,1.709841154E0
7.903107125E0,5.567636883E-1,-1.097150057E0,1.029028094E0,1.603939796E0
7.913098125E0,4.827870548E-1,-1.257947610E0,8.457096970E-1,1.590830104E0
7.923088125E0,4.023942715E-1,-1.399054226E0,7.673593462E-1,1.645634906E0
7.933079125E0,1.194480908E-1,-1.600473117E0,8.368393247E-1,1.809995056E0
7.943070125E0,-1.866869777E-1,-1.851995192E0,9.905968304E-1,2.108558820E0
7.953061125E0,-3.642715949E-1,-2.057236700E0,1.201526657E0,2.410100193E0
7.963052125E0,-4.553279454E-1,-2.148320971E0,1.460709022E0,2.637475570E0
7.973042125E0,-5.051058769E-1,-2.195325422E0,1.655800349E0,2.795757581E0
7.983033125E0,-6.302982724E-1,-2.224906632E0,1.689185758E0,2.863709825E0
7.993024125E0,-7.187099272E-1,-2.345865059E0,1.608394633E0,2.933693939E0
8.003015125E0,-8.451027560E-1,-2.540913994E0,1.576615016E0,3.107435840E0
8.013006125E0,-9.906159800E-1,-2.775825298E0,1.572377831E0,3.340493698E0
8.022996125E0,-1.068110299E0,-3.007732303E0,1.557220971E0,3.551373025E0
8.032987125E0,-9.671873564E-1,-3.254266994E0,1.547246790E0,3.730908426E0
8.042978125E0,-8.101270509E-1,-3.464242847E0,1.478170416E0,3.852566952E0
8.052969125E0,-8.571006578E-1,-3.602387118E0,1.372881650E0,3.949255437E0
8.062959125E0,-1.080058499E0,-3.738615840E0,1.239618928E0,4.084168195E0
8.072950125E0,-1.421753410E0,-3.916124151E0,1.150669914E0,4.322204574E0
8.082941125E0,-1.818715033E0,-4.130619025E0,1.147372084E0,4.656844490E0
8.092932125E0,-2.118676026E0,-4.361931075E0,1.170062935E0,4.988414386E0
8.102923125E0,-2.283258775E0,-4.584784836E0,1.210581947E0,5.262986916E0
8.112913125E0,-2.355092989E0,-4.759161963E0,1.282046471E0,5.462575284E0
8.122904125E0,-2.317573745E0,-4.901914132E0,1.310694465E0,5.578335791E0
8.132895125E0,-2.077489409E0,-5.003285263E0,1.196571580E0,5.548027507E0
8.142886125E0,-1.875419576E0,-4.991999552E0,9.712916632E-1,5.420393492E0
8.152877125E0,-1.845321618E0,-4.988391235E0,6.958761115E-1,5.364093824E0
8.162867125E0,-1.936213662E0,-5.069788570E0,4.332039817E-1,5.444202897E0
8.172858125E0,-2.140035321E0,-5.139499075E0,2.825722513E-1,5.574410193E0
8.182849125E0,-2.452473688E0,-5.165018079E0,2.518198438E-1,5.723237910E0
8.192840125E0,-2.720030581E0,-5.172559233E0,2.003162527E-1,5.847568895E0
8.202830125E0,-2.751175191E0,-5.074048852E0,1.866537948E-1,5.774926521E0
8.212821125E0,-2.549788313E0,-4.811080853E0,2.089854808E-1,5.448999389E0
8.222812125E0,-2.130141832E0,-4.569049979E0,2.236469355E-1,5.046160905E0
8.232803125E0,-1.603577843E0,-4.743701633E0,1.001584187E-1,5.008412801E0
8.242794458E0,-1.241679048E0,-5.091683469E0,4.135121673E-2,5.241060707E0
8.252784458E0,-1.038288329E0,-5.381799506E0,-3.751339674E-2,5.481169203E0
8.262775458E0,-6.668731910E-1,-5.623129299E0,-1.396592841E-1,5.664257028E0
8.272766458E0,-2.540808159E-1,-5.758014039E0,-2.105376242E-1,5.767461211E0
8.282757458E0,1.534192443E-1,-5.731166548E0,-1.878508660E-1,5.736296315E0
8.292748458E0,2.290348524E-1,-5.406353719E0,5.207910329E-2,5.411453569E0
8.302738458E0,1.825126505E-1,-4.763367865E0,3.516594431E-1,4.779816801E0
8.312729458E0,1.391157854E-1,-3.952741170E0,6.060466531E-1,4.001350835E0
8.322720458E0,4.540830731E-2,-3.015778071E0,7.896724673E-1,3.117781566E0
8.332711458E0,-8.203643560E-3,-2.101741028E0,9.265685034E-1,2.296935315E0
8.342701458E0,1.045423687E-1,-1.331989294E0,9.781070316E-1,1.655843577E0
8.352692458E0,2.550672412E-1,-7.413133626E-1,9.155428474E-1,1.205331284E0
8.362683458E0,3.277761984E-1,-3.731776352E-1,8.050344184E-1,9.459276920E-1
8.372674458E0,4.385926294E-1,-1.409671600E-1,6.478128760E-1,7.949193400E-1
8.382665458E0,6.209064746E-1,-4.355269343E-2,4.992867279E-1,7.979404263E-1
8.392655458E0,5.588686860E-1,-9.882130668E-2,3.503033276E-1,6.669424864E-1
8.402646458E0,3.275253528E-1,-2.806996804E-1,1.329118896E-1,4.513654149E-1
8.412637458E0,5.751555204E-2,-5.884504808E-1,-1.305333884E-1,6.054923390E-1
8.422628458E0,-1.573743010E-1,-9.197341315E-1,-3.612525313E-1,1.000590293E0
8.432619458E0,-3.389075428E-1,-1.186870903E0,-5.243455553E-1,1.341066413E0
8.442609458E0,-3.808221388E-1,-1.361389386E0,-6.494901498E-1,1.555713347E0
8.452600458E0,-2.442756200E-1,-1.409622922E0,-5.830830292E-1,1.544892611E0
8.462591458E0,-1.098832154E-1,-1.310281359E0,-3.483980124E-1,1.360254659E0
8.472582458E0,-3.795661569E-2,-1.078114884E0,-9.749515817E-2,1.083179447E0
8.482572458E0,-1.062819153E-1,-8.784679918E-1,3.051998064E-2,8.854000945E-1
8.492563458E0,-2.108114201E-1,-6.478371419E-1,1.401061575E-1,6.955315612E-1
8.502554458E0,-2.156798118E-1,-3.092903723E-1,3.298202388E-1,5.009587863E-1
8.512545458E0,-2.141525191E-1,-1.102185532E-2,5.680040833E-1,6.071337756E-1
8.522536458E0,-2.838641936E-1,2.138297528E-1,7.285781269E-1,8.106344000E-1
8.532526458E0,-3.713993508E-1,4.126160815E-1,8.053966534E-1,9.781887741E-1
8.542517458E0,-6.421201730E-1,5.949079996E-1,7.816793235E-1,1.173565682E0
8.552508458E0,-9.030276132E-1,8.193051329E-1,7.349144621E-1,1.423663948E0
8.562499458E0,-9.519313860E-1,1.067118611E0,6.600373574E-1,1.574980891E0
8.572490458E0,-8.650967252E-1,1.290341331E0,6.550729982E-1,1.685969670E0
8.582480458E0,-7.252705032E-1,1.516608111E0,7.797320545E-1,1.853132360E0
8.592471458E0,-5.538681471E-1,1.690617741E0,9.232682618E-1,2.004340927E0
8.602462458E0,-4.935260510E-1,1.769397862E0,1.045733516E0,2.113739658E0
8.612453458E0,-4.621475530E-1,1.834661852E0,1.138186255E0,2.207947559E0
8.622444458E0,-4.037286061E-1,1.831325723E0,1.100443720E0,2.174333708E0
8.632434458E0,-2.077965957E-1,1.874808250E0,1.015888304E0,2.142455237E0
8.642425458E0,2.611074150E-2,1.895445413E0,8.793814731E-1,2.089666686E0
8.652416458E0,3.845672804E-1,1.980302253E0,7.167704058E-1,2.140852358E0
8.662407458E0,8.067689949E-1,2.139826283E0,6.192177987E-1,2.369211559E0
8.672397458E0,1.071812171E0,2.204295343E0,4.705955371E-1,2.495828410E0
8.682388458E0,1.315943365E0,2.190746760E0,2.461525762E-1,2.567424662E0
8.692379458E0,1.608846184E0,2.185167932E0,9.021435142E-2,2.715047617E0
8.702370458E0,1.919859000E0,2.264447990E0,-3.586090051E-2,2.968984554E0
8.712361458E0,2.210343411E0,2.378807833E0,-1.910939511E-1,3.252823635E0
8.722351458E0,2.546058374E0,2.453860062E0,-3.751527516E-1,3.555922108E0
8.732342458E0,2.914616563E0,2.501935869E0,-4.801440402E-1,3.871073637E0
8.742333458E0,3.237491040E0,2.537127922E0,-5.328719652E-1,4.147567824E0
8.752324458E0,3.676177810E0,2.517948470E0,-6.622218040E-1,4.504762536E0
8.762315458E0,4.327555295E0,2.449469680E0,-8.618059853E-1,5.046815441E0
8.772305458E0,4.848222951E0,2.416219489E0,-1.038953158E0,5.515687271E0
8.782296458E0,4.863137444E0,2.353463954E0,-1.168383469E0,5.527568934E0
8.792287458E0,4.651869941E0,2.290294145E0,-1.187399930E0,5.319328888E0
8.802278458E0,4.300756921E0,2.278509959E0,-1.022199715E0,4.973229331E0
8.812268458E0,4.107932121E0,2.478173662E0,-7.859909872E-1,4.861505203E0
8.822259458E0,4.229586366E0,2.817194641E0,-5.430684129E-1,5.110861940E0
8.832250458E0,4.417810577E0,3.309351859E0,-2.884104037E-1,5.527390033E0
8.842241458E0,4.694177470E0,3.675998008E0,-2.945219135E-1,5.969506398E0
8.852232458E0,5.043583104E0,3.466490809E0,-4.302930915E-1,6.135099119E0
8.862222458E0,5.146547309E0,3.247536557E0,-2.344406033E-1,6.090025065E0
8.872213458E0,5.133767050E0,3.188087915E0,-4.661517262E-2,6.043313797E0
8.882204458E0,4.993657238E0,3.303663395E0,5.904401422E-2,5.987845241E0
8.892195458E0,4.959021256E0,3.609211988E0,-2.411625624E-2,6.133423561E0
8.902186458E0,5.261515848E0,4.000822824E0,-2.179642824E-1,6.613443938E0
8.912176458E0,5.441800125E0,4.490528889E0,-3.634477222E-1,7.064710366E0
8.922167458E0,5.111117860E0,4.860106832E0,-4.246727479E-1,7.065727927E0
8.932158458E0,4.673256133E0,5.021313983E0,-4.476289530E-1,6.874102754E0
8.942149458E0,4.222901829E0,5.052529929E0,-4.254703446E-1,6.598634976E0
8.952140458E0,3.834408143E0,4.910902179E0,-2.914591785E-1,6.237354766E0
8.962130458E0,3.603796297E0,4.609937511E0,-2.387418151E-1,5.856267520E0
8.972121458E0,3.423099207E0,4.078905665E0,-3.281270313E-1,5.335048917E0
8.982112458E0,3.142997112E0,3.548994145E0,-4.506870103E-1,4.762027831E0
8.992103458E0,2.758744411E0,3.046722706E0,-5.790661383E-1,4.150723740E0
9.002093458E0,2.345507648E0,2.460109859E0,-7.885987723E-1,3.489331550E0
9.012084458E0,2.084580327E0,1.869140251E0,-1.003630128E0,2.974295522E0
9.022075458E0,1.926813678E0,1.310902480E0,-1.112746189E0,2.582494984E0
9.032066458E0,1.807089599E0,8.283285561E-1,-1.078026592E0,2.261380628E0
9.042057458E0,1.852710160E0,3.049767351E-1,-9.354773211E-1,2.097775861E0
9.052047458E0,1.960648007E0,-2.860721022E-1,-7.561303532E-1,2.120780744E0
9.062038458E0,2.250543603E0,-8.880771598E-1,-6.118713570E-1,2.495598948E0
9.072029458E0,2.344852760E0,-1.318608818E0,-3.685185007E-1,2.715302850E0
9.082020458E0,2.150615273E0,-1.578818977E0,-1.612720549E-1,2.672793312E0
9.092011458E0,1.797892513E0,-1.814799153E0,-1.469557321E-1,2.558810161E0
9.102001458E0,1.540470598E0,-2.096749699E0,-3.098603296E-1,2.620195105E0
9.111992458E0,1.338054026E0,-2.241078715E0,-4.544853616E-1,2.649411129E0
9.121983458E0,1.263155286E0,-2.274390449E0,-5.817535186E-1,2.665867654E0
9.131974458E0,1.414026314E0,-2.315259271E0,-7.371022709E-1,2.811265847E0
9.141964458E0,1.516444389E0,-2.434703561E0,-8.097200116E-1,2.980441496E0
9.151955458E0,1.146032048E0,-2.565011539E0,-7.486821699E-1,2.907438502E0
9.161946458E0,4.858469027E-1,-2.675176882E0,-5.629721157E-1,2.776608753E0
9.171937458E0,6.452811778E-2,-2.792902676E0,-2.745374461E-1,2.807105278E0
9.181928458E0,-1.780295902E-1,-2.792986291E0,2.688454740E-1,2.811537808E0
9.191918458E0,-4.608582419E-1,-2.788440373E0,8.482986979E-1,2.950830513E0
9.201909458E0,-7.245787776E-1,-2.957522262E0,1.213176795E0,3.277766049E0
9.211900458E0,-1.133448840E0,-3.299327392E0,1.264474564E0,3.710682341E0
9.221891458E0,-1.412801907E0,-3.556876777E0,1.191757275E0,4.008449455E0
9.231882458E0,-1.580491281E0,-3.710742163E0,1.144267651E0,4.192482385E0
9.241872458E0,-1.810187454E0,-3.921660003E0,1.048934355E0,4.444823852E0
9.251863458E0,-1.920023307E0,-4.073592300E0,1.030831375E0,4.619876302E0
9.261854458E0,-2.044134552E0,-4.267655248E0,1.062205269E0,4.849705910E0
9.271845458E0,-2.520428274E0,-4.562414266E0,1.075514701E0,5.322115603E0
9.281835458E0,-3.140403287E0,-4.987967312E0,1.021880457E0,5.982155998E0
9.291826458E0,-3.721687859E0,-5.367403076E0,1.022379663E0,6.610993607E0
9.301817458E0,-4.132180524E0,-5.731577607E0,1.011558952E0,7.137867277E0
9.311808458E0,-4.398944535E0,-5.866586893E0,1.258248303E0,7.439808035E0
9.321799458E0,-4.653949211E0,-6.236332067E0,9.826934414E-1,7.843262542E0
9.331789458E0,-4.614884548E0,-6.459263595E0,7.377756509E-1,7.972675743E0
9.341780458E0,-4.457130763E0,-6.399386938E0,4.992550068E-1,7.814564823E0
9.351771458E0,-4.038844929E0,-6.276928115E0,1.799490850E-1,7.466222378E0
9.361762458E0,-3.490913460E0,-6.120035625E0,-2.077737916E-1,7.048722067E0
9.371753458E0,-3.400178706E0,-6.028107455E0,-4.927029093E-1,6.938447296E0
9.381743458E0,-3.501220347E0,-6.046032094E0,-5.999709575E-1,7.012347193E0
9.391734458E0,-3.571313844E0,-6.183808867E0,-5.768430269E-1,7.164253106E0
9.401725458E0,-3.502323716E0,-6.266777934E0,-3.900816433E-1,7.189641213E0
9.411716458E0,-3.231669552E0,-6.223821364E0,-4.427877143E-2,7.012959509E0
9.421707458E0,-2.798455777E0,-6.155265684E0,2.225554065E-1,6.765218495E0
9.431697458E0,-2.365019807E0,-6.075382193E0,4.112593813E-1,6.532436127E0
9.441688458E0,-2.071836321E0,-5.861460055E0,5.005497265E-1,6.236967992E0
9.451679458E0,-1.917899598E0,-5.464922354E0,5.014501977E-1,5.813361120E0
9.461670458E0,-1.517651839E0,-5.273103275E0,2.758602324E-1,5.494086287E0
9.471661458E0,-9.975256348E-1,-5.543019521E0,-3.925352812E-2,5.632198828E0
9.481651458E0,-5.895735848E-1,-5.829089869E0,-2.491827495E-1,5.864126342E0
9.491642458E0,-2.863936990E-1,-6.175521609E0,-4.274851124E-1,6.196921172E0
9.501633458E0,-7.513789058E-2,-6.444400558E0,-5.134988241E-1,6.465262972E0
9.511624458E0,2.448708665E-1,-6.388930947E0,-3.935819328E-1,6.405724558E0
9.521614458E0,5.648334306E-1,-5.845899444E0,-2.784926489E-2,5.873189312E0
9.531605458E0,9.125275844E-1,-4.763943524E0,5.168845081E-1,4.878015384E0
9.541596458E0,1.314663994E0,-3.504374920E0,1.047390836E0,3.886645412E0
9.551587458E0,1.694188051E0,-2.298506267E0,1.447079455E0,3.201162782E0
9.561578458E0,2.148417889E0,-1.278489463E0,1.587088987E0,2.961264288E0
9.571568458E0,2.620858296E0,-4.529131915E-1,1.535633051E0,3.071188277E0
9.581559458E0,2.845597199E0,1.046512730E-1,1.322535954E0,3.139661870E0
9.591550458E0,2.808302488E0,4.568599159E-1,1.012881593E0,3.020134594E0
9.601541458E0,2.528414986E0,5.923437032E-1,7.037556732E-1,2.690543709E0
9.611532458E0,2.160232188E0,5.844316895E-1,4.938217740E-1,2.291729358E0
9.621522458E0,1.810908415E0,4.424564695E-1,3.865104564E-1,1.903824401E0
9.631513458E0,1.535928481E0,2.627525291E-1,3.293643022E-1,1.592669468E0
9.641504458E0,1.264756254E0,6.769146144E-2,2.058138049E-1,1.283179581E0
9.651495458E0,1.105099200E0,-1.098247433E-1,8.372262642E-2,1.113694390E0
9.661486458E0,9.637106019E-1,-1.316968381E-1,6.005675197E-2,9.745198792E-1
9.671476458E0,9.460789078E-1,-1.539247361E-1,5.162872151E-2,9.599081462E-1
9.681467458E0,1.013533557E0,-1.445335230E-1,1.614476176E-1,1.036438876E0
9.691458458E0,1.006160803E0,-1.163186610E-2,3.855222769E-1,1.077553844E0
9.701449458E0,8.290579963E-1,2.141741538E-1,6.417414196E-1,1.070065315E0
9.711439458E0,7.705004704E-1,5.213137740E-1,8.063510652E-1,1.231113750E0
9.721430458E0,6.445993924E-1,8.756348696E-1,8.448829007E-1,1.376979273E0
9.731421458E0,5.949243718E-1,1.192827608E0,7.444182341E-1,1.526738752E0
9.741412458E0,6.856807601E-1,1.475127086E0,6.523818903E-1,1.752643762E0
9.751403458E0,8.209175026E-1,1.822144425E0,7.000999939E-1,2.117606161E0
9.761393458E0,1.026064725E0,2.092422028E0,8.367714970E-1,2.476131116E0
9.771384458E0,1.210441468E0,2.254536082E0,1.094831489E0,2.783299747E0
9.781375458E0,1.180309596E0,2.424942073E0,1.375819438E0,3.027598706E0
9.791366458E0,1.120661564E0,2.566050297E0,1.575469108E0,3.212880231E0
9.801357458E0,1.195039317E0,2.728434492E0,1.775357198E0,3.467616894E0
9.811347458E0,1.343193728E0,2.982125883E0,2.007352788E0,3.837539497E0
9.821338458E0,1.560330666E0,3.256915198E0,2.130078828E0,4.192775240E0
9.831329458E0,1.714425849E0,3.482131234E0,2.141576647E0,4.432927301E0
9.841320458E0,1.805015591E0,3.604875693E0,2.067790194E0,4.530890236E0
9.851311458E0,1.977856947E0,3.663769141E0,2.006700093E0,4.621900874E0
9.861301458E0,2.169794725E0,3.679394071E0,1.958030355E0,4.698918253E0
9.871292458E0,2.305510939E0,3.712326466E0,1.857896348E0,4.748528964E0
9.881283458E0,2.478731779E0,3.760751352E0,1.703283687E0,4.815447776E0
9.891274458E0,2.631732947E0,3.778599393E0,1.552839506E0,4.859541358E0
9.901264458E0,2.761244096E0,3.773652649E0,1.527925397E0,4.919296626E0
9.911255458E0,2.860474269E0,3.748635921E0,1.502389583E0,4.948914909E0
9.921246458E0,3.021189669E0,3.662159695E0,1.332110623E0,4.930874097E0
9.931237458E0,3.321037812E0,3.557469977E0,1.110226039E0,4.991741844E0
9.941228458E0,3.688566890E0,3.489093806E0,9.126723030E-1,5.158708368E0
9.951218458E0,3.867388778E0,3.480067459E0,7.706491359E-1,5.259416847E0
9.961209458E0,3.680141637E0,3.448759128E0,6.420092221E-1,5.084246044E0
9.971200458E0,3.457805355E0,3.266595556E0,4.988389774E-1,4.782876198E0
9.981191458E0,3.306884626E0,3.021064539E0,4.843833447E-1,4.505212992E0
9.991182458E0,3.188292568E0,2.826323899E0,4.695768790E-1,4.286469261E0
1.000117246E1,3.163767006E0,2.638156698E0,4.664604592E-1,4.145705947E0
1.001116346E1,3.191018540E0,2.534729978E0,4.279015803E-1,4.097627990E0
1.002115446E1,3.240114686E0,2.458820840E0,3.714525604E-1,4.084375118E0
1.003114546E1,3.270412034E0,2.419379616E0,3.248173611E-1,4.080992394E0
1.004113646E1,3.268023446E0,2.427304348E0,2.947848921E-1,4.081504842E0
1.005112646E1,3.181966465E0,2.429005010E0,2.207850158E-1,4.009204653E0
1.006111746E1,3.454219843E0,1.935441245E0,-7.622079492E-2,3.960224380E0
1.007110846E1,3.757236006E0,1.318367620E0,-1.130911441E-1,3.983428824E0
1.008109946E1,3.952482723E0,1.194282103E0,1.419493461E-1,4.131413685E0
1.009108946E1,4.179497362E0,1.244930685E0,4.178535788E-1,4.380941934E0
1.010108046E1,4.448517230E0,1.458559586E0,5.457415406E-1,4.713229831E0
1.011107146E1,4.592356396E0,1.694644133E0,7.173435791E-1,4.947336436E0
1.012106246E1,4.545341274E0,1.918029406E0,1.007841439E0,5.035345913E0
1.013105346E1,4.496548598E0,1.884726882E0,1.170854795E0,5.014184446E0
1.014104346E1,4.314690835E0,1.713703133E0,1.341987594E0,4.832625181E0
1.015103446E1,3.876934358E0,1.639604000E0,1.580423015E0,4.496293829E0
1.016102546E1,3.254595900E0,1.635310390E0,1.818553065E0,4.071089510E0
1.017101646E1,2.658220249E0,1.673257650E0,2.020382577E0,3.734684969E0
1.018100746E1,2.228192621E0,1.646668606E0,2.110222561E0,3.482728688E0
1.019099746E1,1.917228338E0,1.534739450E0,2.134755431E0,3.253977632E0
1.020098846E1,1.674641393E0,1.287541099E0,1.966789337E0,2.886251232E0
1.021097946E1,1.304322608E0,9.174772525E-1,1.647364132E0,2.292777913E0
1.022097046E1,7.805775619E-1,5.562292528E-1,1.288241011E0,1.605695243E0
1.023096146E1,2.824304563E-1,2.407702142E-1,1.105923657E0,1.166535209E0
1.024095171E1,-1.164823830E-2,5.831515878E-2,1.239816856E0,1.241242190E0
1.025094271E1,-1.370078641E-1,-2.003840804E-2,1.741855137E0,1.747349997E0
1.026093371E1,-8.364909768E-2,-1.472068700E-1,2.309785838E0,2.315983085E0
1.027092471E1,2.133502811E-1,-2.625180557E-1,2.697915827E0,2.719040986E0
1.028091471E1,6.173730022E-1,-2.418078026E-1,2.839441835E0,2.915827562E0
1.029090571E1,7.173773468E-1,-8.317956626E-2,2.854770895E0,2.944701337E0
1.030089671E1,5.435174060E-1,-4.764603674E-3,2.801165961E0,2.853412801E0
1.031088771E1,2.032375216E-1,-1.479979983E-1,2.726285348E0,2.737853301E0
1.032087871E1,-9.783970535E-2,-3.299361598E-1,2.638427424E0,2.660776156E0
1.033086871E1,-3.215939373E-1,-4.884667477E-1,2.580219562E0,2.645667291E0
1.034085971E1,-3.737031537E-1,-6.231208152E-1,2.580309609E0,2.680658739E0
1.035085071E1,-3.664643008E-1,-7.635481310E-1,2.686451776E0,2.816793386E0
1.036084171E1,-2.710044122E-1,-1.015151774E0,2.729187906E0,2.924456042E0
1.037083271E1,-7.162839174E-2,-1.279653644E0,2.599247571E0,2.898056592E0
1.038082271E1,5.259862840E-2,-1.333431071E0,2.436703162E0,2.778187779E0
1.039081371E1,9.103763938E-2,-1.258381181E0,2.206951003E0,2.542133705E0
1.040080471E1,1.099428570E-1,-1.160697304E0,1.914225354E0,2.241330937E0
1.041079571E1,1.537730008E-1,-9.918259151E-1,1.661620814E0,1.941223457E0
1.042078671E1,8.961150348E-2,-8.482079199E-1,1.561220759E0,1.779015782E0
1.043077671E1,-1.157643449E-1,-7.947039963E-1,1.572862711E0,1.766027444E0
1.044076771E1,-2.782058430E-1,-8.575064546E-1,1.698701516E0,1.923097151E0
1.045075871E1,-3.000504559E-1,-1.139276322E0,1.807672712E0,2.157698183E0
1.046074971E1,-3.826850617E-1,-1.442674309E0,1.999078685E0,2.494809133E0
1.047073971E1,-5.933017695E-1,-1.699803132E0,2.263438614E0,2.892143156E0
1.048073071E1,-7.376543212E-1,-2.044230446E0,2.438339213E0,3.266268534E0
1.049072171E1,-9.097174126E-1,-2.375031555E0,2.575192126E0,3.619388781E0
1.050071271E1,-1.152086256E0,-2.644710258E0,2.705907801E0,3.955215812E0
1.051070371E1,-1.450132871E0,-2.957927766E0,2.707970991E0,4.264425976E0
1.052069371E1,-1.743708120E0,-3.408774698E0,2.655486091E0,4.659599696E0
1.053068471E1,-1.853968481E0,-3.825759819E0,2.555084721E0,4.960049924E0
1.054067571E1,-1.811729364E0,-4.146507664E0,2.379867057E0,5.112695601E0
1.055066671E1,-1.826747938E0,-4.451386458E0,2.199621956E0,5.290575222E0
1.056065771E1,-1.820086205E0,-4.768760460E0,1.964239805E0,5.469188983E0
1.057064771E1,-1.741709542E0,-4.957287557E0,1.754861538E0,5.539656222E0
1.058063871E1,-1.982323050E0,-5.034446830E0,1.676196899E0,5.664353061E0
1.059062971E1,-2.333179379E0,-5.112124166E0,1.610478873E0,5.845612175E0
1.060062071E1,-2.550849583E0,-5.195533528E0,1.495819652E0,5.978116648E0
1.061061171E1,-2.608970321E0,-5.313397608E0,1.339228878E0,6.068974729E0
1.062060171E1,-2.437739874E0,-5.352096235E0,1.185838577E0,5.999476888E0
1.063059271E1,-2.031943692E0,-5.275359131E0,1.043682386E0,5.748693943E0
1.064058371E1,-1.450291915E0,-4.947367170E0,9.686953533E-1,5.245775371E0
1.065057471E1,-1.126067315E0,-4.317765886E0,9.956209043E-1,4.571913257E0
1.066056571E1,-1.092430623E0,-3.701844748E0,1.003739032E0,3.988051059E0
1.067055571E1,-1.119686834E0,-3.437005055E0,9.405508040E-1,3.735149016E0
1.068054671E1,-1.183983402E0,-3.674040068E0,7.525227673E-1,3.932769715E0
1.069053771E1,-1.213238776E0,-3.978879393E0,4.829460990E-1,4.187680323E0
1.070052871E1,-1.134799547E0,-4.235459602E0,2.929633382E-1,4.394623484E0
1.071051871E1,-1.044811483E0,-4.387769921E0,2.108014798E-1,4.515372984E0
1.072050971E1,-8.338322479E-1,-4.349353130E0,1.777530169E-1,4.432126465E0
1.073050071E1,-4.137934184E-1,-4.008773868E0,2.805868292E-1,4.039829438E0
1.074049171E1,-4.671808362E-2,-3.292677354E0,3.814115381E-1,3.315023604E0
1.075048271E1,2.607133126E-1,-2.307312904E0,6.144581652E-1,2.401920712E0
1.076047271E1,4.968595487E-1,-1.250532025E0,8.836255284E-1,1.609811738E0
1.077046371E1,5.844233572E-1,-2.824063365E-1,9.870564875E-1,1.181348598E0
1.078045471E1,6.592086607E-1,5.484666355E-1,8.521460196E-1,1.208935295E0
1.079044571E1,7.494072247E-1,1.215926741E0,7.157029966E-1,1.597598137E0
1.080043671E1,8.111848122E-1,1.709306027E0,6.121591862E-1,1.988589138E0
1.081042671E1,7.424151242E-1,1.989763632E0,5.884202215E-1,2.203764481E0
1.082041771E1,6.363337684E-1,2.038439071E0,6.714588699E-1,2.238528876E0
1.083040871E1,5.423801225E-1,1.958741522E0,8.093002546E-1,2.187649755E0
1.084039971E1,5.336543226E-1,1.797665934E0,8.876877353E-1,2.074699800E0
1.085039071E1,7.261516786E-1,1.610244546E0,9.934626970E-1,2.026610936E0
1.086038071E1,9.348861676E-1,1.487572592E0,1.097688585E0,2.071667105E0
1.087037171E1,1.109455376E0,1.336604209E0,1.023046100E0,2.015942798E0
1.088036271E1,1.499139555E0,1.201994288E0,7.982398076E-1,2.080720179E0
1.089035371E1,1.710839167E0,1.143993709E0,6.128241608E-1,2.147381129E0
1.090034371E1,1.500747539E0,1.013055255E0,4.691111483E-1,1.870451655E0
1.091033471E1,1.161020801E0,8.125668016E-1,3.009643757E-1,1.448728292E0
1.092032571E1,8.644178635E-1,6.991536221E-1,2.900403151E-1,1.148981033E0
1.093031671E1,5.506486702E-1,6.930573151E-1,3.796746227E-1,9.631693616E-1
1.094030771E1,3.527250981E-1,7.671991324E-1,4.961961821E-1,9.793978532E-1
1.095029771E1,2.839571643E-1,9.374525106E-1,6.718671517E-1,1.187793901E0
1.096028871E1,3.003281987E-1,1.180867420E0,8.632555832E-1,1.493269933E0
1.097027971E1,4.234536034E-1,1.509771547E0,9.887149040E-1,1.853720648E0
1.098027071E1,6.036560190E-1,1.787828870E0,9.317945985E-1,2.104512731E0
1.099026171E1,5.871119070E-1,2.041749765E0,7.699264200E-1,2.259696702E0
1.100025171E1,3.661122984E-1,2.250742701E0,6.640424077E-1,2.375043840E0
1.101024271E1,1.514849854E-1,2.350945851E0,5.775857694E-1,2.425592591E0
1.102023371E1,1.335270166E-2,2.399563695E0,6.027029228E-1,2.474133188E0
1.103022471E1,-5.531816840E-2,2.425156665E0,6.534778047E-1,2.512265550E0
1.104021571E1,-7.166522920E-2,2.415541796E0,7.572014169E-1,2.532455737E0
1.105020571E1,-6.028830171E-2,2.382038420E0,8.804738791E-1,2.540270845E0
1.106019671E1,8.821284950E-2,2.429718078E0,9.418765140E-1,2.607382368E0
1.107018771E1,3.588746148E-1,2.535907023E0,8.952541785E-1,2.713133882E0
1.108017871E1,6.146429372E-1,2.622074809E0,7.924158347E-1,2.807309227E0
1.109016871E1,8.489052004E-1,2.663331593E0,6.538951497E-1,2.870810701E0
1.110015971E1,1.169693391E0,2.731187654E0,5.220370746E-1,3.016635765E0
1.111015071E1,1.387209814E0,2.826728818E0,3.693874700E-1,3.170361806E0
1.112014171E1,1.522207405E0,2.827399494E0,2.503989704E-1,3.220869902E0
1.113013271E1,1.643617821E0,2.754033602E0,1.996229191E-1,3.213414062E0
1.114012271E1,1.717285137E0,2.676366206E0,2.679885645E-1,3.191210144E0
1.115011371E1,1.788352781E0,2.604652153E0,3.282919228E-1,3.176506586E0
1.116010471E1,1.853431122E0,2.483232965E0,2.957871048E-1,3.112738809E0
1.117009571E1,1.885441119E0,2.333704458E0,2.266790092E-1,3.008728649E0
1.118008671E1,1.848152840E0,2.137219594E0,2.038774994E-1,2.832832954E0
1.119007671E1,1.835889475E0,1.844611766E0,2.237657802E-1,2.612116739E0
1.120006771E1,1.878944862E0,1.484221846E0,3.203351779E-1,2.415773770E0
1.121005871E1,2.016631588E0,1.142405021E0,4.775840561E-1,2.366427418E0
1.122004971E1,2.175551893E0,9.529730675E-1,6.206293166E-1,2.454865466E0
1.123004071E1,2.413513690E0,8.954654092E-1,6.730835187E-1,2.660817178E0
1.124003058E1,2.595431094E0,9.129187632E-1,6.255256288E-1,2.821518304E0
1.125002158E1,2.911568409E0,1.091589501E0,6.867439301E-1,3.184401901E0
1.126001258E1,3.300770193E0,1.371610319E0,7.518854208E-1,3.652633354E0
1.127000358E1,3.332022391E0,1.745207346E0,9.016922553E-1,3.867967272E0
1.127999358E1,3.018875341E0,2.060853788E0,9.227853549E-1,3.769915049E0
1.128998458E1,2.794494288E0,2.141440699E0,8.503276818E-1,3.621881246E0
1.129997558E1,2.962960757E0,1.879722835E0,7.960842316E-1,3.598089005E0
1.130996658E1,3.094954049E0,1.487515582E0,1.042640266E0,3.588668541E0
1.131995758E1,3.051768853E0,1.354943708E0,1.590464877E0,3.698478621E0
1.132994758E1,3.087497680E0,1.248824345E0,2.082294066E0,3.927868728E0
1.133993858E1,3.238621307E0,1.224698441E0,2.322818259E0,4.169417094E0
1.134992958E1,3.418402138E0,1.202032587E0,2.299517104E0,4.291635403E0
1.135992058E1,3.554749267E0,1.266553688E0,2.225024746E0,4.380768850E0
1.136991158E1,3.678315552E0,1.382843698E0,2.208385909E0,4.507685694E0
1.137990158E1,3.782489546E0,1.523585301E0,2.305847007E0,4.684599210E0
1.138989258E1,3.645197507E0,1.740023497E0,2.616320271E0,4.812512691E0
1.139988358E1,3.450381730E0,1.857366298E0,2.971690650E0,4.917915104E0
1.140987458E1,3.251275851E0,1.843120142E0,3.260572339E0,4.959759923E0
1.141986558E1,2.979791383E0,1.673922771E0,3.361706074E0,4.793979751E0
1.142985558E1,2.766162189E0,1.456636144E0,3.374479609E0,4.600060298E0
1.143984658E1,2.514424937E0,1.315582591E0,3.497284001E0,4.503785708E0
1.144983758E1,2.265476223E0,1.202112694E0,3.630183027E0,4.444736916E0
1.145982858E1,2.095861360E0,1.013810423E0,3.667070771E0,4.343714362E0
1.146981858E1,1.986609060E0,8.409728676E-1,3.647594866E0,4.237782347E0
1.147980958E1,1.902952945E0,7.456050727E-1,3.601201887E0,4.140750158E0
1.148980058E1,1.809594546E0,6.309715793E-1,3.490262665E0,3.981794950E0
1.149979158E1,1.817840289E0,4.538108853E-1,3.328884190E0,3.819942093E0
1.150978258E1,1.954640577E0,1.630630571E-1,3.163316771E0,3.722066945E0
1.151977258E1,2.127408843E0,-1.648429495E-1,3.088594033E0,3.753991833E0
1.152976358E1,2.073748945E0,-3.970984483E-1,3.138878918E0,3.782946302E0
1.153975458E1,1.919437416E0,-6.203784710E-1,3.166999347E0,3.754862754E0
1.154974558E1,1.650792355E0,-8.594518232E-1,3.219358824E0,3.718607814E0
1.155973658E1,1.385400100E0,-1.118922895E0,3.259759576E0,3.714479018E0
1.156972658E1,1.101896095E0,-1.318030820E0,3.325863811E0,3.743360835E0
1.157971758E1,7.438886225E-1,-1.580602524E0,3.325851824E0,3.756722638E0
1.158970858E1,4.404327482E-1,-1.886043528E0,3.315402850E0,3.839666295E0
1.159969958E1,1.148551029E-1,-2.107521293E0,3.269646341E0,3.891712334E0
1.160969058E1,-1.666567558E-1,-2.218110121E0,3.174608914E0,3.876329287E0
1.161968058E1,-4.535457140E-1,-2.275598191E0,2.976109976E0,3.773762238E0
1.162967158E1,-7.520905119E-1,-2.325325252E0,2.720089638E0,3.656728771E0
1.163966258E1,-1.079611187E0,-2.362808390E0,2.482559659E0,3.593261229E0
1.164965358E1,-1.344336274E0,-2.371692649E0,2.270130314E0,3.547627050E0
1.165964358E1,-1.515804704E0,-2.410075527E0,2.040003640E0,3.502533768E0
1.166963458E1,-1.528911238E0,-2.379568995E0,1.814595962E0,3.360457808E0
1.167962558E1,-1.295847654E0,-2.280982600E0,1.589828407E0,3.067516443E0
1.168961658E1,-9.149512553E-1,-2.208511186E0,1.361978201E0,2.751298253E0
1.169960758E1,-7.602479625E-1,-2.260267377E0,1.143018686E0,2.644480534E0
1.170959758E1,-7.189444005E-1,-2.367106678E0,9.236437261E-1,2.640680368E0
1.171958858E1,-6.680905813E-1,-2.436777276E0,7.182535520E-1,2.626807317E0
1.172957958E1,-5.286146075E-1,-2.480779766E0,5.436287954E-1,2.594076699E0
1.173957058E1,-2.631966251E-1,-2.591420488E0,5.941376290E-1,2.671653446E0
1.174956158E1,-2.230443799E-1,-2.838391090E0,9.373601246E-1,2.997475067E0
1.175955158E1,-6.398777658E-1,-3.313607755E0,1.341337530E0,3.631614830E0
1.176954258E1,-1.223051573E0,-4.052630324E0,1.618792590E0,4.532125014E0
1.177953358E1,-1.756158012E0,-4.712926567E0,1.956139219E0,5.396503352E0
1.178952458E1,-2.235219221E0,-5.242969649E0,2.467931972E0,6.210927783E0
1.179951558E1,-2.616337228E0,-5.678055119E0,2.851869507E0,6.871585706E0
1.180950558E1,-2.842950164E0,-5.917974563E0,3.026317970E0,7.229342226E0
1.181949658E1,-2.825276370E0,-6.060916182E0,3.027429818E0,7.340451133E0
1.182948758E1,-2.610920953E0,-6.139833128E0,2.794276772E0,7.233425311E0
1.183947858E1,-2.200661007E0,-5.994768385E0,2.422706097E0,6.830055761E0
1.184946858E1,-2.008325619E0,-5.685905591E0,2.096011488E0,6.384055007E0
1.185945958E1,-2.107893761E0,-5.384696801E0,1.788990858E0,6.052988026E0
1.186945058E1,-2.212653061E0,-5.226906763E0,1.500743007E0,5.870997995E0
1.187944158E1,-2.303934529E0,-4.978098382E0,1.381825844E0,5.656767670E0
1.188943258E1,-2.288313108E0,-4.617774242E0,1.278425875E0,5.309857677E0
1.189942258E1,-2.124285845E0,-4.608178961E0,9.414438200E-1,5.160835219E0
1.190941358E1,-1.934551883E0,-4.910832013E0,4.862544537E-1,5.300491057E0
1.191940458E1,-1.697390571E0,-5.261884807E0,-3.656950995E-2,5.529005680E0
1.192939558E1,-1.428106409E0,-5.595243343E0,-6.827147600E-1,5.814837523E0
1.193938658E1,-1.008057055E0,-5.685064761E0,-1.258731137E0,5.909360747E0
1.194937658E1,-4.139688349E-1,-5.381715891E0,-1.479509136E0,5.596711839E0
1.195936758E1,1.974341601E-1,-4.544841044E0,-9.318510242E-1,4.643587697E0
1.196935858E1,2.952457988E-1,-3.650460294E0,5.038560346E-2,3.662727009E0
1.197934958E1,2.102477485E-1,-3.012627299E0,1.046161751E0,3.196025934E0
1.198934058E1,1.196831489E-1,-2.428181722E0,1.912327348E0,3.093119205E0
1.199933058E1,-5.225188851E-2,-1.736087298E0,2.466613132E0,3.016771405E0
1.200932158E1,-5.223960936E-2,-1.053695889E0,2.683786907E0,2.883698349E0
1.201931258E1,5.213260531E-2,-5.348020580E-1,2.528393351E0,2.584860535E0
1.202930358E1,8.531906247E-2,-7.938801236E-2,2.206074066E0,2.209150195E0
1.203929358E1,2.765733004E-3,2.848753233E-1,1.761032981E0,1.783927902E0
1.204928458E1,-1.492425781E-1,5.610514516E-1,1.305037869E0,1.428347268E0
1.205927558E1,-2.020242244E-1,6.489659469E-1,8.570544648E-1,1.093852341E0
1.206926658E1,-5.560643613E-2,6.262407432E-1,3.989192712E-1,7.445845346E-1
1.207925758E1,1.180465132E-1,6.254355817E-1,-1.810181022E-2,6.367356764E-1
1.208924758E1,2.852716184E-1,5.782776412E-1,-4.039255111E-1,7.608815579E-1
1.209923858E1,3.430777770E-1,4.628806476E-1,-7.228013702E-1,9.243390481E-1
1.210922958E1,2.605788267E-1,3.381816110E-1,-9.970448475E-1,1.084604331E0
1.211922058E1,1.669315749E-1,2.405958210E-1,-1.178831274E0,1.214658665E0
1.212921158E1,4.377401054E-2,1.165420246E-1,-1.233829161E0,1.240093789E0
1.213920158E1,-3.055053234E-2,3.620654404E-2,-1.238116047E0,1.239022032E0
1.214919258E1,-2.309123933E-2,-2.679866642E-2,-1.159194277E0,1.159733912E0
1.215918358E1,7.292413473E-2,-1.620292693E-2,-9.695233190E-1,9.723970024E-1
1.216917458E1,2.211440349E-1,1.595161361E-1,-6.396620035E-1,6.953542698E-1
1.217916558E1,3.609901375E-1,4.414530873E-1,-2.537222354E-1,6.241551733E-1
1.218915558E1,5.851355481E-1,7.459062043E-1,-3.332693651E-2,9.486149693E-1
1.219914658E1,6.720204949E-1,1.072474076E0,3.881484076E-2,1.266222248E0
1.220913758E1,7.173276454E-1,1.332778668E0,6.155013084E-2,1.514809013E0
1.221912858E1,8.936235362E-1,1.554095488E0,1.490069354E-1,1.798882675E0
1.222911858E1,9.145916516E-1,1.803180150E0,3.246173863E-1,2.047758040E0
1.223910908E1,8.832985228E-1,2.012319852E0,4.386299054E-1,2.240991669E0
1.224910008E1,9.065505606E-1,2.172328615E0,5.603481777E-1,2.419676758E0
1.225909108E1,9.302773923E-1,2.320133363E0,7.164300978E-1,2.600328236E0
1.226908208E1,9.756096858E-1,2.437888393E0,7.640289183E-1,2.734749397E0
1.227907208E1,9.921140367E-1,2.555690785E0,7.016695328E-1,2.829873810E0
1.228906308E1,1.163089546E0,2.632812051E0,5.042089140E-1,2.922105956E0
1.229905408E1,1.439560520E0,2.670023439E0,3.329381204E-1,3.051590970E0
1.230904508E1,1.724491246E0,2.755402728E0,2.074289520E-1,3.257167637E0
1.231903608E1,1.897844818E0,2.922636896E0,9.575283408E-2,3.486085195E0
1.232902608E1,1.995258846E0,3.001465842E0,-3.741530970E-2,3.604338353E0
1.233901708E1,1.967548891E0,2.993359846E0,-1.469032533E-1,3.585112603E0
1.234900808E1,1.876116564E0,2.957908470E0,-1.758281136E-1,3.507128656E0
1.235899908E1,1.823401576E0,2.907303742E0,-1.798590378E-1,3.436503693E0
1.236898908E1,1.872282545E0,2.810238793E0,-2.119731157E-1,3.383462222E0
1.237898008E1,1.980258983E0,2.758812824E0,-2.420909540E-1,3.404567795E0
1.238897108E1,1.990203343E0,2.635095096E0,-2.863451672E-1,3.314608434E0
1.239896208E1,2.057954446E0,2.368755885E0,-3.238552018E-1,3.154530573E0
1.240895308E1,2.128769490E0,2.062897682E0,-3.499453318E-1,2.984906720E0
1.241894308E1,2.310826058E0,1.833043343E0,-3.689522910E-1,2.972556267E0
1.242893408E1,2.430263039E0,1.589082303E0,-3.629366755E-1,2.926274771E0
1.243892508E1,2.460615351E0,1.333943433E0,-3.219501789E-1,2.817389732E0
1.244891608E1,2.522145016E0,1.101458431E0,-2.416258080E-1,2.762753914E0
1.245890708E1,2.606396377E0,1.046384676E0,-9.521854475E-2,2.810211653E0
1.246889708E1,2.832228125E0,1.190794238E0,5.813652635E-2,3.072928070E0
1.247888808E1,3.074511598E0,1.465761309E0,9.000984505E-2,3.407224612E0
1.248887908E1,3.187998453E0,1.877765479E0,2.973338395E-2,3.700029919E0
1.249887008E1,3.296290641E0,2.342886926E0,9.767554477E-2,4.045267809E0
1.250886108E1,3.483850023E0,2.833075386E0,1.709608912E-1,4.493634916E0
1.251885108E1,4.046596583E0,3.040980155E0,1.566854990E-1,5.064292108E0
1.252884208E1,4.705094222E0,2.709701767E0,3.341704211E-1,5.439858930E0
1.253883308E1,4.655895165E0,2.635360852E0,5.768406880E-1,5.381006577E0
1.254882408E1,4.423091197E0,2.628799984E0,8.586425686E-1,5.216473153E0
1.255881408E1,4.185791890E0,2.428553021E0,1.098683635E0,4.962441864E0
1.256880508E1,4.071977007E0,2.142259601E0,1.454126811E0,4.825428243E0
1.257879608E1,3.931437424E0,1.909374942E0,2.093794370E0,4.846224072E0
1.258878708E1,3.812663518E0,1.675866385E0,2.769449494E0,5.001477955E0
1.259877808E1,3.840641275E0,1.730344016E0,3.379728069E0,5.400664555E0
1.260876808E1,3.743331327E0,2.139804356E0,3.774875886E0,5.730705023E0
1.261875908E1,3.475132994E0,2.725109765E0,3.767840517E0,5.805117976E0
1.262875008E1,3.347833262E0,2.947569424E0,3.276715625E0,5.534710321E0
1.263874108E1,3.045215878E0,2.791347609E0,2.769434291E0,4.973402006E0
1.264873208E1,2.527263084E0,2.504836673E0,2.427872843E0,4.307648082E0
1.265872208E1,1.956199445E0,2.158844351E0,2.357211581E0,3.747502053E0
1.266871308E1,1.519807123E0,1.803790600E0,2.504046714E0,3.440018047E0
1.267870408E1,1.240573339E0,1.414412523E0,2.863103178E0,3.425922474E0
1.268869508E1,1.233777705E0,9.947452837E-1,3.264661882E0,3.629014027E0
1.269868608E1,1.354278295E0,5.175747719E-1,3.530220197E0,3.816334365E0
1.270867608E1,1.475539023E0,1.786075875E-1,3.667191224E0,3.956944219E0
1.271866708E1,1.460532728E0,1.631899416E-2,3.691431441E0,3.969897763E0
1.272865808E1,1.323583921E0,-7.961451888E-2,3.492950045E0,3.736162856E0
1.273864908E1,1.331553091E0,-1.039977005E-1,3.166995839E0,3.437108058E0
1.274863908E1,1.497543265E0,-1.619971097E-1,2.893067819E0,3.261705121E0
1.275863008E1,1.672468568E0,-2.394776872E-1,2.714111445E0,3.197014484E0
1.276862108E1,1.728221769E0,-3.484759265E-1,2.673853658E0,3.202761205E0
1.277861208E1,1.455799992E0,-6.367867814E-1,2.675924449E0,3.112141173E0
1.278860308E1,1.004794893E0,-1.028660450E0,2.573131567E0,2.947670464E0
1.279859308E1,5.387840849E-1,-1.345431312E0,2.431026685E0,2.830258725E0
1.280858408E1,1.153620565E-1,-1.552669498E0,2.322266281E0,2.795891925E0
1.281857508E1,-1.092178023E-1,-1.729100752E0,2.199958902E0,2.800274471E0
1.282856608E1,-2.940132058E-1,-1.843608238E0,2.012127624E0,2.744811957E0
1.283855708E1,-4.314520097E-1,-1.903548338E0,1.751796866E0,2.622677901E0
1.284854708E1,-5.647796363E-1,-1.955326748E0,1.513675733E0,2.536433116E0
1.285853808E1,-7.794923186E-1,-2.019741284E0,1.393055714E0,2.574406213E0
1.286852908E1,-1.038200621E0,-2.087424998E0,1.400046791E0,2.719436461E0
1.287852008E1,-1.194586743E0,-2.211439472E0,1.471950002E0,2.912754509E0
1.288851008E1,-1.259714785E0,-2.337585402E0,1.559961268E0,3.079718495E0
1.289850108E1,-1.285417975E0,-2.434432396E0,1.588780733E0,3.178519259E0
1.290849208E1,-1.299897435E0,-2.533648536E0,1.583457574E0,3.258288835E0
1.291848308E1,-1.320106582E0,-2.689175994E0,1.587616113E0,3.390409096E0
1.292847408E1,-1.349863647E0,-2.890313196E0,1.604940098E0,3.570976750E0
1.293846408E1,-1.434971625E0,-3.117235449E0,1.609752502E0,3.790462179E0
1.294845508E1,-1.641062588E0,-3.403998107E0,1.627771428E0,4.114599538E0
1.295844608E1,-1.858519369E0,-3.780575752E0,1.570393871E0,4.495885249E0
1.296843708E1,-1.989891102E0,-4.153690091E0,1.478285168E0,4.837161875E0
1.297842808E1,-2.083420240E0,-4.359270008E0,1.502453756E0,5.059767009E0
1.298841808E1,-2.172091511E0,-4.467908351E0,1.530246596E0,5.198253669E0
1.299840908E1,-2.226240236E0,-4.513494413E0,1.559465132E0,5.268748325E0
1.300840008E1,-2.220324023E0,-4.545525168E0,1.601580580E0,5.306288550E0
1.301839108E1,-2.223422463E0,-4.590744903E0,1.644080336E0,5.359248675E0
1.302838208E1,-2.101279975E0,-4.696189789E0,1.693836341E0,5.416517112E0
1.303837208E1,-1.827670044E0,-4.826558725E0,1.756882774E0,5.451851428E0
1.304836308E1,-1.518597919E0,-4.858976273E0,1.758379076E0,5.385878484E0
1.305835408E1,-1.438289335E0,-4.878253081E0,1.721897567E0,5.369446952E0
1.306834508E1,-1.380172105E0,-4.976089278E0,1.689094833E0,5.433174109E0
1.307833508E1,-1.515604729E0,-5.100128018E0,1.649128822E0,5.570277315E0
1.308832608E1,-1.741155226E0,-5.170293437E0,1.568942446E0,5.676718783E0
1.309831708E1,-2.008870579E0,-5.183826817E0,1.451383882E0,5.745792952E0
1.310830808E1,-2.246351150E0,-5.089301898E0,1.265643861E0,5.705167980E0
1.311829908E1,-2.373707015E0,-4.866518889E0,1.155781696E0,5.536544267E0
1.312828908E1,-2.125203273E0,-4.607873444E0,1.041000853E0,5.180026004E0
1.313828008E1,-1.412363951E0,-4.772598280E0,8.281341362E-1,5.045619131E0
1.314827108E1,-9.046601558E-1,-5.004793260E0,6.041623878E-1,5.121657716E0
1.315826208E1,-5.569806200E-1,-5.065677978E0,5.540540886E-1,5.126236116E0
1.316825308E1,-3.980948138E-1,-4.985523761E0,5.853437090E-1,5.035529159E0
1.317824308E1,-1.984895825E-1,-4.827370026E0,5.334275968E-1,4.860806979E0
1.318823408E1,-9.017985284E-2,-4.562590852E0,5.107262206E-1,4.591972230E0
1.319822508E1,2.708664179E-2,-4.134285814E0,5.888592012E-1,4.176099620E0
1.320821608E1,2.196734601E-1,-3.528277168E0,8.042377353E-1,3.625437151E0
1.321820708E1,5.195566857E-1,-2.768110482E0,9.753199562E-1,2.980540858E0
1.322819708E1,7.486745685E-1,-1.878093654E0,1.055444352E0,2.280726236E0
1.323818871E1,8.828751844E-1,-9.632771771E-1,1.152719801E0,1.742450703E0
1.324817971E1,1.009934596E0,-1.511799069E-1,1.219155135E0,1.590334083E0
1.325817071E1,1.045093319E0,5.375624554E-1,1.245535287E0,1.712469442E0
1.326816071E1,1.038425739E0,1.062967819E0,1.188681639E0,1.902943152E0
1.327815171E1,1.113746063E0,1.411533207E0,9.585776237E-1,2.037578796E0
1.328814271E1,1.057111101E0,1.692528465E0,7.174942911E-1,2.120597685E0
1.329813371E1,9.473647106E-1,1.787107324E0,4.878084974E-1,2.080675278E0
1.330812471E1,8.576964891E-1,1.572898964E0,2.391686618E-1,1.807444624E0
1.331811471E1,7.286455160E-1,1.279665484E0,9.969502687E-3,1.472605660E0
1.332810571E1,6.102212727E-1,1.022046518E0,-2.644531918E-1,1.219378767E0
1.333809671E1,6.217595834E-1,7.818879229E-1,-5.315971260E-1,1.131604705E0
1.334808771E1,6.821782780E-1,5.230875269E-1,-7.089759211E-1,1.114286597E0
1.335807871E1,7.155834210E-1,3.620727494E-1,-8.164091532E-1,1.144412606E0
1.336806871E1,8.170203334E-1,2.765735927E-1,-8.864415474E-1,1.236848331E0
1.337805971E1,8.466148460E-1,2.917558882E-1,-8.253881375E-1,1.217843904E0
1.338805071E1,7.512771642E-1,4.737177309E-1,-6.032889600E-1,1.073677529E0
1.339804171E1,6.460342991E-1,7.935598424E-1,-4.067463541E-1,1.101154002E0
1.340803271E1,4.399673098E-1,1.121464095E0,-1.902262974E-1,1.219606081E0
1.341802271E1,2.377688384E-1,1.391565405E0,6.007297799E-2,1.413009929E0
1.342801371E1,1.649002522E-1,1.641836467E0,3.070526429E-1,1.678421998E0
1.343800471E1,1.948900366E-1,1.849167624E0,5.525373209E-1,1.939768162E0
1.344799571E1,2.550543773E-1,2.011098661E0,7.854843991E-1,2.174064465E0
1.345798571E1,2.370607406E-1,2.118585102E0,9.036121885E-1,2.315408305E0
1.346797671E1,1.603341615E-1,2.197155308E0,1.013291921E0,2.424862679E0
1.347796771E1,7.972503126E-2,2.237156111E0,1.156127997E0,2.519495086E0
1.348795871E1,6.966489673E-2,2.258081541E0,1.246350242E0,2.580150068E0
1.349794971E1,1.797486717E-1,2.336412889E0,1.335328639E0,2.697079410E0
1.350793971E1,3.470842892E-1,2.462113407E0,1.384907180E0,2.846126812E0
1.351793071E1,5.611596251E-1,2.545635036E0,1.314676273E0,2.919508788E0
1.352792171E1,8.139470369E-1,2.645605174E0,1.156720759E0,2.999956571E0
1.353791271E1,1.008231302E0,2.770723602E0,9.818666451E-1,3.107652128E0
1.354790371E1,1.082625427E0,2.846559066E0,7.990104707E-1,3.148554281E0
1.355789371E1,1.093771974E0,2.899428712E0,5.637921877E-1,3.149743739E0
1.356788471E1,1.096664591E0,2.949881997E0,3.615498622E-1,3.167837642E0
1.357787571E1,1.127518594E0,3.004586793E0,2.251178026E-1,3.217066677E0
1.358786671E1,1.260457966E0,3.037879377E0,1.568949755E-1,3.292731606E0
1.359785671E1,1.400985269E0,3.096210031E0,9.920985416E-2,3.399870420E0
1.360784771E1,1.519967337E0,3.033962912E0,-8.950815395E-2,3.394590309E0
1.361783871E1,1.627917463E0,2.891246119E0,-3.572566903E-1,3.337222157E0
1.362782971E1,1.731511998E0,2.714096242E0,-5.888765236E-1,3.272801211E0
1.363782071E1,1.847178694E0,2.476461597E0,-7.759698828E-1,3.185445091E0
1.364781071E1,1.942314647E0,2.197891181E0,-9.111529040E-1,3.071402195E0
1.365780171E1,2.019570399E0,1.926807246E0,-1.032524656E0,2.976131369E0
1.366779271E1,1.942804644E0,1.699110237E0,-1.112916927E0,2.810702682E0
1.367778371E1,1.946191351E0,1.479346730E0,-1.042094282E0,2.657458939E0
1.368777471E1,2.081166138E0,1.266228290E0,-7.756308174E-1,2.556597298E0
1.369776471E1,2.263611546E0,1.132363890E0,-4.233957160E-1,2.566212996E0
1.370775571E1,2.373490668E0,1.045961338E0,-9.968567133E-2,2.595656045E0
1.371774671E1,2.446218336E0,1.053893963E0,1.381077985E-1,2.667161487E0
1.372773771E1,2.412068843E0,1.141808312E0,2.407404665E-1,2.679507099E0
1.373772871E1,2.416272991E0,1.267415275E0,1.653768003E-1,2.733508027E0
1.374771871E1,2.419486036E0,1.447647512E0,5.885090992E-2,2.820116917E0
1.375770971E1,2.319405677E0,1.681987250E0,3.847921059E-2,2.865345434E0
1.376770071E1,2.148085182E0,1.882731812E0,1.454540209E-1,2.860088442E0
1.377769171E1,1.924943739E0,2.045872637E0,3.068152459E-1,2.825798796E0
1.378768171E1,2.145307170E0,1.744902706E0,2.354183308E-1,2.775328827E0
1.379767271E1,2.543855143E0,1.149983304E0,3.570764498E-1,2.814456285E0
1.380766371E1,2.649766345E0,9.799588448E-1,7.493896830E-1,2.922869466E0
1.381765471E1,2.751856976E0,9.811037296E-1,9.351393521E-1,3.067534344E0
1.382764571E1,3.037350204E0,9.835458192E-1,7.439552808E-1,3.278159255E0
1.383763571E1,3.435264924E0,9.400542292E-1,5.275990192E-1,3.600431609E0
1.384762671E1,3.750819857E0,1.152670977E0,5.742329029E-1,3.965733653E0
1.385761771E1,3.929942876E0,1.536098050E0,7.571384132E-1,4.286876113E0
1.386760871E1,4.124300816E0,2.052435259E0,8.532164986E-1,4.685117513E0
1.387759971E1,4.241968430E0,2.602505932E0,9.336857343E-1,5.063506921E0
1.388758971E1,4.043137370E0,3.019635479E0,9.598448615E-1,5.136775290E0
1.389758071E1,3.708507650E0,3.054465589E0,9.645812523E-1,4.900327134E0
1.390757171E1,3.325684009E0,2.793031899E0,1.219612241E0,4.510948386E0
1.391756271E1,2.905948066E0,2.503698220E0,1.723978153E0,4.205370329E0
1.392755271E1,2.579230798E0,2.320022266E0,2.252690116E0,4.136368889E0
1.393754371E1,2.426238985E0,2.191156065E0,2.649509068E0,4.208051665E0
1.394753471E1,2.467501032E0,2.030670168E0,2.871850612E0,4.296476302E0
1.395752571E1,2.566196769E0,1.854130156E0,2.978873370E0,4.347050845E0
1.396751671E1,2.814641454E0,1.634047391E0,3.025732956E0,4.443802124E0
1.397750671E1,3.181081197E0,1.383916662E0,2.980641568E0,4.573699494E0
1.398749771E1,3.465925968E0,1.097486125E0,2.868427652E0,4.630874195E0
1.399748871E1,3.491637930E0,7.673616850E-1,2.792100438E0,4.536100114E0
1.400747971E1,3.039360477E0,3.388446853E-1,2.758563148E0,4.118518965E0
1.401747071E1,2.330239983E0,-1.642360085E-1,2.725830435E0,3.589866767E0
1.402746071E1,1.672304846E0,-6.407191801E-1,2.749605213E0,3.281379801E0
1.403745171E1,1.159747277E0,-9.822769734E-1,2.823499986E0,3.206561082E0
1.404744271E1,8.452676475E-1,-1.230744901E0,2.834713776E0,3.203874623E0
1.405743371E1,6.443327594E-1,-1.510371179E0,2.777185360E0,3.226320556E0
1.406742471E1,4.453847551E-1,-1.743222070E0,2.559637363E0,3.128727249E0
1.407741471E1,2.197564906E-1,-1.890110852E0,2.259507970E0,2.954012223E0
1.408740571E1,-5.440190971E-2,-1.984649804E0,1.922833478E0,2.763889107E0
1.409739671E1,-2.927847058E-1,-2.055120593E0,1.598442964E0,2.619973940E0
1.410738771E1,-5.743129367E-1,-2.098204778E0,1.374266709E0,2.573112440E0
1.411737771E1,-8.349490660E-1,-2.162475472E0,1.279052842E0,2.647530224E0
1.412736871E1,-1.024955508E0,-2.271532330E0,1.243853627E0,2.785240522E0
1.413735971E1,-1.145500537E0,-2.290784434E0,1.264494299E0,2.856363183E0
1.414735071E1,-1.425982116E0,-2.346911126E0,1.352963841E0,3.061360479E0
1.415734171E1,-1.671100320E0,-2.539653334E0,1.420657057E0,3.355693938E0
1.416733171E1,-1.816890117E0,-2.788747352E0,1.488917306E0,3.646241385E0
1.417732271E1,-1.911164775E0,-2.985571648E0,1.625579600E0,3.899833060E0
1.418731371E1,-2.028607855E0,-3.149952375E0,1.797976713E0,4.155739411E0
1.419730471E1,-2.158461066E0,-3.321019101E0,1.924538380E0,4.403631458E0
1.420729571E1,-2.342570592E0,-3.443787825E0,2.040782343E0,4.638114286E0
1.421728571E1,-2.489477207E0,-3.578835995E0,2.077152171E0,4.829091528E0
1.422727671E1,-2.552620119E0,-3.796848553E0,2.137051048E0,5.049645096E0
1.423726771E1,-2.453826149E0,-4.137140425E0,2.127840660E0,5.259743295E0
1.424725896E1,-2.288107871E0,-4.455621597E0,2.096808317E0,5.429972980E0
1.425724896E1,-2.282113305E0,-4.734506886E0,2.029041280E0,5.633880111E0
1.426723996E1,-2.430529087E0,-5.060934716E0,1.924030988E0,5.934848531E0
1.427723096E1,-2.493117684E0,-5.377893566E0,1.807730161E0,6.197198022E0
1.428722196E1,-2.532018625E0,-5.686451136E0,1.682406788E0,6.448049119E0
1.429721296E1,-2.652295266E0,-5.830904260E0,1.577651581E0,6.597203891E0
1.430720296E1,-2.602018567E0,-5.973230166E0,1.425559362E0,6.669497638E0
1.431719396E1,-2.536292354E0,-5.993487260E0,1.292348095E0,6.635121103E0
1.432718496E1,-2.441404324E0,-5.930654250E0,1.169509058E0,6.519268851E0
1.433717596E1,-2.470598887E0,-5.792791523E0,1.057085666E0,6.385743700E0
1.434716696E1,-2.634801566E0,-5.635241806E0,9.748410693E-1,6.296701090E0
1.435715696E1,-2.868749249E0,-5.461324562E0,8.883768296E-1,6.232575842E0
1.436714796E1,-3.130472376E0,-5.284178486E0,8.073380752E-1,6.194690819E0
1.437713896E1,-3.196724253E0,-5.031746585E0,8.085238905E-1,6.015914771E0
1.438712996E1,-2.951465716E0,-4.681814702E0,8.985264266E-1,5.606950019E0
1.439711996E1,-2.163078613E0,-4.337592917E0,9.270785268E-1,4.934885611E0
1.440711096E1,-1.152143558E0,-4.402675351E0,7.790746813E-1,4.617135734E0
1.441710196E1,-6.736770111E-1,-4.638067004E0,5.111026351E-1,4.714523534E0
1.442709296E1,-5.079844612E-1,-4.873488770E0,2.937185061E-1,4.908687357E0
1.443708396E1,-4.173444325E-1,-4.940358113E0,3.156305082E-1,4.967991272E0
1.444707396E1,-3.842877835E-1,-4.889030377E0,3.000789611E-1,4.913282254E0
1.445706496E1,-2.004536623E-1,-4.637051050E0,3.821424401E-1,4.657086746E0
1.446705596E1,1.713450533E-1,-4.087415995E0,6.191055322E-1,4.137586290E0
1.447704696E1,5.770424169E-1,-3.272350093E0,9.612259738E-1,3.459076243E0
1.448703796E1,9.902306485E-1,-2.284914706E0,1.188323936E0,2.759258185E0
1.449702796E1,1.447209848E0,-1.351125769E0,1.357418250E0,2.400529419E0
1.450701896E1,2.022762394E0,-5.959388638E-1,1.444657392E0,2.556119287E0
1.451700996E1,2.365784622E0,3.266517788E-2,1.447954052E0,2.773909665E0
1.452700096E1,2.472081156E0,5.584943180E-1,1.323880814E0,2.859328864E0
1.453699196E1,2.419361490E0,9.809550641E-1,1.076906119E0,2.824059073E0
1.454698196E1,2.304049720E0,1.312075431E0,7.591229582E-1,2.757980187E0
1.455697296E1,2.217962918E0,1.500261050E0,4.709886892E-1,2.718818322E0
1.456696396E1,2.303487217E0,1.630813004E0,2.370075309E-1,2.832274172E0
1.457695496E1,2.409915313E0,1.724001834E0,6.351128697E-2,2.963765818E0
1.458694496E1,2.400515914E0,1.690545235E0,-7.799001619E-2,2.937090787E0
1.459693596E1,2.362739393E0,1.554071807E0,-2.513659537E-1,2.839165627E0
1.460692696E1,2.235617416E0,1.365245917E0,-3.929504335E-1,2.648828361E0
1.461691796E1,2.118193631E0,1.192049343E0,-5.105354552E-1,2.483620814E0
1.462690896E1,1.915123925E0,1.057875625E0,-5.008735161E-1,2.244476501E0
1.463689896E1,1.638188097E0,9.422785100E-1,-4.422588336E-1,1.940912648E0
1.464688996E1,1.399246892E0,8.614343217E-1,-3.786727023E-1,1.686224769E0
1.465688096E1,1.229501052E0,8.123311588E-1,-3.191715820E-1,1.507788197E0
1.466687196E1,1.159297627E0,9.064821482E-1,-2.125031658E-1,1.486888855E0
1.467686196E1,1.060854489E0,1.193336023E0,2.492565706E-2,1.596898368E0
1.468685296E1,7.540066445E-1,1.479098515E0,2.912229145E-1,1.685547159E0
1.469684396E1,4.723281401E-1,1.614763859E0,4.300428307E-1,1.736517500E0
1.470683496E1,2.799114758E-1,1.731277524E0,5.375497377E-1,1.834293330E0
1.471682596E1,5.917148352E-2,1.897340203E0,6.832133082E-1,2.017469091E0
1.472681596E1,-1.382521516E-1,2.040021328E0,8.089576077E-1,2.198911796E0
1.473680696E1,-2.144787937E-1,2.142928815E0,8.802244954E-1,2.326572634E0
1.474679796E1,-2.852745420E-1,2.263221244E0,9.098944370E-1,2.455903062E0
1.475678896E1,-3.248297864E-1,2.346947232E0,8.722678236E-1,2.524782537E0
1.476677996E1,-2.792530793E-1,2.421663831E0,7.504657169E-1,2.550614982E0
1.477676996E1,-2.098752809E-1,2.536243530E0,5.515059451E-1,2.603984963E0
1.478676096E1,-9.824901044E-2,2.621441263E0,2.546323545E-1,2.635610897E0
1.479675196E1,9.231584072E-3,2.679101241E0,-2.736423835E-3,2.679118544E0
1.480674296E1,1.193358243E-2,2.719559003E0,-2.020972415E-1,2.727083951E0
1.481673396E1,6.984382153E-2,2.711322908E0,-4.404437848E-1,2.747751953E0
1.482672396E1,2.210446322E-1,2.728146517E0,-6.508862456E-1,2.813413772E0
1.483671496E1,4.073433548E-1,2.753033436E0,-7.986980832E-1,2.895348051E0
1.484670596E1,6.351625711E-1,2.701644304E0,-9.250598487E-1,2.925414357E0
1.485669696E1,8.424054354E-1,2.609962009E0,-1.051750447E0,2.937299374E0
1.486668696E1,1.021236679E0,2.528249802E0,-1.146253000E0,2.957848433E0
1.487667796E1,1.172754409E0,2.438389499E0,-1.219223986E0,2.967760668E0
1.488666896E1,1.369633083E0,2.317284015E0,-1.277038915E0,2.979350329E0
1.489665996E1,1.517122666E0,2.186726215E0,-1.305178056E0,2.964274360E0
1.490665096E1,1.545327296E0,1.979502646E0,-1.273949246E0,2.815921494E0
1.491664096E1,1.559037262E0,1.698426990E0,-1.272044224E0,2.633125126E0
1.492663196E1,1.656837206E0,1.436061254E0,-1.248688105E0,2.523212920E0
1.493662296E1,1.751610047E0,1.196378037E0,-1.196764830E0,2.435509028E0
1.494661396E1,1.835311770E0,9.865606436E-1,-1.148769715E0,2.379357698E0
1.495660396E1,2.017684672E0,7.819300228E-1,-1.138635394E0,2.445190495E0
1.496659496E1,2.350870714E0,6.032522687E-1,-1.071042677E0,2.652854845E0
1.497658596E1,2.710266316E0,5.331742662E-1,-1.010955520E0,2.941402619E0
1.498657696E1,3.021587280E0,5.168447471E-1,-1.036933602E0,3.236100969E0
1.499656796E1,3.173541212E0,5.997003776E-1,-1.088608882E0,3.408236152E0
1.500655796E1,2.996595111E0,7.683434325E-1,-1.046576684E0,3.265770452E0
1.501654896E1,2.729318299E0,8.665854263E-1,-9.680252624E-1,3.022783748E0
1.502653996E1,2.855522847E0,6.385291055E-1,-1.003668646E0,3.093393105E0
1.503653096E1,3.332866144E0,5.914049327E-2,-1.014873227E0,3.484460073E0
1.504652196E1,3.440882344E0,-2.397606924E-1,-8.275482452E-1,3.547110456E0
1.505651196E1,3.265448917E0,-2.506268656E-1,-7.266136086E-1,3.354688926E0
1.506650296E1,2.978250057E0,-1.249397957E-1,-7.439611280E-1,3.072305569E0
1.507649396E1,2.882493714E0,7.730136037E-2,-7.820791268E-1,2.987707026E0
1.508648496E1,2.846858443E0,4.316321039E-1,-5.198630798E-1,2.925947178E0
1.509647496E1,2.837681238E0,9.250499815E-1,-2.769428078E-1,2.997473869E0
1.510646596E1,2.763431540E0,1.511134240E0,-1.281721000E-1,3.152222811E0
1.511645696E1,2.428176168E0,2.050317398E0,-1.139072692E-1,3.180065376E0
1.512644796E1,2.001213650E0,2.501959551E0,-1.062953274E-1,3.205613259E0
1.513643896E1,1.554842470E0,2.770784998E0,-1.753684859E-1,3.182065165E0
1.514642896E1,1.198570451E0,2.744316114E0,-2.860960575E-1,3.008270768E0
1.515641996E1,1.020720955E0,2.513534114E0,-3.560428083E-1,2.736145371E0
1.516641096E1,1.026490987E0,2.070465441E0,-4.451064277E-1,2.353429544E0
1.517640196E1,1.107301846E0,1.512892790E0,-4.767866786E-1,1.934499292E0
1.518639296E1,1.274055081E0,9.494232228E-1,-5.481788429E-1,1.680809582E0
1.519638296E1,1.610198645E0,3.467895895E-1,-6.454659498E-1,1.769075744E0
1.520637396E1,1.881971966E0,-1.472422457E-1,-7.266393363E-1,2.022746520E0
1.521636496E1,1.987953334E0,-5.226913780E-1,-8.106170475E-1,2.209584743E0
1.522635596E1,2.005470423E0,-8.106913072E-1,-9.262071455E-1,2.353081318E0
1.523634596E1,1.920483482E0,-1.061013679E0,-1.008383914E0,2.414714259E0
1.524633663E1,1.656540168E0,-1.239245144E0,-1.023062764E0,2.307923585E0
1.525632763E1,1.262640731E0,-1.398050698E0,-9.287412556E-1,2.100325615E0
1.526631862E1,8.842352468E-1,-1.575651541E0,-6.927078708E-1,1.935043654E0
1.527630962E1,5.580705410E-1,-1.733868279E0,-4.323103809E-1,1.872066827E0
1.528629963E1,2.773422092E-1,-1.877696336E0,-2.089737133E-1,1.909537180E0
1.529629063E1,1.003481609E-1,-2.006403493E0,-4.033884443E-2,2.009316289E0
1.530628163E1,-8.977230191E-3,-2.158567778E0,9.368642807E-2,2.160618567E0
1.531627263E1,-5.355289400E-2,-2.341502598E0,9.469342824E-2,2.344028407E0
1.532626363E1,-6.070286930E-2,-2.528569352E0,-2.346136808E-2,2.529406698E0
1.533625362E1,-2.048285490E-1,-2.707376037E0,-1.119670900E-1,2.717420904E0
1.534624463E1,-4.804165936E-1,-2.853654369E0,-1.399203622E-1,2.897191929E0
1.535623563E1,-7.678703928E-1,-2.958553711E0,-1.062357223E-1,3.058422964E0
1.536622663E1,-1.091246561E0,-3.032582092E0,3.721241131E-3,3.222946951E0
1.537621663E1,-1.437900496E0,-3.050502639E0,2.196915865E-1,3.379554494E0
1.538620763E1,-1.701746162E0,-3.058550454E0,4.712423122E-1,3.531676683E0
1.539619862E1,-1.893259431E0,-3.064200326E0,6.816203805E-1,3.665837047E0
1.540618962E1,-1.947684730E0,-3.111598148E0,7.923654755E-1,3.755444300E0
1.541618063E1,-1.806599602E0,-3.202948029E0,7.846904933E-1,3.760108691E0
1.542617063E1,-1.699754600E0,-3.269988111E0,7.268053973E-1,3.756359145E0
1.543616163E1,-1.803794108E0,-3.240985044E0,5.688780228E-1,3.752503090E0
1.544615263E1,-1.991275138E0,-3.206191480E0,3.715146140E-1,3.792474599E0
1.545614363E1,-2.113172627E0,-3.242988885E0,2.115255113E-1,3.876495647E0
1.546613462E1,-2.292405574E0,-3.243078932E0,1.421306098E-1,3.974026344E0
1.547612462E1,-2.606969404E0,-3.336122751E0,5.729445420E-2,4.234298896E0
1.548611563E1,-2.813983058E0,-3.505760417E0,-4.010956049E-2,4.495605135E0
1.549610663E1,-2.971947343E0,-3.656858025E0,-3.485876083E-2,4.712355754E0
1.550609763E1,-3.151313607E0,-3.835719089E0,3.148608685E-2,4.964323695E0
1.551608763E1,-3.316190470E0,-4.033569863E0,7.206583656E-2,5.222259909E0
1.552607863E1,-3.475117791E0,-4.168383852E0,7.855149508E-2,5.427525950E0
1.553606962E1,-3.580204536E0,-4.275972328E0,5.016669832E-2,5.577124758E0
1.554606063E1,-3.584525043E0,-4.374809568E0,5.982797965E-3,5.655777076E0
1.555605163E1,-3.561470641E0,-4.430335897E0,-2.817999803E-2,5.684429910E0
1.556604163E1,-3.646309648E0,-4.533469964E0,-4.486341991E-2,5.818069842E0
1.557603263E1,-3.742468278E0,-4.701712485E0,-7.692363024E-2,6.009832473E0
1.558602363E1,-3.776706065E0,-4.895393025E0,-7.673651934E-2,6.183386617E0
1.559601462E1,-3.834425100E0,-5.042764494E0,-8.959673926E-2,6.335638655E0
1.560600562E1,-3.789022055E0,-5.098157507E0,-1.241432588E-1,6.353212545E0
1.561599563E1,-3.519623289E0,-5.087878686E0,-1.596406817E-1,6.188678596E0
1.562598663E1,-3.055307588E0,-4.925427833E0,-1.813058583E-1,5.798932282E0
1.563597763E1,-2.489980652E0,-4.676613019E0,-1.735523041E-1,5.301021919E0
1.564596863E1,-2.021160257E0,-4.567975553E0,-2.010202575E-1,4.999189792E0
1.565595863E1,-1.714973733E0,-4.553717995E0,-2.409240691E-1,4.871912036E0
1.566594962E1,-1.507829102E0,-4.533816704E0,-1.738857416E-1,4.781137810E0
1.567594062E1,-1.299517366E0,-4.470658881E0,3.672124520E-3,4.655700774E0
1.568593163E1,-8.827787054E-1,-4.316028386E0,2.545059816E-1,4.412728472E0
1.569592263E1,-2.755196321E-1,-4.118763210E0,4.051839781E-1,4.147806108E0
1.570591263E1,4.008699024E-1,-4.187099035E0,3.075425664E-1,4.217472873E0
1.571590363E1,8.800077099E-1,-4.437236489E0,2.145109534E-2,4.523708808E0
1.572589463E1,1.411505579E0,-4.536231604E0,-2.806184042E-1,4.759043166E0
1.573588562E1,1.955684305E0,-4.586241962E0,-4.556981472E-1,5.006593377E0
1.574587563E1,2.608976169E0,-4.583189131E0,-5.444810271E-1,5.301776952E0
1.575586663E1,3.344856445E0,-4.293613670E0,-4.646313771E-1,5.462514558E0
1.576585763E1,3.733250143E0,-3.610612396E0,-2.801364474E-1,5.201168612E0
1.577584863E1,3.898889483E0,-2.559759570E0,1.680124328E-2,4.664117338E0
1.578583963E1,3.949869018E0,-1.355587779E0,3.095118356E-1,4.187467141E0
1.579582962E1,3.780399751E0,-1.125764430E-1,5.506463313E-1,3.821950695E0
1.580582062E1,3.373158138E0,1.051593376E0,5.965341834E-1,3.583280269E0
1.581581163E1,2.971928632E0,1.939071781E0,3.466147578E-1,3.565459431E0
1.582580263E1,2.746503266E0,2.415191256E0,-2.384260654E-2,3.657457786E0
1.583579363E1,2.596149132E0,2.759900406E0,-2.444663854E-1,3.796946718E0
1.584578363E1,2.598789150E0,2.808392535E0,-4.498451574E-1,3.852678852E0
1.585577463E1,2.607686273E0,2.503399720E0,-5.254882474E-1,3.652831197E0
1.586576562E1,2.572801784E0,2.007855502E0,-5.238099504E-1,3.305324432E0
1.587575662E1,2.564895179E0,1.446467251E0,-5.273684196E-1,2.991499998E0
1.588574663E1,2.477812012E0,8.564448926E-1,-5.001953852E-1,2.668940922E0
1.589573763E1,2.383657222E0,2.334214336E-1,-5.130253458E-1,2.449388153E0
1.590572863E1,2.267266640E0,-3.228613213E-1,-4.708492331E-1,2.338041157E0
1.591571963E1,2.056365758E0,-6.964738432E-1,-1.856255619E-1,2.179030241E0
1.592571063E1,1.707285229E0,-9.045245004E-1,2.226303971E-1,1.944878330E0
1.593570062E1,1.260814646E0,-8.924581861E-1,6.190623359E-1,1.664143432E0
1.594569162E1,8.620702064E-1,-7.231625819E-1,9.630912356E-1,1.481105631E0
1.595568263E1,6.290089613E-1,-4.375141105E-1,1.338062650E0,1.541908728E0
1.596567363E1,4.656997365E-1,-8.825056404E-2,1.677362688E0,1.743046182E0
1.597566363E1,2.636375052E-1,2.775658652E-1,1.966726187E0,2.003636554E0
1.598565463E1,-3.679828227E-2,5.698377702E-1,2.098392620E0,2.174700160E0
1.599564563E1,-3.604662269E-1,7.377247801E-1,2.034779738E0,2.194197423E0
1.600563662E1,-6.444169593E-1,8.259262276E-1,1.930432520E0,2.196359958E0
1.601562762E1,-7.873936611E-1,9.386918280E-1,1.848090860E0,2.217334199E0
1.602561763E1,-9.038152331E-1,9.875035071E-1,1.771974145E0,2.220796597E0
1.603560863E1,-1.032739322E0,9.891106144E-1,1.673801733E0,2.201477358E0
1.604559963E1,-1.117899340E0,9.519617915E-1,1.500470235E0,2.099366836E0
1.605559063E1,-1.207365248E0,9.584320280E-1,1.379622467E0,2.068738974E0
1.606558163E1,-1.288590674E0,9.793834788E-1,1.239932338E0,2.038894340E0
1.607557162E1,-1.345662423E0,8.836867779E-1,1.000367528E0,1.895374598E0
1.608556263E1,-1.343777865E0,8.154509407E-1,8.007318909E-1,1.764049531E0
1.609555363E1,-1.390992962E0,7.917191389E-1,6.768199626E-1,1.737747357E0
1.610554463E1,-1.409129271E0,7.425235900E-1,5.856946150E-1,1.697063572E0
1.611553463E1,-1.300658158E0,6.272056800E-1,5.237153716E-1,1.536026172E0
1.612552563E1,-1.126304128E0,5.649907207E-1,5.243386117E-1,1.364810053E0
1.613551662E1,-1.017193329E0,5.318922642E-1,5.202840793E-1,1.260272658E0
1.614550762E1,-9.303370339E-1,4.212886718E-1,3.755982363E-1,1.088156779E0
1.615549863E1,-9.157809752E-1,2.816083378E-1,1.376867259E-1,9.679440505E-1
1.616548863E1,-9.711698949E-1,1.992640463E-1,-7.125533938E-2,9.939589772E-1
1.617547963E1,-9.903002304E-1,1.044780493E-1,-2.661523561E-1,1.030750836E0
1.618547063E1,-1.001258497E0,-4.841523796E-2,-4.315256481E-1,1.091364741E0
1.619546163E1,-9.522436273E-1,-1.361369213E-1,-5.089883916E-1,1.088287816E0
1.620545162E1,-7.259370857E-1,-1.857669184E-1,-5.578512339E-1,9.341798540E-1
1.621544262E1,-3.533636141E-1,-1.498278844E-1,-6.309929216E-1,7.385569076E-1
1.622543363E1,2.923607826E-2,-4.133192092E-2,-7.528874874E-1,7.545877316E-1
1.623542463E1,3.447003794E-1,9.159458667E-2,-9.272970665E-1,9.935229083E-1
1.624541508E1,4.829297268E-1,7.034931332E-2,-1.099712745E0,1.203136845E0
1.625540508E1,5.285707533E-1,-6.262689561E-2,-1.223658514E0,1.334409730E0
1.626539608E1,6.644945437E-1,-7.337846339E-2,-1.300533028E0,1.462300774E0
1.627538708E1,9.514098144E-1,3.498067528E-2,-1.345930810E0,1.648615791E0
1.628537808E1,1.369809669E0,2.072975358E-1,-1.455590662E0,2.009501175E0
1.629536908E1,1.696192476E0,4.512603298E-1,-1.666962245E0,2.420633786E0
1.630535908E1,1.899808313E0,6.409881520E-1,-1.941459784E0,2.790950291E0
1.631535008E1,2.084193826E0,7.809134844E-1,-2.212268314E0,3.138123782E0
1.632534108E1,2.109147989E0,9.502675608E-1,-2.397318656E0,3.331463705E0
1.633533208E1,2.065650551E0,1.123567631E0,-2.442920507E0,3.390748741E0
1.634532208E1,2.023506160E0,1.271355422E0,-2.350728627E0,3.352140639E0
1.635531308E1,1.913738135E0,1.373117439E0,-2.215125264E0,3.233361267E0
1.636530408E1,1.884781553E0,1.400140931E0,-2.038697811E0,3.109515218E0
1.637529508E1,2.027213295E0,1.285916450E0,-1.886702363E0,3.053329440E0
1.638528608E1,2.097096877E0,1.264242284E0,-1.651095241E0,2.953343759E0
1.639527608E1,2.219241119E0,1.468988972E0,-1.516522157E0,3.063135517E0
1.640526708E1,2.334119026E0,1.792468636E0,-1.503662376E0,3.304853398E0
1.641525808E1,2.563941498E0,2.065852573E0,-1.589581947E0,3.656270453E0
1.642524908E1,2.946133055E0,2.295338245E0,-1.592961638E0,4.060271471E0
1.643523908E1,3.127157589E0,2.497231784E0,-1.536282238E0,4.286658872E0
1.644523008E1,3.331120166E0,2.751396216E0,-1.537469223E0,4.585886425E0
1.645522108E1,3.549862749E0,3.069470421E0,-1.669005847E0,4.980838757E0
1.646521208E1,3.655105614E0,3.318143732E0,-1.926112012E0,5.299035984E0
1.647520308E1,3.654962357E0,3.586573908E0,-2.235526199E0,5.587471666E0
1.648519308E1,3.497429012E0,3.803975725E0,-2.415604069E0,5.704154979E0
1.649518408E1,3.203753775E0,3.906600499E0,-2.497438776E0,5.635846534E0
1.650517508E1,2.825557621E0,3.857929445E0,-2.453087060E0,5.374479659E0
1.651516608E1,2.509201620E0,3.523118462E0,-2.356143149E0,4.925430641E0
1.652515708E1,2.320868066E0,3.080037217E0,-2.170004055E0,4.425152589E0
1.653514708E1,2.211406435E0,2.635076970E0,-1.966572990E0,3.962493960E0
1.654513808E1,2.173136993E0,2.103066300E0,-1.859706938E0,3.550200297E0
