"Time (s)","Acceleration x (m/s^2)","Acceleration y (m/s^2)","Acceleration z (m/s^2)","Absolute acceleration (m/s^2)"
3.461943700E-2,2.566601276E0,4.886443138E0,9.810872078E0,1.125690808E1
3.700594800E-2,2.446661234E0,4.802694321E0,9.774979591E0,1.116253779E1
3.939240600E-2,2.303091764E0,4.723432064E0,9.729516029E0,1.105796203E1
4.177891700E-2,2.145165443E0,4.644468784E0,9.676874161E0,1.094599098E1
4.416542700E-2,1.980060697E0,4.567898273E0,9.612267494E0,1.082506450E1
4.655193700E-2,1.809871197E0,4.491328239E0,9.530911446E0,1.069046005E1
4.893844800E-2,1.630409479E0,4.417150497E0,9.449555397E0,1.055762998E1
5.132490600E-2,1.446162224E0,4.340580463E0,9.365806580E0,1.042354819E1
5.371141700E-2,1.259222865E0,4.275974274E0,9.291629791E0,1.030553164E1
5.609792700E-2,1.074975610E0,4.228117466E0,9.233902931E0,1.021261540E1
5.848443700E-2,9.002995491E-1,4.196712017E0,9.188439369E0,1.014151611E1
6.087094800E-2,7.301099896E-1,4.177569389E0,9.176474571E0,1.010904704E1
6.325740600E-2,5.721837282E-1,4.165605068E0,9.181260109E0,1.009827693E1
6.564391700E-2,4.262215197E-1,4.167997837E0,9.193224907E0,1.010293299E1
6.803042700E-2,2.898306549E-1,4.175176620E0,9.190832138E0,1.009888593E1
7.041693700E-2,1.746760458E-1,4.201497555E0,9.171689034E0,1.008974594E1
7.280339600E-2,9.332008660E-2,4.240081787E0,9.114261627E0,1.005269950E1
7.518990600E-2,3.589234129E-2,4.283152580E0,9.028120041E0,9.992679108E0
7.757641700E-2,9.571290575E-3,4.328616142E0,8.915657043E0,9.910900556E0
7.996292700E-2,7.178467698E-3,4.378865242E0,8.779266357E0,9.810709970E0
8.234943700E-2,2.871387079E-2,4.426722050E0,8.628219604E0,9.697570115E0
8.473589600E-2,7.657032460E-2,4.467400074E0,8.451150894E0,9.559575193E0
8.712240600E-2,1.459621787E-1,4.498506546E0,8.262117386E0,9.408530693E0
8.950891700E-2,2.368894368E-1,4.515256405E0,8.058428764E0,9.240234367E0
9.189537500E-2,3.472583890E-1,4.520041943E0,7.852645874E0,9.067271628E0
9.428188500E-2,4.716851711E-1,4.517649174E0,7.658827305E0,8.904452630E0
9.666839600E-2,6.128616929E-1,4.479363918E0,7.479066372E0,8.739378374E0
9.905490600E-2,7.827520967E-1,4.386044025E0,7.321139812E0,8.570249191E0
1.014414170E-1,9.720842242E-1,4.261617184E0,7.211070061E0,8.432429079E0
1.038278750E-1,1.163509965E0,4.134498596E0,7.122535706E0,8.317352280E0
1.062143850E-1,1.345364571E0,4.010071754E0,6.988238335E0,8.168607980E0
1.086008960E-1,1.517946839E0,3.909573078E0,6.811169624E0,7.998809656E0
1.109874060E-1,1.675873160E0,3.833002806E0,6.612565517E0,7.824735400E0
1.133739170E-1,1.819442511E0,3.777967930E0,6.423233509E0,7.670811003E0
1.157603750E-1,1.946262121E0,3.742075443E0,6.243771553E0,7.534968353E0
1.181468850E-1,2.051845312E0,3.720540047E0,6.069095612E0,7.408536223E0
1.205333960E-1,2.137987137E0,3.706183195E0,5.906383514E0,7.293294804E0
1.229198540E-1,2.188236237E0,3.687040567E0,5.740979671E0,7.165297870E0
1.253063640E-1,2.202593327E0,3.655933857E0,5.539982796E0,6.993474037E0
1.276928750E-1,2.173879385E0,3.610171080E0,5.309972763E0,6.779004171E0
1.300793850E-1,2.097309113E0,3.543172121E0,5.051547527E0,6.516970662E0
1.324658960E-1,1.970489502E0,3.466601849E0,4.771587372E0,6.218376259E0
1.348523540E-1,1.781157374E0,3.366103172E0,4.505684853E0,5.899522705E0
1.372388640E-1,1.620838284E0,3.296711445E0,4.357329845E0,5.699275961E0
1.396253750E-1,1.515554070E0,3.263211966E0,4.342973232E0,5.639758237E0
1.420118850E-1,1.460519075E0,3.253640652E0,4.431507587E0,5.688369974E0
1.443983440E-1,1.443769336E0,3.279961586E0,4.634897232E0,5.858744768E0
1.467848540E-1,1.446162224E0,3.370888948E0,4.951049328E0,6.161750314E0
1.491713640E-1,1.455733418E0,3.483351469E0,5.254937649E0,6.470492016E0
1.515578750E-1,1.467697620E0,3.576671600E0,5.494519234E0,6.718367186E0
1.539443330E-1,1.484447360E0,3.619742393E0,5.707480431E0,6.919642464E0
1.563308440E-1,1.503589988E0,3.629313707E0,5.906383514E0,7.093522895E0
1.587173540E-1,1.520339727E0,3.622135162E0,6.085845470E0,7.243535816E0
1.611038640E-1,1.541875124E0,3.593421459E0,6.241378784E0,7.365111391E0
1.634903750E-1,1.561017632E0,3.543172121E0,6.368198395E0,7.452838085E0
1.658768330E-1,1.587338686E0,3.473780155E0,6.471388817E0,7.514363971E0
1.682633440E-1,1.628016710E0,3.387638569E0,6.535995007E0,7.539613001E0
1.706498540E-1,1.671087503E0,3.282354355E0,6.583851337E0,7.544102464E0
1.730363640E-1,1.728515267E0,3.148356438E0,6.612565517E0,7.525020665E0
1.754228750E-1,1.802692771E0,3.002095222E0,6.624529362E0,7.493107914E0
1.778093330E-1,1.891227245E0,2.844168901E0,6.619743824E0,7.448962715E0
1.801958440E-1,1.987239242E0,2.686242580E0,6.610172749E0,7.406713358E0
1.825823540E-1,2.078166485E0,2.533101797E0,6.593422890E0,7.362649391E0
1.849688120E-1,2.161915302E0,2.382055044E0,6.581458569E0,7.325548505E0
1.873553230E-1,2.228914261E0,2.243271112E0,6.602993965E0,7.321192073E0
1.897418330E-1,2.269592285E0,2.121237278E0,6.669992924E0,7.357955037E0
1.921283440E-1,2.281556368E0,2.013560295E0,6.772884369E0,7.425084996E0
1.945148540E-1,2.279163599E0,1.927119493E0,6.885347366E0,7.504424336E0
1.969013120E-1,2.264806747E0,1.864906192E0,6.978667259E0,7.570272216E0
1.992878230E-1,2.248056889E0,1.829013824E0,7.043572426E0,7.616492885E0
2.016743330E-1,2.224128723E0,1.807478428E0,7.077072144E0,7.635357030E0
2.040608440E-1,2.195414782E0,1.807478428E0,7.093822002E0,7.642586927E0
2.064473020E-1,2.154736757E0,1.821835399E0,7.101000309E0,7.641085008E0
2.088338120E-1,2.111665964E0,1.843370795E0,7.103393078E0,7.636448275E0
2.112203230E-1,2.066202402E0,1.876870275E0,7.124928474E0,7.652217990E0
2.136068330E-1,2.023131609E0,1.922333837E0,7.179963589E0,7.703265932E0
2.159932920E-1,1.975275040E0,1.984846354E0,7.304390430E0,7.822751823E0
2.183798020E-1,1.922333837E0,2.066202402E0,7.502994537E0,8.016201518E0
2.207663120E-1,1.862513304E0,2.164308071E0,7.764111042E0,8.272521109E0
2.231528230E-1,1.812264085E0,2.281556368E0,8.077570915E0,8.587022328E0
2.255392810E-1,1.778764486E0,2.405983210E0,8.436793327E0,8.951661296E0
2.279257920E-1,1.762014747E0,2.533101797E0,8.815158844E0,9.339610598E0
2.303123020E-1,1.762014747E0,2.669492722E0,9.186046600E0,9.726990259E0
2.326988120E-1,1.776371717E0,2.803490877E0,9.526125908E0,1.008772186E1
2.350853230E-1,1.788335800E0,2.927917719E0,9.810872078E0,1.039346227E1
2.374717810E-1,1.790728688E0,3.052344322E0,1.003370380E1,1.063948904E1
2.398582920E-1,1.805085540E0,3.157927752E0,1.020120144E1,1.083029789E1
2.422448020E-1,1.829013824E0,3.220141172E0,1.033519936E1,1.097865868E1
2.446313120E-1,1.872084618E0,3.244069338E0,1.043599701E1,1.108777346E1
2.470177710E-1,1.915155411E0,3.229712248E0,1.048146057E1,1.113372701E1
2.494042810E-1,1.968096614E0,3.174677372E0,1.048146057E1,1.112712885E1
2.517907920E-1,2.025524378E0,3.078665495E0,1.046471119E1,1.109464333E1
2.541773020E-1,2.087737799E0,2.947060108E0,1.040249729E1,1.101161942E1
2.565638120E-1,2.161915302E0,2.796312332E0,1.031605625E1,1.090478138E1
2.589502710E-1,2.240878344E0,2.614457846E0,1.022752190E1,1.079162313E1
2.613367810E-1,2.315055847E0,2.437089920E0,1.011505985E1,1.065895523E1
2.637232920E-1,2.370090723E0,2.255235434E0,9.995418549E0,1.051721488E1
2.661098020E-1,2.422732830E0,2.094916344E0,9.873384476E0,1.037988583E1
2.684962600E-1,2.456232548E0,1.948654890E0,9.734301567E0,1.022677668E1
2.708827710E-1,2.470589399E0,1.805085540E0,9.571589470E0,1.004875469E1
2.732692810E-1,2.470589399E0,1.671087503E0,9.368199348E0,9.831556563E0
2.756557920E-1,2.456232548E0,1.544267893E0,9.176474571E0,9.624215667E0
2.780422500E-1,2.425125837E0,1.450947881E0,8.999405861E0,9.432697967E0
2.804287600E-1,2.394019127E0,1.378864050E0,8.848658562E0,9.269916504E0
2.828152710E-1,2.350948334E0,1.321436286E0,8.726624489E0,9.133845132E0
2.852017810E-1,2.293520451E0,1.287936807E0,8.654540062E0,9.045445316E0
2.875882390E-1,2.236092806E0,1.283151150E0,8.616254807E0,8.993688609E0
2.899747500E-1,2.176272154E0,1.287936807E0,8.613862038E0,8.977391654E0
2.923612600E-1,2.135594130E0,1.285543919E0,8.623434067E0,8.976469270E0
2.947477710E-1,2.092523336E0,1.292722464E0,8.652147293E0,8.994967374E0
2.971342810E-1,2.078166485E0,1.321436286E0,8.714659691E0,9.055951818E0
2.995207390E-1,2.078166485E0,1.362114310E0,8.805587769E0,9.149453934E0
3.019072500E-1,2.075773716E0,1.419841170E0,8.915657043E0,9.263569829E0
3.042937600E-1,2.054238319E0,1.498804331E0,9.061619759E0,9.411655654E0
3.066802710E-1,1.999203324E0,1.596910000E0,9.231510162E0,9.579546720E0
3.090667290E-1,1.922333837E0,1.704586983E0,9.413662910E0,9.757972820E0
3.114532390E-1,1.831406593E0,1.817049742E0,9.624231339E0,9.964012682E0
3.138397500E-1,1.735693693E0,1.917548299E0,9.837491989E0,1.017181757E1
3.162262600E-1,1.651944876E0,1.987239242E0,1.001695347E1,1.034492139E1
3.186127190E-1,1.589731574E0,2.030309916E0,1.014855862E1,1.047103848E1
3.209992290E-1,1.544267893E0,2.056631088E0,1.023948669E1,1.055753676E1
3.233857390E-1,1.510768414E0,2.073380709E0,1.028255749E1,1.059775057E1
3.257722500E-1,1.470090389E0,2.075773716E0,1.027298546E1,1.058320521E1
3.281587080E-1,1.398006678E0,2.073380709E0,1.022034359E1,1.052182272E1
3.305452190E-1,1.292722464E0,2.070987940E0,1.013420200E1,1.042411496E1
3.329317290E-1,1.153938770E0,2.082952023E0,1.003370380E1,1.031239428E1
3.353182390E-1,9.888339639E-1,2.114058733E0,9.945169449E0,1.021535277E1
3.377046980E-1,8.114659786E-1,2.181057930E0,9.909276962E0,1.017886343E1
3.400912080E-1,6.320042610E-1,2.279163599E0,9.914062500E0,1.019228391E1
3.424777190E-1,4.525425732E-1,2.394019127E0,9.945169449E0,1.023926353E1
3.448642290E-1,2.536391914E-1,2.511267424E0,9.981060982E0,1.029525984E1
3.472506870E-1,2.871387079E-2,2.621636391E0,1.000738239E1,1.034511983E1
3.496371980E-1,-2.129612118E-1,2.717349291E0,9.964311600E0,1.033038457E1
3.520237080E-1,-4.621138871E-1,2.791526794E0,9.851848602E0,1.025012644E1
3.544102190E-1,-7.013961077E-1,2.832204819E0,9.664909363E0,1.009573245E1
3.567967290E-1,-9.146564603E-1,2.848954439E0,9.399306297E0,9.864081139E0
3.591831870E-1,-1.094118118E0,2.875275612E0,8.927620888E0,9.442813088E0
3.615696980E-1,-1.249651670E0,2.913560629E0,8.333902359E0,8.916523614E0
3.639562080E-1,-1.424626827E0,2.939881802E0,7.869395256E0,8.520554460E0
3.663427190E-1,-1.647159338E0,2.918346405E0,7.725826263E0,8.421298657E0
3.687291770E-1,-1.884048700E0,2.863311291E0,7.785646915E0,8.506731978E0
3.711156870E-1,-2.109273195E0,2.793919563E0,7.922037601E0,8.661044954E0
3.735021980E-1,-2.300698996E0,2.724527597E0,8.036892891E0,8.792491901E0
3.758887080E-1,-2.449054003E0,2.683849812E0,8.134998322E0,8.909495665E0
3.782751670E-1,-2.578565598E0,2.674278498E0,8.202297211E0,9.004357032E0
3.806616770E-1,-2.710170746E0,2.683849812E0,8.283653259E0,9.119593555E0
3.830481870E-1,-2.846561670E0,2.695813894E0,8.434400558E0,9.301045031E0
3.854346980E-1,-2.987738132E0,2.705385208E0,8.649754524E0,9.542742876E0
3.878211560E-1,-3.107678413E0,2.714956284E0,8.918049812E0,9.826508291E0
3.902076670E-1,-3.208176851E0,2.719742060E0,9.212367058E0,1.012704806E1
3.925941770E-1,-3.265604734E0,2.712563515E0,9.514162064E0,1.041832304E1
3.949806870E-1,-3.277568817E0,2.693420887E0,9.813264847E0,1.069098407E1
3.973671980E-1,-3.251247883E0,2.647957325E0,1.007916737E1,1.091658855E1
3.997536560E-1,-3.179463148E0,2.573779821E0,1.028973579E1,1.107302990E1
4.021401670E-1,-3.073879719E0,2.477767944E0,1.045274639E1,1.117353917E1
4.045266770E-1,-2.947060108E0,2.360519648E0,1.058195877E1,1.123543803E1
4.069131870E-1,-2.803490877E0,2.224128723E0,1.067527866E1,1.125912449E1
4.092996460E-1,-2.650350094E0,2.082952023E0,1.073988533E1,1.125647288E1
4.116861560E-1,-2.494517565E0,1.953440547E0,1.080209827E1,1.125716994E1
4.140726670E-1,-2.343769789E0,1.838585138E0,1.082841969E1,1.123068676E1
4.164591770E-1,-2.204986095E0,1.742872238E0,1.082124138E1,1.118028767E1
4.188456350E-1,-2.078166485E0,1.654337764E0,1.078295612E1,1.110530288E1
4.212321460E-1,-1.965703845E0,1.580160260E0,1.072792149E1,1.102039915E1
4.236186560E-1,-1.864906192E0,1.513161182E0,1.064417267E1,1.091173422E1
4.260051670E-1,-1.783550143E0,1.458126307E0,1.053170967E1,1.078072781E1
4.283916250E-1,-1.709372640E0,1.405484200E0,1.038814068E1,1.062124321E1
4.307781350E-1,-1.642373681E0,1.342971683E0,1.021077251E1,1.042884651E1
4.331646460E-1,-1.575374603E0,1.271187067E0,1.002173901E1,1.022413685E1
4.355511560E-1,-1.520339727E0,1.201795220E0,9.815657616E0,1.000514263E1
4.379376140E-1,-1.479661703E0,1.125224829E0,9.597910881E0,9.776268355E0
4.403241250E-1,-1.453340650E0,1.041476011E0,9.377771378E0,9.546699290E0
4.427106350E-1,-1.446162224E0,9.481559992E-1,9.164510727E0,9.326234065E0
4.450971460E-1,-1.462911963E0,8.330013752E-1,8.965906143E0,9.122580538E0
4.474836560E-1,-1.496411443E0,7.061817646E-1,8.784051895E0,8.938540574E0
4.498701140E-1,-1.546660781E0,5.721837282E-1,8.621041298E0,8.777351927E0
4.522566250E-1,-1.608874083E0,4.429712892E-1,8.463114738E0,8.626065758E0
4.546431350E-1,-1.683051586E0,3.161516786E-1,8.321938515E0,8.496309503E0
4.570296460E-1,-1.740479350E0,1.890329868E-1,8.192725182E0,8.377693462E0
4.594161040E-1,-1.778764486E0,7.178468257E-2,8.063214302E0,8.257395535E0
4.618026140E-1,-1.802692771E0,-3.349951655E-2,7.919644833E0,8.122290177E0
4.641891250E-1,-1.807478428E0,-1.148554832E-1,7.761718273E0,7.970222117E0
4.665756350E-1,-1.793121457E0,-1.746760458E-1,7.577471256E0,7.788701234E0
4.689620940E-1,-1.762014747E0,-2.105683982E-1,7.366603374E0,7.577326725E0
4.713486040E-1,-1.709372640E0,-2.249253243E-1,7.134500027E0,7.339866269E0
4.737351140E-1,-1.647159338E0,-2.177468538E-1,6.882954121E0,7.080650041E0
4.761216250E-1,-1.575374603E0,-1.866401732E-1,6.605386734E0,6.793215262E0
4.785080830E-1,-1.477268934E0,-1.411765367E-1,6.284449577E0,6.457287419E0
4.808945940E-1,-1.338186026E0,-9.092725813E-2,5.949454308E0,6.098771693E0
4.832811040E-1,-1.175474167E0,-4.307080805E-2,5.590231895E0,5.712642756E0
4.856676140E-1,-9.864411354E-1,4.785645287E-3,5.173581600E0,5.266786078E0
4.880540730E-1,-7.588238716E-1,5.264209956E-2,4.761716843E0,4.822087945E0
4.904405830E-1,-5.123631358E-1,1.052841991E-1,4.299902439E0,4.331600366E0
4.928270940E-1,-3.017947674E-1,1.818545163E-1,3.811467409E0,3.827719289E0
4.952136040E-1,-1.746760458E-1,3.041875660E-1,3.275176048E0,3.293906487E0
4.976000620E-1,-1.627119333E-1,5.075774789E-1,2.777169704E0,2.827858136E0
4.999865730E-1,-2.874378264E-1,7.875377536E-1,2.382055044E0,2.525276708E0
5.023730830E-1,-5.626124144E-1,1.106082320E0,2.161915302E0,2.492755223E0
5.047595940E-1,-9.553344250E-1,1.422233939E0,2.135594130E0,2.737914449E0
5.071461040E-1,-1.352542996E0,1.678265929E0,2.303091764E0,3.154390712E0
5.095325620E-1,-1.668694735E0,1.840977907E0,2.664707184E0,3.643405844E0
5.119190730E-1,-1.912762642E0,1.891227245E0,3.267997503E0,4.232636188E0
5.143055830E-1,-2.068595171E0,1.805085540E0,4.043570995E0,4.887523522E0
5.166920420E-1,-2.087737799E0,1.580160260E0,4.855336189E0,5.516325324E0
5.190785520E-1,-1.982453585E0,1.256830096E0,5.566303730E0,6.040983473E0
5.214650620E-1,-1.788335800E0,9.002995491E-1,6.095416546E0,6.415823180E0
5.238515730E-1,-1.541875124E0,5.673980713E-1,6.423233509E0,6.630026258E0
5.262380830E-1,-1.268794179E0,2.994019389E-1,6.591030121E0,6.718717009E0
5.286245420E-1,-1.015154958E0,9.571290761E-2,6.653243542E0,6.730924912E0
5.310110520E-1,-8.114659786E-1,-4.785645381E-2,6.669992924E0,6.719343188E0
5.333975620E-1,-6.846463680E-1,-1.459621787E-1,6.703492641E0,6.739945044E0
5.357840730E-1,-6.391827464E-1,-2.057827413E-1,6.796812534E0,6.829902031E0
5.381705310E-1,-6.631109715E-1,-2.512463629E-1,6.949953556E0,6.986035738E0
5.405570420E-1,-7.372884750E-1,-2.946162820E-1,7.103393078E0,7.147628017E0
5.429435520E-1,-8.500502706E-1,-2.727817893E-1,7.234998226E0,7.289869320E0
5.453300620E-1,-9.409775138E-1,-2.656033039E-1,7.266105175E0,7.331593838E0
5.477165210E-1,-9.816554785E-1,-3.113660514E-1,7.196712971E0,7.270025714E0
5.501030310E-1,-9.840483069E-1,-4.070789516E-1,7.031608582E0,7.111791869E0
5.524895420E-1,-9.529415965E-1,-5.338985324E-1,6.772884369E0,6.860401446E0
5.548760520E-1,-9.074779749E-1,-6.846463680E-1,6.423233509E0,6.523050332E0
5.572625100E-1,-8.353942037E-1,-8.620143533E-1,6.023632050E0,6.142075813E0
5.596490210E-1,-7.348956466E-1,-1.077368379E0,5.606981754E0,5.756651685E0
5.620355310E-1,-6.224330068E-1,-1.316650629E0,5.204688549E0,5.404606796E0
5.644220420E-1,-5.171487927E-1,-1.558624864E0,4.826622486E0,5.098336882E0
5.668085000E-1,-4.286143482E-1,-1.776371717E0,4.479363918E0,4.837758556E0
5.691950100E-1,-3.424727321E-1,-1.984846354E0,4.170390606E0,4.631313035E0
5.715815210E-1,-2.632105052E-1,-2.164308071E0,3.885644913E0,4.455529776E0
5.739680310E-1,-1.842473447E-1,-2.317448616E0,3.614956856E0,4.297956287E0
5.763544890E-1,-1.004985496E-1,-2.427518606E0,3.373281717E0,4.157159618E0
5.787410000E-1,-4.785645287E-3,-2.535494804E0,3.155534744E0,4.047981760E0
5.811275100E-1,1.052841991E-1,-2.659921408E0,2.987738132E0,4.001605404E0
5.835140210E-1,1.938186288E-1,-2.779562712E0,2.875275612E0,4.003841202E0
5.859004790E-1,2.560320199E-1,-2.892025232E0,2.822633505E0,4.049274286E0
5.882869890E-1,2.946162820E-1,-2.994916677E0,2.817847729E0,4.122692140E0
5.906735000E-1,3.089732230E-1,-3.090928555E0,2.832204819E0,4.203651736E0
5.930600100E-1,3.137588799E-1,-3.179463148E0,2.887239695E0,4.306226144E0
5.954465210E-1,3.185445070E-1,-3.272783279E0,2.956631422E0,4.422018811E0
5.978329790E-1,3.352942765E-1,-3.375674486E0,3.059522867E0,4.568181330E0
6.002194890E-1,3.807578981E-1,-3.492922783E0,3.232105255E0,4.774095781E0
6.026060000E-1,4.477569461E-1,-3.631706476E0,3.478565931E0,5.048781947E0
6.049925100E-1,5.362913609E-1,-3.785146236E0,3.754039526E0,5.357961666E0
6.073789690E-1,6.415755749E-1,-3.928715706E0,4.026821613E0,5.662306829E0
6.097654790E-1,7.779664397E-1,-4.110570431E0,4.287938118E0,5.990695648E0
6.121519890E-1,9.385846853E-1,-4.338187218E0,4.527220249E0,6.340073559E0
6.145385000E-1,1.110867858E0,-4.610969067E0,4.785944462E0,6.737976515E0
6.169249580E-1,1.292722464E0,-4.912764072E0,5.075475693E0,7.181005202E0
6.193114690E-1,1.470090389E0,-5.235795021E0,5.377270699E0,7.647859532E0
6.216979790E-1,1.632802367E0,-5.563910961E0,5.695516109E0,8.127856575E0
6.240844890E-1,1.788335800E0,-5.889334679E0,6.014060497E0,8.605308336E0
6.264709480E-1,1.955833435E0,-6.215057850E0,6.332305908E0,9.085721029E0
6.288574580E-1,2.142772675E0,-6.540780544E0,6.636493683E0,9.561188904E0
6.312439690E-1,2.331805706E0,-6.859025955E0,6.870990276E0,9.984691396E0
6.336304790E-1,2.576172590E0,-7.189534664E0,7.024429798E0,1.037635234E1
6.360169370E-1,2.791526794E0,-7.514958382E0,7.110571384E0,1.071575694E1
6.384034480E-1,2.913560629E0,-7.802396297E0,7.196712971E0,1.100722041E1
6.407899580E-1,3.018844843E0,-8.022536278E0,7.385746002E0,1.131475835E1
6.431764690E-1,3.090928555E0,-8.173583031E0,7.618149281E0,1.159299346E1
6.455629270E-1,3.191427231E0,-8.286046028E0,7.814360619E0,1.182827115E1
6.479494370E-1,3.327818155E0,-8.362615585E0,7.953144073E0,1.201083735E1
6.503359480E-1,3.516851187E0,-8.415258408E0,7.996214867E0,1.212947932E1
6.527224580E-1,3.720540047E0,-8.432007790E0,8.001000404E0,1.220480156E1
6.551089170E-1,3.888037682E0,-8.412865639E0,7.981858253E0,1.223123896E1
6.574954270E-1,4.069892406E0,-8.360222816E0,7.977072716E0,1.225116480E1
6.598819370E-1,4.247260094E0,-8.269295692E0,7.989036560E0,1.225745384E1
6.622684480E-1,4.424329281E0,-8.159226418E0,7.986643791E0,1.224475987E1
6.646549060E-1,4.634897232E0,-8.058428764E0,7.969893932E0,1.224498901E1
6.670414170E-1,4.826622486E0,-7.965108395E0,7.934001446E0,1.223468902E1
6.694279270E-1,5.003691196E0,-7.893323898E0,7.934001446E0,1.225927676E1
6.718144370E-1,5.178367138E0,-7.847859859E0,7.986643791E0,1.233656636E1
6.742008960E-1,5.372485161E0,-7.835896015E0,8.053643227E0,1.245496015E1
6.765874060E-1,5.568696499E0,-7.852645874E0,8.127820015E0,1.259904306E1
6.789739170E-1,5.757729530E0,-7.890930653E0,8.207082748E0,1.275830879E1
6.813604270E-1,5.959025860E0,-7.953144073E0,8.307580948E0,1.295292983E1
6.837468850E-1,6.150451660E0,-8.024929047E0,8.439186096E0,1.316994320E1
6.861333960E-1,6.315556049E0,-8.089534760E0,8.613862038E0,1.339871039E1
6.885199060E-1,6.459424496E0,-8.142476082E0,8.822337151E0,1.363296425E1
6.909064170E-1,6.593422890E0,-8.171190262E0,9.075976372E0,1.387857784E1
6.932929270E-1,6.729813576E0,-8.180761337E0,9.380164146E0,1.414930126E1
6.956793850E-1,6.870990276E0,-8.178368568E0,9.707980156E0,1.443402572E1
6.980658960E-1,7.029215813E0,-8.171190262E0,1.003370380E1,1.472594436E1
7.004524060E-1,7.189534664E0,-8.161619186E0,1.033280659E1,1.500227744E1
7.028389170E-1,7.357032299E0,-8.147261620E0,1.062263680E1,1.527560829E1
7.052253750E-1,7.524529934E0,-8.125427246E0,1.090738297E1,1.554387731E1
7.076118850E-1,7.685148239E0,-8.108677864E0,1.117807102E1,1.580384232E1
7.099983960E-1,7.835896015E0,-8.096714020E0,1.145085239E1,1.606487052E1
7.123849060E-1,7.969893932E0,-8.077570915E0,1.171675491E1,1.631099957E1
7.147713640E-1,8.096714020E0,-8.046463966E0,1.197039413E1,1.654063771E1
7.171578750E-1,8.219046593E0,-7.993822098E0,1.220758247E1,1.674750693E1
7.195443850E-1,8.338687897E0,-7.919644833E0,1.241097260E1,1.692000978E1
7.219308960E-1,8.451150894E0,-7.826324463E0,1.257129192E1,1.705024008E1
7.243173540E-1,8.563612938E0,-7.716254711E0,1.269123173E1,1.714477810E1
7.267038640E-1,8.661719322E0,-7.594220638E0,1.276301670E1,1.719279396E1
7.290903750E-1,8.745766640E0,-7.462316513E0,1.277019501E1,1.718291251E1
7.314768850E-1,8.819944382E0,-7.337889671E0,1.274866009E1,1.715122088E1
7.338633440E-1,8.896514893E0,-7.223034382E0,1.270319653E1,1.710822623E1
7.362498540E-1,8.975478172E0,-7.112964630E0,1.266012573E1,1.707138711E1
7.386363640E-1,9.068798065E0,-7.012166977E0,1.262154102E1,1.705042175E1
7.410228750E-1,9.166903496E0,-6.918846607E0,1.259522057E1,1.704529669E1
7.434093330E-1,9.272486687E0,-6.837490559E0,1.258325577E1,1.706073305E1
7.457958440E-1,9.394520760E0,-6.772884369E0,1.259522057E1,1.711048112E1
7.481823540E-1,9.526125908E0,-6.725028038E0,1.261675549E1,1.718009301E1
7.505688640E-1,9.664909363E0,-6.691528320E0,1.266491127E1,1.727967019E1
7.529553230E-1,9.806086540E0,-6.672386169E0,1.272951698E1,1.739886988E1
7.553418330E-1,9.949954987E0,-6.653243542E0,1.278933811E1,1.751668985E1
7.577283440E-1,1.009352398E1,-6.646064758E0,1.286830139E1,1.765340148E1
7.601148540E-1,1.024905777E1,-6.650850773E0,1.295683575E1,1.780889086E1
7.625013120E-1,1.040967560E1,-6.669992924E0,1.305254841E1,1.797829724E1
7.648878230E-1,1.057478046E1,-6.691528320E0,1.316740417E1,1.816543602E1
7.672743330E-1,1.074945641E1,-6.710670948E0,1.331366539E1,1.838035918E1
7.696608440E-1,1.093131161E1,-6.717849731E0,1.346680546E1,1.860048192E1
7.720473020E-1,1.109910774E1,-6.717849731E0,1.363191032E1,1.881883835E1
7.744338120E-1,1.126421261E1,-6.703492641E0,1.380449295E1,1.903636848E1
7.768203230E-1,1.142931747E1,-6.677171707E0,1.397199059E1,1.924656959E1
7.792068330E-1,1.159232807E1,-6.631708145E0,1.412991714E1,1.944263824E1
7.815932920E-1,1.175264740E1,-6.574280262E0,1.426152229E1,1.961471132E1
7.839798020E-1,1.191057396E1,-6.509674072E0,1.436231995E1,1.976142360E1
7.863663120E-1,1.206640625E1,-6.439982891E0,1.444128323E1,1.989025391E1
7.887528230E-1,1.221954727E1,-6.368198395E0,1.448913956E1,1.999516070E1
7.911392810E-1,1.236790180E1,-6.291627884E0,1.452981758E1,2.009142044E1
7.935257920E-1,1.250907898E1,-6.203093529E0,1.456331635E1,2.017537135E1
7.959123020E-1,1.265055466E1,-6.107380867E0,1.459203053E1,2.025497443E1
7.982988120E-1,1.279890919E1,-5.999703884E0,1.462313747E1,2.033825638E1
8.006852710E-1,1.296640682E1,-5.889334679E0,1.464945889E1,2.043082510E1
8.030717810E-1,1.315543938E1,-5.779264927E0,1.466620827E1,2.053200315E1
8.054582920E-1,1.336870003E1,-5.673980713E0,1.467338657E1,2.064520455E1
8.078448020E-1,1.359362507E1,-5.566303730E0,1.466142273E1,2.075398025E1
8.102312600E-1,1.381645679E1,-5.446662426E0,1.463988686E1,2.085394200E1
8.126177710E-1,1.402223969E1,-5.317151070E0,1.461835194E1,2.094257660E1
8.150042810E-1,1.421605873E1,-5.185545921E0,1.459920883E1,2.102672373E1
8.173907920E-1,1.440060520E1,-5.053940296E0,1.457528114E1,2.110352016E1
8.197772500E-1,1.456092358E1,-4.924727917E0,1.454178143E1,2.115979318E1
8.221637600E-1,1.470688629E1,-4.817050934E0,1.448435402E1,2.119653263E1
8.245502710E-1,1.485524082E1,-4.725824833E0,1.442692566E1,2.124023974E1
8.269367810E-1,1.499671650E1,-4.646861553E0,1.436471272E1,2.128003288E1
8.293232390E-1,1.513310814E1,-4.584648132E0,1.429980755E1,2.131934465E1
8.317097500E-1,1.526471329E1,-4.546362877E0,1.423998642E1,2.136488007E1
8.340962600E-1,1.538914013E1,-4.522434711E0,1.417777348E1,2.140764607E1
8.364827710E-1,1.550190163E1,-4.512863636E0,1.411555958E1,2.144583676E1
8.388692290E-1,1.559043598E1,-4.505684853E0,1.406291771E1,2.147390380E1
8.412557390E-1,1.565982819E1,-4.488935471E0,1.402223969E1,2.149427752E1
8.436422500E-1,1.570529175E1,-4.469792843E0,1.397916889E1,2.149540416E1
8.460287600E-1,1.573400497E1,-4.443471432E0,1.392652702E1,2.147676665E1
8.484152190E-1,1.574836254E1,-4.407579422E0,1.386670589E1,2.144115695E1
8.508017290E-1,1.574836254E1,-4.366901398E0,1.379731464E1,2.138800229E1
8.531882390E-1,1.573879051E1,-4.314259052E0,1.371805191E1,2.131917696E1
8.555747500E-1,1.571486282E1,-4.252045631E0,1.363908863E1,2.123820954E1
8.579612080E-1,1.568136311E1,-4.184747696E0,1.354337597E1,2.113859728E1
8.603477190E-1,1.563589954E1,-4.112963200E0,1.342134190E1,2.101262095E1
8.627342290E-1,1.558086491E1,-4.033999920E0,1.329212952E1,2.087384041E1
8.651207390E-1,1.553300858E1,-3.950251102E0,1.315065384E1,2.073206540E1
8.675071980E-1,1.548993778E1,-3.861716747E0,1.300229931E1,2.058909459E1
8.698937080E-1,1.547079468E1,-3.773182154E0,1.284437275E1,2.045874637E1
8.722802190E-1,1.546600914E1,-3.694219112E0,1.267926788E1,2.033736777E1
8.746667290E-1,1.548275852E1,-3.634099483E0,1.251386452E1,2.023658310E1
8.770531870E-1,1.550668716E1,-3.586242914E0,1.236311626E1,2.015353887E1
8.794396980E-1,1.553540134E1,-3.555136204E0,1.222433281E1,2.008536783E1
8.818262080E-1,1.556650734E1,-3.540779352E0,1.208315659E1,2.002138712E1
8.842127190E-1,1.558804321E1,-3.538386583E0,1.193928814E1,1.995128748E1
8.865991770E-1,1.559522152E1,-3.545564890E0,1.178614712E1,1.986693808E1
8.889856870E-1,1.559043598E1,-3.562314749E0,1.161625671E1,1.976585947E1
8.913721980E-1,1.557368660E1,-3.588635683E0,1.144606686E1,1.965783474E1
8.937587080E-1,1.555215073E1,-3.612564087E0,1.127139091E1,1.954390607E1
8.961451670E-1,1.552343655E1,-3.634099483E0,1.110867882E1,1.943158528E1
8.985316770E-1,1.548993778E1,-3.653541088E0,1.096032429E1,1.932395517E1
9.009181870E-1,1.544925976E1,-3.665505171E0,1.082363415E1,1.921631108E1
9.033046980E-1,1.540828228E1,-3.675076485E0,1.070399284E1,1.911797094E1
9.056911560E-1,1.536042595E1,-3.694219112E0,1.059153080E1,1.902026458E1
9.080776670E-1,1.531017685E1,-3.725325823E0,1.049103165E1,1.892990525E1
9.104641770E-1,1.526949883E1,-3.770789385E0,1.041446114E1,1.886365415E1
9.128506870E-1,1.523360634E1,-3.835395575E0,1.037109184E1,1.882372352E1
9.152371460E-1,1.520010662E1,-3.909573078E0,1.034955597E1,1.880003489E1
9.176236560E-1,1.515703583E1,-3.990929127E0,1.034237766E1,1.877839253E1
9.200101670E-1,1.509721565E1,-4.067499161E0,1.034716320E1,1.874924682E1
9.223966770E-1,1.501825237E1,-4.139284134E0,1.035434151E1,1.870545283E1
9.247831350E-1,1.492732525E1,-4.203890324E0,1.036869907E1,1.865496324E1
9.271696460E-1,1.482174206E1,-4.264009953E0,1.037587738E1,1.858829336E1
9.295561560E-1,1.470449352E1,-4.328616142E0,1.038066292E1,1.851262299E1
9.319426140E-1,1.458245945E1,-4.398007870E0,1.038814068E1,1.843648729E1
9.343291250E-1,1.446521091E1,-4.465006828E0,1.039053345E1,1.836142146E1
9.367156350E-1,1.435753441E1,-4.534399033E0,1.038066292E1,1.828818557E1
9.391021460E-1,1.425195122E1,-4.596612453E0,1.034716320E1,1.820194346E1
9.414886560E-1,1.414666653E1,-4.639683247E0,1.029691410E1,1.810196880E1
9.438751140E-1,1.404377556E1,-4.682754040E0,1.022752190E1,1.799327712E1
9.462616250E-1,1.394566917E1,-4.716253281E0,1.013420200E1,1.787251476E1
9.486481350E-1,1.385474205E1,-4.747360229E0,1.001934624E1,1.774481912E1
9.510345940E-1,1.375663662E1,-4.773980141E0,9.887741089E0,1.760123181E1
9.534211040E-1,1.366062450E1,-4.805087090E0,9.736694336E0,1.745006419E1
9.558076140E-1,1.357209015E1,-4.829015255E0,9.571589470E0,1.729555851E1
9.581941250E-1,1.349551964E1,-4.850550652E0,9.401699066E0,1.714785226E1
9.605805830E-1,1.343091393E1,-4.864907742E0,9.231510162E0,1.700816145E1
9.629670940E-1,1.338305664E1,-4.869693279E0,9.068798065E0,1.688381521E1
9.653536040E-1,1.334955788E1,-4.864907742E0,8.918049812E0,1.677526856E1
9.677401140E-1,1.331845093E1,-4.852943420E0,8.769695282E0,1.666852574E1
9.701265730E-1,1.328973675E1,-4.829015255E0,8.606683731E0,1.655329260E1
9.725130830E-1,1.325623703E1,-4.793122768E0,8.427222252E0,1.642315198E1
9.748995940E-1,1.321077347E1,-4.754538536E0,8.226224899E0,1.627270563E1
9.772861040E-1,1.315543938E1,-4.706682205E0,8.010572433E0,1.610551810E1
9.796725620E-1,1.308604813E1,-4.656432629E0,7.800003529E0,1.593006828E1
9.820590730E-1,1.299990654E1,-4.603790760E0,7.599006653E0,1.574602685E1
9.844455830E-1,1.290658665E1,-4.536791801E0,7.395317554E0,1.555162951E1
9.868320940E-1,1.280130196E1,-4.457828522E0,7.189534664E0,1.534389050E1
9.892185520E-1,1.268166065E1,-4.352544308E0,6.983452797E0,1.511746579E1
9.916050620E-1,1.254736328E1,-4.225724697E0,6.758527756E0,1.486508567E1
9.939915730E-1,1.240140152E1,-4.077070713E0,6.471388817E0,1.457038567E1
9.963780830E-1,1.227218914E1,-3.892823458E0,5.901597977E0,1.416296436E1
9.987645420E-1,1.216690540E1,-3.677469254E0,4.946263313E0,1.363902078E1
1.001151052E0,1.208076286E1,-3.440280676E0,3.854538202E0,1.313917148E1
1.003537562E0,1.198714447E1,-3.181855917E0,2.942274570E0,1.274648262E1
1.005924073E0,1.187468147E1,-2.951845884E0,2.372483730E0,1.246395336E1
1.008310531E0,1.174786186E1,-2.734098911E0,2.128415823E0,1.224817166E1
1.010697042E0,1.162343502E1,-2.520838737E0,2.082952023E0,1.207466599E1
1.013083552E0,1.153011513E1,-2.331805706E0,2.130808592E0,1.195496625E1
1.015470010E0,1.149631596E1,-2.209771633E0,2.226521492E0,1.191661736E1
1.017856521E0,1.153250790E1,-2.183450699E0,2.408375978E0,1.198192264E1
1.020243031E0,1.159472084E1,-2.240878344E0,2.705385208E0,1.211520517E1
1.022629542E0,1.164975643E1,-2.355733871E0,3.090928555E0,1.228088540E1
1.025016000E0,1.166411304E1,-2.504088879E0,3.490530014E0,1.243003596E1
1.027402510E0,1.162582779E1,-2.669492722E0,3.902394533E0,1.255048789E1
1.029789021E0,1.154686451E1,-2.853740215E0,4.333401680E0,1.265907909E1
1.032175531E0,1.144128132E1,-3.035594702E0,4.742574692E0,1.275185352E1
1.034561989E0,1.129771233E1,-3.200998545E0,5.075475693E0,1.279238637E1
1.036948500E0,1.111107159E1,-3.337389469E0,5.307579517E0,1.275791835E1
1.039335010E0,1.089302635E1,-3.442673683E0,5.434698582E0,1.265092779E1
1.041721521E0,1.064656544E1,-3.519243956E0,5.470590591E0,1.247644962E1
1.044107979E0,1.037348461E1,-3.559921980E0,5.398806095E0,1.222412920E1
1.046494489E0,1.008634567E1,-3.567100286E0,5.223830700E0,1.190575410E1
1.048881000E0,9.786943436E0,-3.535993576E0,4.974977493E0,1.153420623E1
1.051267510E0,9.471091270E0,-3.471387386E0,4.668396950E0,1.111512619E1
1.053653969E0,9.138189316E0,-3.392424345E0,4.333401680E0,1.066739973E1
1.056040479E0,8.817551613E0,-3.313461065E0,4.007678986E0,1.023668557E1
1.058426989E0,8.520542145E0,-3.239283562E0,3.684647799E0,9.832050947E0
1.060813448E0,8.257331848E0,-3.169891834E0,3.370888948E0,9.465444300E0
1.063199958E0,8.027321815E0,-3.110071182E0,3.093321562E0,9.147626827E0
1.065586469E0,7.823931694E0,-3.066701412E0,2.860918522E0,8.877129012E0
1.067972979E0,7.661220074E0,-3.040380239E0,2.664707184E0,8.662497873E0
1.070359437E0,7.541279793E0,-3.057130098E0,2.535494804E0,8.523243470E0
1.072745948E0,7.431210041E0,-3.112463951E0,2.482553482E0,8.430503325E0
1.075132458E0,7.323532581E0,-3.208176851E0,2.489732027E0,8.374084651E0
1.077518969E0,7.206284523E0,-3.325425386E0,2.499303341E0,8.320787692E0
1.079905427E0,7.069893837E0,-3.449851990E0,2.508874655E0,8.257077549E0
1.082291937E0,6.918846607E0,-3.571886063E0,2.533101797E0,8.188126351E0
1.084678448E0,6.772884369E0,-3.699004650E0,2.585743904E0,8.138837117E0
1.087064958E0,6.643671989E0,-3.835395575E0,2.655135870E0,8.117781914E0
1.089451417E0,6.547959328E0,-3.974179268E0,2.729313374E0,8.131360507E0
1.091837927E0,6.437590122E0,-4.103391647E0,2.789133787E0,8.127709202E0
1.094224437E0,6.253343105E0,-4.208974838E0,2.832204819E0,8.052400469E0
1.096610896E0,6.026024818E0,-4.307080746E0,2.860918522E0,7.940325840E0
1.098997406E0,5.779264927E0,-4.400400639E0,2.875275612E0,7.812210873E0
1.101383917E0,5.542375565E0,-4.491328239E0,2.875275612E0,7.691369585E0
1.103770427E0,5.300401211E0,-4.575077057E0,2.872882605E0,7.568291586E0
1.106156937E0,5.061119080E0,-4.651647091E0,2.870489836E0,7.449326070E0
1.108543396E0,4.857728958E0,-4.730610371E0,2.880061150E0,7.366882471E0
1.110929906E0,4.632504463E0,-4.795515537E0,2.911167860E0,7.275435738E0
1.113316417E0,4.386044025E0,-4.852943420E0,2.954238653E0,7.177462508E0
1.115702875E0,4.158426762E0,-4.910371304E0,3.021237612E0,7.108595936E0
1.118089385E0,3.950251102E0,-4.965405941E0,3.117249727E0,7.069440274E0
1.120475896E0,3.770789385E0,-5.020441055E0,3.251247883E0,7.070664309E0
1.122862406E0,3.626920938E0,-5.068297386E0,3.411566973E0,7.104997051E0
1.125248864E0,3.550350666E0,-5.111368179E0,3.595814228E0,7.187555529E0
1.127635375E0,3.535993576E0,-5.152046204E0,3.794717550E0,7.310725815E0
1.130021885E0,3.504886866E0,-5.164010525E0,3.971786499E0,7.397724288E0
1.132408344E0,3.464209080E0,-5.156831741E0,4.093820572E0,7.439961360E0
1.134794854E0,3.413959742E0,-5.135296345E0,4.163212299E0,7.440344502E0
1.137181364E0,3.354139090E0,-5.104189873E0,4.196712017E0,7.410492227E0
1.139567875E0,3.299104214E0,-5.073082924E0,4.211368084E0,7.372644038E0
1.141954333E0,3.265604734E0,-5.044369221E0,4.223331928E0,7.344819106E0
1.144340844E0,3.227319479E0,-5.018048286E0,4.213760853E0,7.304257673E0
1.146727354E0,3.165106058E0,-4.989334106E0,4.172783375E0,7.233496546E0
1.149113864E0,3.090928555E0,-4.972584724E0,4.120141506E0,7.159329871E0
1.151500323E0,3.009273529E0,-4.972584724E0,4.060320854E0,7.090030427E0
1.153886833E0,2.913560629E0,-4.982155800E0,3.988536358E0,7.015634984E0
1.156273344E0,2.801098108E0,-5.001298428E0,3.914358854E0,6.941278111E0
1.158659854E0,2.683849812E0,-5.034798145E0,3.854538202E0,6.885470712E0
1.161046312E0,2.530709028E0,-5.075475693E0,3.833002806E0,6.845206513E0
1.163432823E0,2.379662037E0,-5.140082359E0,3.847359657E0,6.847292487E0
1.165819333E0,2.224128723E0,-5.216652393E0,3.876073599E0,6.869072522E0
1.168205792E0,2.003988981E0,-5.283651352E0,3.933501244E0,6.885156170E0
1.170592302E0,1.807478428E0,-5.372485161E0,4.017250061E0,6.947580379E0
1.172978812E0,1.611266971E0,-5.472983360E0,4.117748737E0,7.036020379E0
1.175365323E0,1.415055513E0,-5.583053589E0,4.218546391E0,7.139257884E0
1.177751781E0,1.240080357E0,-5.705087185E0,4.352544308E0,7.282201661E0
1.180138292E0,1.103689432E0,-5.841478348E0,4.508078098E0,7.460815491E0
1.182524802E0,9.912267923E-1,-5.975775242E0,4.663611412E0,7.644716587E0
1.184911312E0,8.907282352E-1,-6.093023777E0,4.819443703E0,7.819550699E0
1.187297771E0,8.066803217E-1,-6.188736439E0,4.972584724E0,7.979836508E0
1.189684281E0,7.157530785E-1,-6.270092487E0,5.125725269E0,8.130155091E0
1.192070792E0,6.128616929E-1,-6.325127602E0,5.252544880E0,8.244517351E0
1.194457250E0,5.315057039E-1,-6.346662998E0,5.362913609E0,8.326071817E0
1.196843760E0,4.764707983E-1,-6.339484692E0,5.468197823E0,8.385539816E0
1.199230271E0,4.238287210E-1,-6.310770512E0,5.547161102E0,8.412874154E0
1.201616781E0,3.400799036E-1,-6.255735874E0,5.606981754E0,8.407623330E0
1.204003239E0,2.608176768E-1,-6.195915222E0,5.647659779E0,8.387696482E0
1.206389750E0,1.770688742E-1,-6.121737480E0,5.657230854E0,8.337342748E0
1.208776260E0,9.092725813E-2,-6.049952984E0,5.633302689E0,8.267061029E0
1.211162719E0,9.571290575E-3,-5.978168488E0,5.580660820E0,8.178163930E0
1.213549229E0,-6.221338734E-2,-5.903990746E0,5.535196781E0,8.093168764E0
1.215935739E0,-1.292124242E-1,-5.827121258E0,5.482554913E0,8.001902672E0
1.218322250E0,-2.297109663E-1,-5.745765209E0,5.415555954E0,7.899039895E0
1.220708708E0,-3.352942765E-1,-5.662016392E0,5.331807137E0,7.784537187E0
1.223095219E0,-4.238287210E-1,-5.573482037E0,5.245366573E0,7.665324735E0
1.225481729E0,-4.812564552E-1,-5.496912003E0,5.164010525E0,7.557423770E0
1.227868239E0,-5.410770178E-1,-5.432305813E0,5.094618320E0,7.467117691E0
1.230254698E0,-6.152545214E-1,-5.386841774E0,5.041976452E0,7.403926591E0
1.232641208E0,-7.325028181E-1,-5.384449005E0,4.974977493E0,7.367445455E0
1.235027719E0,-8.691928387E-1,-5.437091351E0,4.934299469E0,7.393562727E0
1.237414177E0,-1.048654556E0,-5.513661385E0,4.955834866E0,7.487351832E0
1.239800687E0,-1.256830096E0,-5.590231895E0,5.020441055E0,7.618080003E0
1.242187198E0,-1.438983679E0,-5.635695457E0,5.089832783E0,7.729044900E0
1.244573708E0,-1.525125384E0,-5.640480995E0,5.159224510E0,7.794782283E0
1.246960167E0,-1.522732496E0,-5.592624664E0,5.233402252E0,7.809267829E0
1.249346677E0,-1.460519075E0,-5.494519234E0,5.302793980E0,7.774476289E0
1.251733187E0,-1.393221021E0,-5.365306377E0,5.398806095E0,7.737873389E0
1.254119698E0,-1.338186026E0,-5.223830700E0,5.516054630E0,7.714013722E0
1.256506156E0,-1.299900889E0,-5.087440014E0,5.628517151E0,7.697531652E0
1.258892667E0,-1.230509043E0,-4.958227634E0,5.738586903E0,7.683069271E0
1.261279177E0,-1.137188911E0,-4.860121727E0,5.870192051E0,7.705396585E0
1.263665687E0,-1.074975610E0,-4.819443703E0,6.037988663E0,7.799994696E0
1.266052146E0,-1.003190875E0,-4.790730000E0,6.188736439E0,7.890370370E0
1.268438656E0,-9.050851464E-1,-4.749752998E0,6.334698677E0,7.969174361E0
1.270825167E0,-8.018946648E-1,-4.701896667E0,6.488138676E0,8.052751753E0
1.273211625E0,-6.966105103E-1,-4.625326157E0,6.648457527E0,8.129015669E0
1.275598135E0,-5.626124144E-1,-4.515256405E0,6.782455921E0,8.167360740E0
1.277984646E0,-4.070789516E-1,-4.366901398E0,6.873383045E0,8.153461570E0
1.280371156E0,-2.512463629E-1,-4.196712017E0,6.921239376E0,8.098090577E0
1.282757614E0,-1.507478207E-1,-4.017250061E0,6.926024914E0,8.008173579E0
1.285144125E0,-2.153540403E-1,-3.799503326E0,6.885347366E0,7.867058615E0
1.287530635E0,-3.448655605E-1,-3.598206997E0,6.849454880E0,7.744743895E0
1.289917146E0,-4.597210586E-1,-3.418745279E0,6.777669907E0,7.604996522E0
1.292303604E0,-5.817549825E-1,-3.260818958E0,6.698707104E0,7.472888063E0
1.294690114E0,-7.133602500E-1,-3.141177893E0,6.689135551E0,7.424312482E0
1.297076625E0,-8.042874932E-1,-3.083451033E0,6.741777897E0,7.456950976E0
1.299463083E0,-7.995018363E-1,-3.114856958E0,6.868597507E0,7.584139290E0
1.301849594E0,-6.894320250E-1,-3.212962627E0,7.038786888E0,7.768073520E0
1.304236104E0,-5.075774789E-1,-3.368496180E0,7.208677292E0,7.973043942E0
1.306622614E0,-2.922234535E-1,-3.552743435E0,7.349853992E0,8.168704559E0
1.309009073E0,-7.657032460E-2,-3.744468451E0,7.491030216E0,8.375108399E0
1.311395583E0,1.555334777E-1,-3.964607954E0,7.666005611E0,8.631914557E0
1.313782094E0,3.711866140E-1,-4.201497555E0,7.833503246E0,8.896860925E0
1.316168604E0,5.267201066E-1,-4.441078663E0,7.941180229E0,9.113888149E0
1.318555062E0,6.439684033E-1,-4.694717884E0,7.981858253E0,9.282517573E0
1.320941573E0,7.564310431E-1,-4.955834866E0,7.965108395E0,9.411452538E0
1.323328083E0,8.763712645E-1,-5.219045162E0,7.902894974E0,9.511162283E0
1.325714542E0,9.912267923E-1,-5.461019516E0,7.790432453E0,9.565359508E0
1.328101052E0,1.103689432E0,-5.671587944E0,7.622934818E0,9.565258774E0
1.330487562E0,1.256830096E0,-5.865406513E0,7.483851910E0,9.591175885E0
1.332874073E0,1.458126307E0,-6.047560215E0,7.383353233E0,9.654689112E0
1.335260531E0,1.695015788E0,-6.229414463E0,7.318747044E0,9.759238770E0
1.337647042E0,1.970489502E0,-6.425626278E0,7.301997185E0,9.924246310E0
1.340033552E0,2.226521492E0,-6.624529362E0,7.318747044E0,1.011957734E1
1.342420062E0,2.480160713E0,-6.835097790E0,7.371389389E0,1.035408810E1
1.344806521E0,2.741277456E0,-7.069893837E0,7.507780075E0,1.067074330E1
1.347193031E0,2.970988512E0,-7.290033340E0,7.620542049E0,1.095646019E1
1.349579542E0,3.177070379E0,-7.483851910E0,7.689933777E0,1.119092923E1
1.351966000E0,3.382853031E0,-7.601399422E0,7.749754429E0,1.137029734E1
1.354352510E0,3.581457376E0,-7.589435101E0,7.783253670E0,1.144575903E1
1.356739021E0,3.751646757E0,-7.486244678E0,7.785646915E0,1.143394117E1
1.359125531E0,3.900001764E0,-7.345067978E0,7.785646915E0,1.139194168E1
1.361511989E0,4.026821613E0,-7.199106216E0,7.790432453E0,1.134606806E1
1.363898500E0,4.132105827E0,-7.139285564E0,7.771289825E0,1.133298912E1
1.366285010E0,4.203890324E0,-7.273283482E0,7.673183918E0,1.137765784E1
1.368671469E0,4.256831646E0,-7.572386265E0,7.543672562E0,1.150515733E1
1.371057979E0,4.314259052E0,-8.001000404E0,7.424031258E0,1.173648494E1
1.373444489E0,4.402793884E0,-8.484649658E0,7.357032299E0,1.206232971E1
1.375831000E0,4.527220249E0,-8.999405861E0,7.345067978E0,1.246735949E1
1.378217458E0,4.685146809E0,-9.542876244E0,7.392924786E0,1.294883873E1
1.380603969E0,4.884049892E0,-1.010788059E1,7.471887589E0,1.348526224E1
1.382990479E0,5.087440014E0,-1.066810036E1,7.567600727E0,1.403420792E1
1.385376989E0,5.257330418E0,-1.116849995E1,7.651648521E0,1.452317594E1
1.387763448E0,5.374877930E0,-1.158036423E1,7.675576687E0,1.489659780E1
1.390149958E0,5.458626747E0,-1.187946701E1,7.634898663E0,1.513968362E1
1.392536469E0,5.513661385E0,-1.209512043E1,7.505387306E0,1.526509871E1
1.394922979E0,5.549553871E0,-1.225065327E1,7.318747044E0,1.531143729E1
1.397309437E0,5.587839127E0,-1.236550903E1,7.110571384E0,1.531959481E1
1.399695948E0,5.618945599E0,-1.245643616E1,6.933203697E0,1.532333726E1
1.402082458E0,5.633302689E0,-1.250907898E1,6.803991318E0,1.531357091E1
1.404468917E0,5.611767292E0,-1.252104282E1,6.722635269E0,1.527947219E1
1.406855427E0,5.549553871E0,-1.248993587E1,6.674778938E0,1.521015188E1
1.409241937E0,5.482554913E0,-1.242293739E1,6.643671989E0,1.511708171E1
1.411628448E0,5.422734261E0,-1.233200932E1,6.622136593E0,1.501123558E1
1.414014906E0,5.370092392E0,-1.223151112E1,6.598208427E0,1.489913121E1
1.416401417E0,5.329114914E0,-1.212862015E1,6.574280262E0,1.478932228E1
1.418787927E0,5.293222904E0,-1.202303600E1,6.555137634E0,1.468132940E1
1.421174385E0,5.266901970E0,-1.192732334E1,6.557530403E0,1.459460529E1
1.423560896E0,5.238187790E0,-1.183639622E1,6.581458569E0,1.452082930E1
1.425947406E0,5.209474087E0,-1.175743294E1,6.595815659E0,1.445270334E1
1.428333917E0,5.204688549E0,-1.170479107E1,6.598208427E0,1.440927727E1
1.430720375E0,5.221437931E0,-1.166650581E1,6.588637352E0,1.437987879E1
1.433106885E0,5.233402252E0,-1.160907841E1,6.581458569E0,1.433439212E1
1.435493396E0,5.228616714E0,-1.152772236E1,6.602993965E0,1.427677642E1
1.437879906E0,5.209474087E0,-1.142213917E1,6.665207386E0,1.421368611E1
1.440266364E0,5.192724228E0,-1.132403278E1,6.760920525E0,1.417420720E1
1.442652875E0,5.192724228E0,-1.125464153E1,6.885347366E0,1.417883455E1
1.445039385E0,5.197509766E0,-1.120917797E1,6.997809887E0,1.419961696E1
1.447425844E0,5.197509766E0,-1.119242764E1,7.098607540E0,1.423638905E1
1.449812354E0,5.171188831E0,-1.115174961E1,7.223034382E0,1.425745205E1
1.452198864E0,5.135296345E0,-1.109192944E1,7.357032299E0,1.426632719E1
1.454585375E0,5.104189873E0,-1.099143124E1,7.455138206E0,1.422826063E1
1.456971833E0,5.056333542E0,-1.085234833E1,7.519744396E0,1.413812325E1
1.459358344E0,5.025226593E0,-1.072313595E1,7.572386265E0,1.405630039E1
1.461744854E0,4.996512890E0,-1.059153080E1,7.654041290E0,1.399035431E1
1.464131312E0,4.907978535E0,-1.040728283E1,7.778468132E0,1.388900125E1
1.466517823E0,4.793122768E0,-1.018445110E1,7.953144073E0,1.378221937E1
1.468904333E0,4.685146809E0,-9.949954987E0,8.161619186E0,1.369540918E1
1.471290844E0,4.579862595E0,-9.698409081E0,8.367402077E0,1.360322379E1
1.473677302E0,4.419543266E0,-9.394520760E0,8.592327118E0,1.347655254E1
1.476063812E0,4.170390606E0,-8.987442017E0,8.822337151E0,1.326649557E1
1.478450323E0,3.878466368E0,-8.487042427E0,9.013762474E0,1.297383153E1
1.480836833E0,3.602992773E0,-7.965108395E0,9.145368576E0,1.265157204E1
1.483223292E0,3.373281717E0,-7.457530975E0,9.233902931E0,1.233931769E1
1.485609802E0,3.203391314E0,-6.997809887E0,9.334700584E0,1.209825170E1
1.487996312E0,3.078665495E0,-6.602993965E0,9.492626190E0,1.196610473E1
1.490382823E0,2.997309446E0,-6.238986015E0,9.650552750E0,1.187610958E1
1.492769281E0,2.954238653E0,-5.911169052E0,9.722337723E0,1.175556449E1
1.495155792E0,2.942274570E0,-5.645267010E0,9.739087105E0,1.163511224E1
1.497542302E0,2.944667339E0,-5.408377171E0,9.693623543E0,1.148424777E1
1.499928760E0,2.954238653E0,-5.195116997E0,9.638588905E0,1.134103887E1
1.502315271E0,2.963809967E0,-4.996512890E0,9.636196136E0,1.125191480E1
1.504701781E0,2.997309446E0,-4.809872627E0,9.765408516E0,1.129079014E1
1.507088292E0,3.061915636E0,-4.642076015E0,1.008395290E1,1.151565470E1
1.509474750E0,3.155534744E0,-4.496113777E0,1.047906780E1,1.183145387E1
1.511861260E0,3.215355396E0,-4.338187218E0,1.046710396E1,1.177788792E1
1.514247771E0,3.198605776E0,-4.158426762E0,9.878170013E0,1.118489315E1
1.516634281E0,3.153141975E0,-4.012464523E0,9.248259544E0,1.056278753E1
1.519020739E0,3.119642496E0,-3.856930971E0,8.865407944E0,1.015891450E1
1.521407250E0,3.114856958E0,-3.663112402E0,8.712266922E0,9.951096485E0
1.523793760E0,3.114856958E0,-3.454637766E0,8.712266922E0,9.876256927E0
1.526180219E0,3.155534744E0,-3.251247883E0,8.908478737E0,9.994448745E0
1.528566729E0,3.162713289E0,-2.997309446E0,9.248259544E0,1.022335189E1
1.530953239E0,3.085843801E0,-2.722134829E0,9.332307816E0,1.019923620E1
1.533339750E0,2.911167860E0,-2.463410854E0,9.102297783E0,9.868896406E0
1.535726208E0,2.676671267E0,-2.224128723E0,8.688039780E0,9.359132057E0
1.538112719E0,2.427518606E0,-1.984846354E0,8.247760773E0,8.823719136E0
1.540499229E0,2.166700840E0,-1.697408557E0,7.835896015E0,8.305242603E0
1.542885739E0,1.903191328E0,-1.364507079E0,7.486244678E0,7.843970690E0
1.545272198E0,1.628016710E0,-9.888339639E-1,7.199106216E0,7.446835659E0
1.547658708E0,1.342971683E0,-6.008976102E-1,6.928418159E0,7.082911059E0
1.550045219E0,1.079761267E0,-2.488535494E-1,6.674778938E0,6.766127870E0
1.552431677E0,8.883354068E-1,2.632104978E-2,6.428019047E0,6.489164928E0
1.554818187E0,7.348956466E-1,2.321037948E-1,6.162415504E0,6.210419360E0
1.557204698E0,5.865406394E-1,3.879363835E-1,5.853442192E0,5.895533059E0
1.559591208E0,4.477569461E-1,5.099703074E-1,5.511268616E0,5.552894538E0
1.561977667E0,3.065803945E-1,6.104688644E-1,5.149653435E0,5.194766046E0
1.564364177E0,1.579262912E-1,6.942176819E-1,4.807479858E0,4.859911675E0
1.566750687E0,1.196411345E-2,7.731808424E-1,4.491328239E0,4.557409474E0
1.569137198E0,-1.435693651E-1,8.524430394E-1,4.196712017E0,4.284817739E0
1.571523656E0,-3.089732230E-1,9.266205430E-1,3.938287020E0,4.057609485E0
1.573910167E0,-4.956133962E-1,9.984052777E-1,3.706183195E0,3.870173073E0
1.576296677E0,-6.894320250E-1,1.058225870E0,3.497708559E0,3.718752973E0
1.578683187E0,-8.811569214E-1,1.094118118E0,3.330210924E0,3.614393002E0
1.581069646E0,-1.082154036E0,1.108475089E0,3.205784082E0,3.560453056E0
1.583456156E0,-1.292722464E0,1.094118118E0,3.122035265E0,3.551806585E0
1.585842667E0,-1.508375525E0,1.041476011E0,3.071486950E0,3.576856314E0
1.588229125E0,-1.747657895E0,9.457631707E-1,3.049951553E0,3.640189634E0
1.590615635E0,-2.018345833E0,8.114659786E-1,3.061915636E0,3.755998442E0
1.593002146E0,-2.317448616E0,6.224330068E-1,3.119642496E0,3.935754088E0
1.595388604E0,-2.621636391E0,3.759722710E-1,3.212962627E0,4.163827729E0
1.597775114E0,-2.918346405E0,8.135596663E-2,3.325425386E0,4.425134861E0
1.600161625E0,-3.210569859E0,-2.560320199E-1,3.461816072E0,4.728369881E0
1.602548135E0,-3.504886866E0,-6.391827464E-1,3.624528170E0,5.082321416E0
1.604934594E0,-3.794717550E0,-1.063011408E0,3.821038723E0,5.489099331E0
1.607321104E0,-4.053142548E0,-1.520339727E0,4.036392689E0,5.918772114E0
1.609707614E0,-4.266402721E0,-1.994417667E0,4.261617184E0,6.351478177E0
1.612094125E0,-4.429114819E0,-2.458625317E0,4.486542225E0,6.766901629E0
1.614480583E0,-4.543970108E0,-2.889632463E0,4.699503899E0,7.147235620E0
1.616867094E0,-4.599005222E0,-3.275176048E0,4.874478817E0,7.459099873E0
1.619253604E0,-4.589433670E0,-3.602992773E0,5.013262749E0,7.692675849E0
1.621640062E0,-4.512863636E0,-3.868895054E0,5.116153717E0,7.842787514E0
1.624026573E0,-4.381258488E0,-4.079463482E0,5.175974369E0,7.913795480E0
1.626413083E0,-4.208974838E0,-4.268795490E0,5.231009483E0,7.956226765E0
1.628799594E0,-3.995714664E0,-4.453042984E0,5.238187790E0,7.951977038E0
1.631186052E0,-3.758825302E0,-4.639683247E0,5.216652393E0,7.928990508E0
1.633572562E0,-3.521636724E0,-4.833800793E0,5.190331459E0,7.918781218E0
1.635959073E0,-3.311068296E0,-5.034798145E0,5.128118038E0,7.912645591E0
1.638345531E0,-3.107678413E0,-5.233402252E0,5.049154758E0,7.908231663E0
1.640732042E0,-2.880061150E0,-5.413163185E0,4.951049328E0,7.880988348E0
1.643118552E0,-2.621636391E0,-5.559125423E0,4.860121727E0,7.835664365E0
1.645505062E0,-2.312663078E0,-5.671587944E0,4.785944462E0,7.773067909E0
1.647891521E0,-1.936690807E0,-5.760122299E0,4.733003139E0,7.702668298E0
1.650278031E0,-1.498804331E0,-5.836692810E0,4.735395908E0,7.664031041E0
1.652664542E0,-1.017547846E0,-5.913562298E0,4.778766155E0,7.670868832E0
1.655051052E0,-5.171487927E-1,-5.997310638E0,4.857728958E0,7.735160528E0
1.657437510E0,2.392822644E-3,-6.138487339E0,5.013262749E0,7.925518022E0
1.659824021E0,4.884349108E-1,-6.329913139E0,5.238187790E0,8.230733888E0
1.662210531E0,8.353942037E-1,-6.519245148E0,5.508875847E0,8.575905426E0
1.664597042E0,1.041476011E0,-6.722635269E0,5.851049423E0,8.972919068E0
1.666983500E0,1.185045362E0,-6.990631580E0,6.255735874E0,9.455553592E0
1.669370010E0,1.285543919E0,-7.306783199E0,6.674778938E0,9.979698280E0
1.671756521E0,1.345364571E0,-7.613363266E0,7.057929516E0,1.046841321E1
1.674142979E0,1.395613790E0,-7.886145115E0,7.385746002E0,1.089441447E1
1.676529489E0,1.474876046E0,-8.113463402E0,7.673183918E0,1.126415994E1
1.678916000E0,1.596910000E0,-8.298009872E0,7.924430370E0,1.158463146E1
1.681302510E0,1.781157374E0,-8.458329201E0,8.127820015E0,1.186496155E1
1.683688969E0,2.001596212E0,-8.580363274E0,8.250153542E0,1.207037923E1
1.686075479E0,2.236092806E0,-8.668897629E0,8.307580948E0,1.221334509E1
1.688461989E0,2.489732027E0,-8.748159409E0,8.295617104E0,1.231041517E1
1.690848448E0,2.755634308E0,-8.853444099E0,8.252546310E0,1.241295748E1
1.693234958E0,2.992523909E0,-8.982656479E0,8.178368568E0,1.251115619E1
1.695621469E0,3.186641455E0,-9.123832703E0,8.077570915E0,1.259548168E1
1.698007979E0,3.354139090E0,-9.294022560E0,8.020143509E0,1.272602869E1
1.700394437E0,3.492922783E0,-9.487840652E0,7.967501163E0,1.287247857E1
1.702780948E0,3.574278831E0,-9.664909363E0,7.886145115E0,1.297602508E1
1.705167458E0,3.617349625E0,-9.791728973E0,7.788039684E0,1.302369904E1
1.707553917E0,3.626920938E0,-9.847063065E0,7.661220074E0,1.299282492E1
1.709940427E0,3.607778311E0,-9.808479309E0,7.498209000E0,1.286256074E1
1.712326937E0,3.569493294E0,-9.696016312E0,7.301997185E0,1.265200291E1
1.714713448E0,3.533600807E0,-9.533304214E0,7.093822002E0,1.239727932E1
1.717099906E0,3.495315790E0,-9.320343018E0,6.856633186E0,1.208716034E1
1.719486417E0,3.464209080E0,-9.090332985E0,6.607779503E0,1.176000205E1
1.721872927E0,3.421138287E0,-8.841479301E0,6.358626842E0,1.141525640E1
1.724259437E0,3.361317635E0,-8.599505424E0,6.112166405E0,1.107287352E1
1.726645896E0,3.291925669E0,-8.367402077E0,5.886941910E0,1.074738467E1
1.729032406E0,3.215355396E0,-8.159226418E0,5.664409637E0,1.044016392E1
1.731418917E0,3.155534744E0,-8.024929047E0,5.477769375E0,1.021581338E1
1.733805427E0,3.095714331E0,-7.955537319E0,5.302793980E0,1.004955946E1
1.736191885E0,3.023630619E0,-7.938787460E0,5.137689114E0,9.927866734E0
1.738578396E0,2.968595505E0,-7.977072716E0,4.979763031E0,9.861251859E0
1.740964906E0,2.925524712E0,-8.060821533E0,4.862514496E0,9.857970676E0
1.743351364E0,2.834597588E0,-8.108677864E0,4.733003139E0,9.807492998E0
1.745737875E0,2.705385208E0,-8.099106789E0,4.599005222E0,9.698736461E0
1.748124385E0,2.547458887E0,-8.029714584E0,4.476971149E0,9.539870741E0
1.750510896E0,2.394019127E0,-7.934001446E0,4.371686935E0,9.369704007E0
1.752897354E0,2.233700037E0,-7.821538925E0,4.247260094E0,9.176333980E0
1.755283864E0,2.037488461E0,-7.682755470E0,4.100998878E0,8.943952294E0
1.757670375E0,1.840977907E0,-7.529315472E0,3.928715706E0,8.689913591E0
1.760056833E0,1.673480392E0,-7.404888630E0,3.792324781E0,8.486143971E0
1.762443344E0,1.537089467E0,-7.313961506E0,3.682255030E0,8.331607230E0
1.764829854E0,1.450947881E0,-7.280461788E0,3.610171080E0,8.254920280E0
1.767216364E0,1.400399446E0,-7.266105175E0,3.531208038E0,8.199197109E0
1.769602823E0,1.354935765E0,-7.244569778E0,3.457030535E0,8.140681932E0
1.771989333E0,1.280758262E0,-7.167999268E0,3.339782238E0,8.010911348E0
1.774375844E0,1.230509043E0,-7.096214771E0,3.267997503E0,7.908869974E0
1.776762354E0,1.194616675E0,-7.034001350E0,3.265604734E0,7.846557097E0
1.779148812E0,1.187438250E0,-7.022037029E0,3.193820000E0,7.805094479E0
1.781535323E0,1.259222865E0,-7.115357399E0,3.095714331E0,7.861132257E0
1.783921833E0,1.400399446E0,-7.347461224E0,2.906382322E0,8.024547541E0
1.786308292E0,1.647159338E0,-7.785646915E0,2.472982168E0,8.333371021E0
1.788694802E0,1.912762642E0,-8.233403206E0,2.193022013E0,8.732521676E0
1.791081312E0,2.197807550E0,-8.654540062E0,1.891227245E0,9.127330508E0
1.793467823E0,2.602493763E0,-9.116654396E0,1.513161182E0,9.600834231E0
1.795854281E0,3.037987471E0,-9.521340370E0,1.496411443E0,1.010566858E1
1.798240792E0,3.433102369E0,-9.870991707E0,2.078166485E0,1.065558281E1
1.800627302E0,3.543172121E0,-1.022034359E1,3.516851187E0,1.137443335E1
1.803013760E0,3.483351469E0,-1.049342442E1,5.618945599E0,1.240234829E1
1.805400271E0,3.687040567E0,-1.076859951E1,7.034001350E0,1.338036541E1
1.807786781E0,3.969393730E0,-1.096989536E1,7.342675209E0,1.378439589E1
1.810173292E0,4.433900356E0,-1.096032429E1,6.985845566E0,1.373281541E1
1.812559750E0,5.228616714E0,-1.072792149E1,6.703492641E0,1.368808043E1
1.814946260E0,6.191129684E0,-1.033998489E1,7.026822567E0,1.395068492E1
1.817332771E0,6.990631580E0,-9.916455269E0,7.898109436E0,1.447705590E1
1.819719229E0,7.459923744E0,-9.573982239E0,8.853444099E0,1.502315115E1
1.822105739E0,7.622934818E0,-9.368199348E0,9.495018959E0,1.536319235E1
1.824492250E0,7.682755470E0,-9.353842735E0,9.743872643E0,1.553905273E1
1.826878760E0,7.855038643E0,-9.550054550E0,9.727123260E0,1.573283512E1
1.829265219E0,8.190332413E0,-9.899705887E0,9.636196136E0,1.606057277E1
1.831651729E0,8.601898193E0,-1.024427223E1,9.576375008E0,1.645128337E1
1.834038239E0,8.961120605E0,-1.044317532E1,9.573982239E0,1.676373255E1
1.836424750E0,9.174081802E0,-1.042881870E1,9.605089188E0,1.688732586E1
1.838811208E0,9.207581520E0,-1.022512913E1,9.612267494E0,1.678477017E1
1.841197719E0,9.099904060E0,-9.904491425E0,9.521340370E0,1.647917251E1
1.843584229E0,8.901300430E0,-9.538089752E0,9.260522842E0,1.599892461E1
1.845970687E0,8.644968987E0,-9.176474571E0,8.791230202E0,1.536973984E1
1.848357198E0,8.355437279E0,-8.860622406E0,8.137690544E0,1.464738779E1
1.850743708E0,8.053643227E0,-8.592327118E0,7.354639530E0,1.388452294E1
1.853130219E0,7.752147198E0,-8.381758690E0,6.514459610E0,1.314487919E1
1.855516677E0,7.445566654E0,-8.204689980E0,5.676373482E0,1.244888013E1
1.857903187E0,7.134500027E0,-8.058428764E0,4.886443138E0,1.182018153E1
1.860289698E0,6.839883327E0,-7.922037601E0,4.160819530E0,1.126299706E1
1.862676156E0,6.574280262E0,-7.773682594E0,3.514458179E0,1.077045581E1
1.865062667E0,6.334698677E0,-7.594220638E0,2.942274570E0,1.031782797E1
1.867449177E0,6.119344711E0,-7.371389389E0,2.444268227E0,9.887275074E0
1.869835687E0,5.951847076E0,-7.112964630E0,1.977667928E0,9.483138715E0
1.872222146E0,5.831906796E0,-6.849454880E0,1.541875124E0,9.127077732E0
1.874608656E0,5.760122299E0,-6.591030121E0,1.151545882E0,8.828745374E0
1.876995167E0,5.733801365E0,-6.346662998E0,8.042874932E-1,8.590895627E0
1.879381625E0,5.733801365E0,-6.131309032E0,5.123631358E-1,8.410228566E0
1.881768135E0,5.738586903E0,-5.947061539E0,2.656033039E-1,8.268583053E0
1.884154646E0,5.721837044E0,-5.803193092E0,5.982056633E-2,8.149849552E0
1.886541156E0,5.662016392E0,-5.690730572E0,-7.896314561E-2,8.028018388E0
1.888927614E0,5.547161102E0,-5.595017433E0,-1.316052526E-1,7.879881745E0
1.891314125E0,5.379663467E0,-5.532804012E0,-1.268195957E-1,7.718081528E0
1.893700635E0,5.187938690E0,-5.525625706E0,-9.332008660E-2,7.579970708E0
1.896087094E0,4.989334106E0,-5.575874805E0,-5.264209956E-2,7.482419787E0
1.898473604E0,4.812265396E0,-5.700301647E0,-3.589234129E-2,7.460068724E0
1.900860114E0,4.670789719E0,-5.892026424E0,-4.307080805E-2,7.518916616E0
1.903246625E0,4.558327198E0,-6.131309032E0,-6.460621208E-2,7.640384235E0
1.905633083E0,4.469792843E0,-6.401698112E0,-1.028913707E-1,7.808416832E0
1.908019594E0,4.395615101E0,-6.677171707E0,-1.220339537E-1,7.995057624E0
1.910406104E0,4.335794449E0,-6.945167542E0,-1.028913707E-1,8.188104318E0
1.912792562E0,4.261617184E0,-7.182356358E0,-5.024927482E-2,8.351655456E0
1.915179073E0,4.170390606E0,-7.385746002E0,5.264209956E-2,8.481991099E0
1.917565583E0,4.067499161E0,-7.582256794E0,1.579262912E-1,8.605818278E0
1.919952042E0,3.964607954E0,-7.761718273E0,2.656033039E-1,8.719686456E0
1.922338552E0,3.868895054E0,-7.917252064E0,3.448655605E-1,8.818739220E0
1.924725062E0,3.799503326E0,-8.067999840E0,3.831507266E-1,8.926121858E0
1.927111573E0,3.763610840E0,-8.199904442E0,3.903291821E-1,9.030811496E0
1.929498031E0,3.725325823E0,-8.183154106E0,3.975076675E-1,9.000004220E0
1.931884542E0,3.653541088E0,-7.945965767E0,4.453641176E-1,8.757001978E0
1.934271052E0,3.591028690E0,-7.658827305E0,4.956133962E-1,8.473414623E0
1.936657562E0,3.567100286E0,-7.366603374E0,5.410770178E-1,8.202671155E0
1.939044021E0,3.579064369E0,-7.077072144E0,6.008976102E-1,7.953347083E0
1.941430531E0,3.614956856E0,-6.806384087E0,6.655037999E-1,7.735481414E0
1.943817042E0,3.667897940E0,-6.547959328E0,7.301099896E-1,7.540709996E0
1.946203500E0,3.737289906E0,-6.310770512E0,7.636095285E-1,7.374026024E0
1.948590010E0,3.816252947E0,-6.097809315E0,7.540382147E-1,7.232955041E0
1.950976521E0,3.902394533E0,-5.901597977E0,7.301099896E-1,7.112707105E0
1.953362979E0,3.983750582E0,-5.729015827E0,6.942176819E-1,7.012405382E0
1.955749489E0,4.055535316E0,-5.571089268E0,6.463612318E-1,6.921140453E0
1.958136000E0,4.110570431E0,-5.451447964E0,6.128616929E-1,6.854974371E0
1.960522510E0,4.139284134E0,-5.362913609E0,5.793621540E-1,6.799277610E0
1.962908969E0,4.146462440E0,-5.302793980E0,5.362913609E-1,6.752805579E0
1.965295479E0,4.139284134E0,-5.269294739E0,4.836492836E-1,6.718114082E0
1.967681989E0,4.115355968E0,-5.254937649E0,4.166502357E-1,6.687609577E0
1.970068500E0,4.074677944E0,-5.262115955E0,3.329014480E-1,6.663609236E0
1.972454958E0,4.022035599E0,-5.274080276E0,2.392822653E-1,6.637013570E0
1.974841469E0,3.962215185E0,-5.302793980E0,1.411765367E-1,6.621080273E0
1.977227979E0,3.888037682E0,-5.355735302E0,2.871387079E-2,6.618274860E0
1.979614437E0,3.794717550E0,-5.429912567E0,-8.614161611E-2,6.625047332E0
1.982000948E0,3.682255030E0,-5.528018475E0,-2.129612118E-1,6.645550604E0
1.984387458E0,3.564707518E0,-5.647659779E0,-3.376871049E-1,6.687094529E0
1.986773917E0,3.466601849E0,-5.757729530E0,-4.836492836E-1,6.738152147E0
1.989160427E0,3.421138287E0,-5.805585861E0,-6.607181430E-1,6.770935152E0
1.991546937E0,3.409173965E0,-5.793622017E0,-8.739784956E-1,6.778817125E0
1.993933448E0,3.483351469E0,-5.614160061E0,-1.072582722E0,6.693501650E0
1.996319906E0,3.626920938E0,-5.309972763E0,-1.268794179E0,6.554403475E0
1.998706417E0,3.782753468E0,-4.986941338E0,-1.436590910E0,6.422040263E0
2.001092927E0,3.919144392E0,-4.682754040E0,-1.568196177E0,6.304531498E0
2.003479385E0,4.038785458E0,-4.453042984E0,-1.637588024E0,6.230816506E0
2.005865896E0,4.136891365E0,-4.354937077E0,-1.654337764E0,6.230263280E0
2.008252406E0,4.223331928E0,-4.424329281E0,-1.601695657E0,6.322709161E0
2.010638864E0,4.299902439E0,-4.642076015E0,-1.496411443E0,6.502097963E0
2.013025375E0,4.350151539E0,-4.955834866E0,-1.357328653E0,6.732492755E0
2.015411885E0,4.366901398E0,-5.307579517E0,-1.185045362E0,6.974565267E0
2.017798396E0,4.354937077E0,-5.669195175E0,-1.010369420E0,7.219840527E0
2.020184854E0,4.314259052E0,-5.999703884E0,-8.162516356E-1,7.434752491E0
2.022571364E0,4.240081787E0,-6.255735874E0,-6.415755749E-1,7.584467292E0
2.024957875E0,4.136891365E0,-6.430411816E0,-4.884349108E-1,7.661764480E0
2.027344333E0,4.002892971E0,-6.500102520E0,-3.687937856E-1,7.642675825E0
2.029730844E0,3.833002806E0,-6.464210510E0,-2.874378264E-1,7.520674739E0
2.032117354E0,3.614956856E0,-6.315556049E0,-2.321037948E-1,7.280661608E0
2.034503864E0,3.380460262E0,-6.090631008E0,-2.057827413E-1,6.968905524E0
2.036890323E0,3.131606579E0,-5.836692810E0,-1.890329868E-1,6.626437670E0
2.039276833E0,2.844168901E0,-5.575874805E0,-1.914258152E-1,6.262293544E0
2.041663344E0,2.571387053E0,-5.288437366E0,-1.818545163E-1,5.883253540E0
2.044049802E0,2.315055847E0,-5.015655518E0,-1.603191197E-1,5.526480441E0
2.046436312E0,2.068595171E0,-4.793122768E0,-1.316052526E-1,5.222109899E0
2.048822823E0,1.826620936E0,-4.630111694E0,-7.417750359E-2,4.977949442E0
2.051209333E0,1.589731574E0,-4.496113777E0,9.571290575E-3,4.768896852E0
2.053595792E0,1.378864050E0,-4.412364960E0,9.571290761E-2,4.623785415E0
2.055982302E0,1.201795220E0,-4.390829563E0,1.938186288E-1,4.556452750E0
2.058368812E0,1.067797065E0,-4.433900356E0,2.922234535E-1,4.570017231E0
2.060755271E0,9.720842242E-1,-4.532006264E0,3.951148391E-1,4.651896844E0
2.063141781E0,9.122636318E-1,-4.663611412E0,4.860421121E-1,4.776791106E0
2.065528292E0,8.907282352E-1,-4.814658165E0,5.578267574E-1,4.928032135E0
2.067914750E0,8.979067206E-1,-4.970191956E0,6.296114326E-1,5.089740181E0
2.070301260E0,9.314061999E-1,-5.116153717E0,6.870391965E-1,5.245433178E0
2.072687771E0,9.768698215E-1,-5.250152111E0,7.516453862E-1,5.392897424E0
2.075074281E0,1.031904817E0,-5.365306377E0,8.330013752E-1,5.526774047E0
2.077460739E0,1.096511006E0,-5.451447964E0,9.122636318E-1,5.634966391E0
2.079847250E0,1.168295622E0,-5.520840168E0,9.792626500E-1,5.727438010E0
2.082233760E0,1.237687469E0,-5.566303730E0,1.043868899E0,5.797005241E0
2.084620219E0,1.299900889E0,-5.571089268E0,1.113260746E0,5.828046623E0
2.087006729E0,1.347757339E0,-5.532804012E0,1.192223907E0,5.818055339E0
2.089393239E0,1.378864050E0,-5.480162144E0,1.237687469E0,5.784921215E0
2.091779750E0,1.398006678E0,-5.427519798E0,1.275972724E0,5.748086658E0
2.094166208E0,1.400399446E0,-5.396413326E0,1.311864972E0,5.727423950E0
2.096552719E0,1.362114310E0,-5.415555954E0,1.316650629E0,5.737348740E0
2.098939229E0,1.278365493E0,-5.673980713E0,1.278365493E0,5.955039361E0
2.101325687E0,1.146760225E0,-6.315556049E0,1.161117196E0,6.522997805E0
2.103712198E0,9.744769931E-1,-7.383353233E0,9.266205430E-1,7.504807526E0
2.106098708E0,8.186444640E-1,-8.848658562E0,5.697908998E-1,8.904695322E0
2.108485167E0,6.750751138E-1,-1.067527866E1,1.052841991E-1,1.069712044E1
2.110871677E0,5.075774789E-1,-1.282762337E1,-3.711866140E-1,1.284302673E1
2.113258187E0,2.898306549E-1,-1.524317741E1,-7.588238716E-1,1.526480505E1
2.115644698E0,5.024927482E-2,-1.784806442E1,-9.840483069E-1,1.787524209E1
2.118031156E0,-1.938186288E-1,-2.052473450E1,-9.984052777E-1,2.054991739E1
2.120417667E0,-4.238287210E-1,-2.314846611E1,-7.779664397E-1,2.316541271E1
2.122804177E0,-6.367899179E-1,-2.563610268E1,-3.448655605E-1,2.564632906E1
2.125190635E0,-8.330013752E-1,-2.796790886E1,2.970091105E-1,2.798188756E1
2.127577146E0,-1.007976532E0,-3.006761169E1,1.185045362E0,3.010783324E1
2.129963656E0,-1.130010486E0,-3.187269592E1,2.257628202E0,3.197252812E1
2.132350114E0,-1.173081279E0,-3.340739441E1,3.447459221E0,3.360528375E1
2.134736625E0,-1.130010486E0,-3.482932663E1,4.579862595E0,3.514731937E1
2.137123135E0,-9.768698215E-1,-3.610290909E1,5.554339409E0,3.654073077E1
2.139509646E0,-7.396813035E-1,-3.705824280E1,6.363412857E0,3.760789160E1
2.141896104E0,-4.812564552E-1,-3.758974838E1,6.945167542E0,3.822899611E1
2.144282614E0,-2.512463629E-1,-3.768546295E1,7.273283482E0,3.838173909E1
2.146669125E0,-9.092725813E-2,-3.732892990E1,7.373782158E0,3.805036056E1
2.149055583E0,-7.178467698E-3,-3.655305862E1,7.287640572E0,3.727245433E1
2.151442094E0,7.178467698E-3,-3.543501282E1,7.026822567E0,3.612501101E1
2.153828604E0,-3.110669367E-2,-3.404657745E1,6.634100914E0,3.468690962E1
2.156215062E0,-1.100698411E-1,-3.245445251E1,6.160022736E0,3.303406550E1
2.158601573E0,-2.153540403E-1,-3.072354317E1,5.650052547E0,3.123948745E1
2.160988083E0,-3.329014480E-1,-2.891127968E1,5.144867897E0,2.936737274E1
2.163374594E0,-4.501497746E-1,-2.706521606E1,4.644468784E0,2.746451612E1
2.165761052E0,-5.697908998E-1,-2.521466827E1,4.170390606E0,2.556357400E1
2.168147562E0,-6.870391965E-1,-2.337847519E1,3.713361740E0,2.368151559E1
2.170534073E0,-7.995018363E-1,-2.158026886E1,3.277568817E0,2.184238230E1
2.172920531E0,-8.979067206E-1,-1.983500481E1,2.882453918E0,2.006345416E1
2.175307042E0,-9.720842242E-1,-1.815434456E1,2.518445730E0,1.835395715E1
2.177693552E0,-1.027119160E0,-1.653829193E1,2.190629244E0,1.671433308E1
2.180080010E0,-1.070189953E0,-1.499671650E1,1.896012783E0,1.515393272E1
2.182466521E0,-1.098903775E0,-1.353859043E1,1.635195136E0,1.368118721E1
2.184853031E0,-1.118046403E0,-1.216451168E1,1.398006678E0,1.229551930E1
2.187239542E0,-1.122832060E0,-1.087149048E1,1.168295622E0,1.099158641E1
2.189626000E0,-1.110867858E0,-9.652945518E0,9.361918569E-1,9.761651488E0
2.192012510E0,-1.074975610E0,-8.494221687E0,6.655037999E-1,8.587797735E0
2.194399021E0,-1.010369420E0,-7.385746002E0,3.544368446E-1,7.462956241E0
2.196785479E0,-9.194421172E-1,-6.329913139E0,2.871387079E-2,6.396405135E0
2.199171989E0,-8.114659786E-1,-5.336592674E0,-2.608176768E-1,5.404232070E0
2.201558500E0,-6.966105103E-1,-4.429114819E0,-4.764707983E-1,4.508807902E0
2.203944958E0,-5.841478109E-1,-3.622135162E0,-6.056832075E-1,3.718594351E0
2.206331469E0,-4.860421121E-1,-2.927917719E0,-6.583253145E-1,3.040120281E0
2.208717979E0,-4.094717801E-1,-2.343769789E0,-6.678966284E-1,2.471236506E0
2.211104489E0,-3.616153300E-1,-1.860120535E0,-6.463612318E-1,2.002148070E0
2.213490948E0,-3.424727321E-1,-1.470090389E0,-6.176473498E-1,1.630932731E0
2.215877458E0,-3.520440459E-1,-1.161117196E0,-5.769693851E-1,1.343511007E0
2.218263969E0,-3.879363835E-1,-9.194421172E-1,-5.123631358E-1,1.121777352E0
2.220650427E0,-4.453641176E-1,-7.325028181E-1,-4.334000051E-1,9.605962420E-1
2.223036937E0,-5.195416212E-1,-5.937191248E-1,-3.400799036E-1,8.591159620E-1
2.225423448E0,-6.056832075E-1,-4.980062246E-1,-2.416750938E-1,8.205298280E-1
2.227809958E0,-6.942176819E-1,-4.501497746E-1,-1.411765367E-1,8.393472606E-1
2.230196417E0,-7.660023570E-1,-4.692923427E-1,-5.742774159E-2,9.001626849E-1
2.232582927E0,-8.138588071E-1,-5.602195859E-1,1.674975827E-2,9.881764502E-1
2.234969437E0,-8.428717852E-1,-7.229315639E-1,8.135596663E-2,1.113409936E0
2.237355896E0,-8.524430394E-1,-9.529415965E-1,1.387837082E-1,1.286086210E0
2.239742406E0,-8.500502706E-1,-1.247258782E0,1.770688742E-1,1.519734621E0
2.242128917E0,-8.306085467E-1,-1.599302888E0,1.962114573E-1,1.812782177E0
2.244515375E0,-7.875377536E-1,-2.006381750E0,2.081755698E-1,2.165437717E0
2.246901885E0,-7.229315639E-1,-2.465803623E0,2.033899277E-1,2.577631668E0
2.249288396E0,-6.415755749E-1,-2.966202736E0,1.818545163E-1,3.040238305E0
2.251674854E0,-5.434698462E-1,-3.490530014E0,1.435693651E-1,3.535501579E0
2.254061364E0,-4.262215197E-1,-4.014857292E0,8.853443712E-2,4.038388566E0
2.256447875E0,-2.922234535E-1,-4.543970108E0,2.632104978E-2,4.553432956E0
2.258834385E0,-1.292124242E-1,-5.156831741E0,-2.392822644E-3,5.158450851E0
2.261220844E0,5.503492057E-2,-5.791228771E0,-1.196411345E-2,5.791502626E0
2.263607354E0,2.512463629E-1,-6.404090881E0,-2.392822690E-2,6.409062124E0
2.265993864E0,4.621138871E-1,-6.993024349E0,-3.349951655E-2,7.008356513E0
2.268380323E0,6.750751138E-1,-7.569993496E0,-4.067798331E-2,7.600143593E0
2.270766833E0,8.859425783E-1,-8.132605553E0,-4.546362907E-2,8.180845572E0
2.273153344E0,1.096511006E0,-8.680861473E0,-5.264209956E-2,8.749997914E0
2.275539854E0,1.299900889E0,-9.212367058E0,-5.982056633E-2,9.303817906E0
2.277926312E0,1.491625786E0,-9.727123260E0,-7.417750359E-2,9.841106478E0
2.280312823E0,1.671087503E0,-1.020837975E1,-8.853443712E-2,1.034463092E1
2.282699333E0,1.836192250E0,-1.065374374E1,-9.571290761E-2,1.081124501E1
2.285085792E0,1.977667928E0,-1.104407310E1,-1.052841991E-1,1.122024090E1
2.287472302E0,2.094916344E0,-1.137906837E1,-1.100698411E-1,1.157082482E1
2.289858812E0,2.185843468E0,-1.165932751E1,-8.853443712E-2,1.186278500E1
2.292245271E0,2.255235434E0,-1.188185978E1,-4.067798331E-2,1.209406191E1
2.294631781E0,2.298306227E0,-1.202542973E1,5.742774159E-2,1.224322137E1
2.297018292E0,2.310270309E0,-1.209033489E1,1.914258152E-1,1.231057231E1
2.299404750E0,2.286342144E0,-1.209272766E1,3.759722710E-1,1.231270798E1
2.301791260E0,2.231307030E0,-1.204935741E1,5.530411601E-1,1.226668658E1
2.304177771E0,2.152343988E0,-1.197996521E1,7.612167001E-1,1.219555665E1
2.306564281E0,2.063809633E0,-1.188425255E1,9.960124493E-1,1.210317354E1
2.308950739E0,1.970489502E0,-1.177657604E1,1.220937729E0,1.200255227E1
2.311337250E0,1.884048700E0,-1.171436214E1,1.455733418E0,1.195387300E1
2.313723760E0,1.793121457E0,-1.168086243E1,1.632802367E0,1.192995705E1
2.316110219E0,1.697408557E0,-1.168564892E1,1.769193292E0,1.194008506E1
2.318496729E0,1.604088426E0,-1.173111248E1,1.862513304E0,1.198586899E1
2.320883239E0,1.529910922E0,-1.181246853E1,1.941476464E0,1.206832097E1
2.323269698E0,1.486840129E0,-1.192493057E1,2.020738840E0,1.218597752E1
2.325656208E0,1.462911963E0,-1.206879902E1,2.102094650E0,1.233753716E1
2.328042719E0,1.453340650E0,-1.222194004E1,2.200200319E0,1.250315556E1
2.330429229E0,1.453340650E0,-1.237268734E1,2.329412937E0,1.267366386E1
2.332815687E0,1.462911963E0,-1.251625729E1,2.461018085E0,1.283952561E1
2.335202198E0,1.484447360E0,-1.265534019E1,2.614457846E0,1.300755970E1
2.337588708E0,1.520339727E0,-1.277976704E1,2.758027315E0,1.316208924E1
2.339975167E0,1.563410521E0,-1.289222908E1,2.896811008E0,1.330583846E1
2.342361677E0,1.608874083E0,-1.296640682E1,3.061915636E0,1.341981777E1
2.344748187E0,1.663909078E0,-1.299751377E1,3.232105255E0,1.349631290E1
2.347134646E0,1.723729610E0,-1.299512100E1,3.416352510E0,1.354680324E1
2.349521156E0,1.790728688E0,-1.295922852E1,3.588635683E0,1.356564112E1
2.351907667E0,1.864906192E0,-1.288983631E1,3.773182154E0,1.355959656E1
2.354294177E0,1.951047778E0,-1.279412365E1,3.947858334E0,1.353077133E1
2.356680635E0,2.051845312E0,-1.267208958E1,4.127319813E0,1.348431282E1
2.359067146E0,2.166700840E0,-1.251865005E1,4.307080746E0,1.341499669E1
2.361453656E0,2.300698996E0,-1.234158134E1,4.469792843E0,1.332617327E1
2.363840114E0,2.446661234E0,-1.213819122E1,4.637290478E0,1.322218970E1
2.366226625E0,2.602493763E0,-1.191057396E1,4.783551693E0,1.309645420E1
2.368613135E0,2.760420084E0,-1.166650581E1,4.929513931E0,1.296253774E1
2.370999594E0,2.918346405E0,-1.140060329E1,5.044369221E0,1.280375578E1
2.373386104E0,3.076272726E0,-1.111585712E1,5.147260666E0,1.263012375E1
2.375772614E0,3.222533941E0,-1.081884861E1,5.221437931E0,1.243766957E1
2.378159125E0,3.356531858E0,-1.051256752E1,5.274080276E0,1.223095682E1
2.380545583E0,3.473780155E0,-1.019880867E1,5.302793980E0,1.200843332E1
2.382932094E0,3.581457376E0,-9.885348320E0,5.307579517E0,1.177783294E1
2.385318604E0,3.670290947E0,-9.571589470E0,5.276473045E0,1.152942012E1
2.387705062E0,3.742075443E0,-9.257830620E0,5.223830700E0,1.126938169E1
2.390091573E0,3.794717550E0,-8.944371223E0,5.147260666E0,1.099526945E1
2.392478083E0,3.828217030E0,-8.635397911E0,5.049154758E0,1.071070990E1
2.394864542E0,3.837788343E0,-8.329116821E0,4.931906700E0,1.041280510E1
2.397251052E0,3.825824261E0,-8.032107353E0,4.797908306E0,1.010799703E1
2.399637562E0,3.797110319E0,-7.747361660E0,4.639683247E0,9.796240100E0
2.402024021E0,3.758825302E0,-7.474280834E0,4.453042984E0,9.477511987E0
2.404410531E0,3.722932816E0,-7.215855598E0,4.242474556E0,9.161189395E0
2.406797042E0,3.684647799E0,-6.971488953E0,3.990929127E0,8.837748747E0
2.409183500E0,3.651148319E0,-6.746563435E0,3.687040567E0,8.511243762E0
2.411570010E0,3.629313707E0,-6.540780544E0,3.325425386E0,8.186096879E0
2.413956521E0,3.626920938E0,-6.351448536E0,2.908775091E0,7.871240470E0
2.416343031E0,3.643670797E0,-6.183950901E0,2.449054003E0,7.583894193E0
2.418729489E0,3.682255030E0,-6.045167446E0,1.972882271E0,7.348150516E0
2.421116000E0,3.744468451E0,-5.947061539E0,1.520339727E0,7.190272443E0
2.423502510E0,3.833002806E0,-5.889334679E0,1.127617717E0,7.116719411E0
2.425888969E0,3.938287020E0,-5.879763603E0,8.138588071E-1,7.123488670E0
2.428275479E0,4.053142548E0,-5.911169052E0,5.937191248E-1,7.191827756E0
2.430661989E0,4.165605068E0,-5.985346794E0,4.621138871E-1,7.306859180E0
2.433048500E0,4.264009953E0,-6.095416546E0,4.166502357E-1,7.450468520E0
2.435434958E0,4.338187218E0,-6.229414463E0,4.381856322E-1,7.603780608E0
2.437821469E0,4.378865242E0,-6.384948254E0,5.123631358E-1,7.759158523E0
2.440207979E0,4.383651257E0,-6.557530403E0,6.200401783E-1,7.912145926E0
2.442594437E0,4.347758770E0,-6.741777897E0,7.588238716E-1,8.057939513E0
2.444980948E0,4.275974274E0,-6.926024914E0,9.218349457E-1,8.191676066E0
2.447367458E0,4.170390606E0,-7.108178616E0,1.096511006E0,8.313885820E0
2.449753917E0,4.043570995E0,-7.285247803E0,1.268794179E0,8.428234727E0
2.452140427E0,3.897608995E0,-7.462316513E0,1.434198022E0,8.540166719E0
2.454526937E0,3.732504129E0,-7.634898663E0,1.587338686E0,8.645398127E0
2.456913396E0,3.557528973E0,-7.809575081E0,1.716551185E0,8.751686883E0
2.459299906E0,3.370888948E0,-7.986643791E0,1.824228168E0,8.858734659E0
2.461686417E0,3.174677372E0,-8.164011955E0,1.910369754E0,8.965443671E0
2.464072875E0,2.963809967E0,-8.341080666E0,1.980060697E0,9.070746196E0
2.466459385E0,2.746062994E0,-8.510971069E0,2.035095692E0,9.171646798E0
2.468845896E0,2.525923491E0,-8.673683167E0,2.080559254E0,9.270479813E0
2.471232406E0,2.303091764E0,-8.829515457E0,2.118844509E0,9.367714606E0
2.473618864E0,2.082952023E0,-8.980263710E0,2.157129526E0,9.467683625E0
2.476005375E0,1.867298961E0,-9.116654396E0,2.200200319E0,9.562482639E0
2.478391885E0,1.659123421E0,-9.233902931E0,2.245664120E0,9.646795385E0
2.480778344E0,1.458126307E0,-9.341878891E0,2.293520451E0,9.729186482E0
2.483164854E0,1.273579836E0,-9.432806015E0,2.355733871E0,9.805575811E0
2.485551364E0,1.113260746E0,-9.502198219E0,2.429911375E0,9.870946752E0
2.487937823E0,9.816554785E-1,-9.545269012E0,2.516052961E0,9.919996497E0
2.490324333E0,8.763712645E-1,-9.562018394E0,2.604886532E0,9.949153543E0
2.492710844E0,7.923234105E-1,-9.562018394E0,2.698206663E0,9.966959986E0
2.495097302E0,7.301099896E-1,-9.542876244E0,2.789133787E0,9.968892360E0
2.497483812E0,6.894320250E-1,-9.504590988E0,2.872882605E0,9.953191490E0
2.499870323E0,6.607181430E-1,-9.447162628E0,2.937488794E0,9.915355294E0
2.502256781E0,6.415755749E-1,-9.372985840E0,2.990130901E0,9.859278147E0
2.504643292E0,6.367899179E-1,-9.289237022E0,3.028416157E0,9.791155717E0
2.507029802E0,6.463612318E-1,-9.193224907E0,3.047558784E0,9.706738977E0
2.509416312E0,6.631109715E-1,-9.090332985E0,3.033201694E0,9.605945162E0
2.511802771E0,6.822535396E-1,-8.975478172E0,2.980559587E0,9.482004734E0
2.514189281E0,7.085745931E-1,-8.863015175E0,2.906382322E0,9.354259679E0
2.516575792E0,7.325028181E-1,-8.750552177E0,2.803490877E0,9.217824303E0
2.518962250E0,7.636095285E-1,-8.647361755E0,2.686242580E0,9.087126281E0
2.521348760E0,7.995018363E-1,-8.544470787E0,2.559422970E0,8.955324123E0
2.523735271E0,8.428717852E-1,-8.455936432E0,2.446661234E0,8.843045006E0
2.526121729E0,8.883354068E-1,-8.381758690E0,2.336591244E0,8.746580885E0
2.528508239E0,9.409775138E-1,-8.319544792E0,2.233700037E0,8.665430173E0
2.530894750E0,9.984052777E-1,-8.269295692E0,2.149951220E0,8.602345877E0
2.533281260E0,1.060618639E0,-8.228617668E0,2.073380709E0,8.551840047E0
2.535667719E0,1.127617717E0,-8.199904442E0,2.003988981E0,8.516215498E0
2.538054229E0,1.192223907E0,-8.187939644E0,1.960619092E0,8.503398184E0
2.540440739E0,1.259222865E0,-8.185546875E0,1.929512382E0,8.503636745E0
2.542827198E0,1.326221943E0,-8.192725182E0,1.927119493E0,8.520176060E0
2.545213708E0,1.393221021E0,-8.209475517E0,1.934298038E0,8.548570757E0
2.547600219E0,1.453340650E0,-8.247760773E0,1.968096614E0,8.602973968E0
2.549986677E0,1.508375525E0,-8.295617104E0,2.013560295E0,8.668730294E0
2.552373187E0,1.558624864E0,-8.355437279E0,2.061416626E0,8.745975194E0
2.554759698E0,1.601695657E0,-8.432007790E0,2.114058733E0,8.839311549E0
2.557146156E0,1.642373681E0,-8.515756607E0,2.178664923E0,8.942152020E0
2.559532667E0,1.680658817E0,-8.613862038E0,2.252842426E0,9.060824039E0
2.561919177E0,1.723729610E0,-8.724231720E0,2.324627161E0,9.191700295E0
2.564305635E0,1.769193292E0,-8.843872070E0,2.420340061E0,9.338209899E0
2.566692146E0,1.814656854E0,-8.973084450E0,2.523231506E0,9.496100319E0
2.569078656E0,1.862513304E0,-9.107083321E0,2.631207705E0,9.660806198E0
2.571465167E0,1.915155411E0,-9.248259544E0,2.748456001E0,9.836266326E0
2.573851625E0,1.977667928E0,-9.394520760E0,2.868097067E0,1.001968919E1
2.576238135E0,2.044667006E0,-9.540482521E0,2.997309446E0,1.020712172E1
2.578624646E0,2.114058733E0,-9.686445236E0,3.124428272E0,1.039511990E1
2.581011104E0,2.181057930E0,-9.823135376E0,3.260818958E0,1.057752063E1
2.583397614E0,2.250449657E0,-9.947562218E0,3.397209883E0,1.074986292E1
2.585784125E0,2.322234392E0,-1.006480980E1,3.533600807E0,1.091693655E1
2.588170583E0,2.394019127E0,-1.016291618E1,3.667897940E0,1.106660148E1
2.590557094E0,2.458625317E0,-1.024666500E1,3.792324781E0,1.119913878E1
2.592943604E0,2.516052961E0,-1.032084274E1,3.911965847E0,1.132050327E1
2.595330062E0,2.566601276E0,-1.037587738E1,4.024428368E0,1.142113380E1
2.597716573E0,2.609672308E0,-1.041206837E1,4.122534275E0,1.149855844E1
2.600103083E0,2.647957325E0,-1.042642593E1,4.208974838E0,1.155151527E1
2.602489542E0,2.671885490E0,-1.041446114E1,4.285545349E0,1.157436269E1
2.604876052E0,2.683849812E0,-1.038066292E1,4.340580463E0,1.156727501E1
2.607262562E0,2.683849812E0,-1.032084274E1,4.386044025E0,1.153083808E1
2.609649073E0,2.674278498E0,-1.024666500E1,4.412364960E0,1.147235258E1
2.612035531E0,2.657528639E0,-1.016052341E1,4.421936035E0,1.139527151E1
2.614422042E0,2.640778780E0,-1.006720352E1,4.417150497E0,1.130634856E1
2.616808552E0,2.619243383E0,-9.966704369E0,4.407579422E0,1.120813937E1
2.619195010E0,2.595315218E0,-9.863813400E0,4.386044025E0,1.110260591E1
2.621581521E0,2.571387053E0,-9.758230209E0,4.350151539E0,1.098903574E1
2.623968031E0,2.542673111E0,-9.650552750E0,4.311866283E0,1.087154753E1
2.626354489E0,2.516052961E0,-9.547661781E0,4.259224415E0,1.075310935E1
2.628741000E0,2.492124796E0,-9.444769859E0,4.211368084E0,1.063719817E1
2.631127510E0,2.470589399E0,-9.346664429E0,4.153641224E0,1.052219955E1
2.633513969E0,2.449054003E0,-9.253045082E0,4.096213341E0,1.041132424E1
2.635900479E0,2.427518606E0,-9.162117958E0,4.031607151E0,1.030005380E1
2.638286989E0,2.410768747E0,-9.075976372E0,3.971786499E0,1.019608950E1
2.640673500E0,2.394019127E0,-8.994620323E0,3.923929930E0,1.010107660E1
2.643059958E0,2.384447813E0,-8.918049812E0,3.866502285E0,1.000834870E1
2.645446469E0,2.377269268E0,-8.853444099E0,3.823431492E0,9.932447330E0
2.647832979E0,2.374876499E0,-8.793622971E0,3.782753468E0,9.862913724E0
2.650219437E0,2.372483730E0,-8.738588333E0,3.751646757E0,9.801349830E0
2.652605948E0,2.374876499E0,-8.695218086E0,3.725325823E0,9.753199908E0
2.654992458E0,2.384447813E0,-8.659325600E0,3.701397419E0,9.714414757E0
2.657378917E0,2.396411896E0,-8.635397911E0,3.684647799E0,9.689660286E0
2.659765427E0,2.413161755E0,-8.623434067E0,3.672683716E0,9.678614076E0
2.662151937E0,2.434697151E0,-8.618648529E0,3.670290947E0,9.678837137E0
2.664538396E0,2.458625317E0,-8.628219604E0,3.658326626E0,9.688878454E0
2.666924906E0,2.487339020E0,-8.644968987E0,3.646063566E0,9.706499045E0
2.669311417E0,2.520838737E0,-8.671290398E0,3.622135162E0,9.729633510E0
2.671697875E0,2.554637194E0,-8.717052460E0,3.591028690E0,9.767735758E0
2.674084385E0,2.590529680E0,-8.779266357E0,3.543172121E0,9.815316117E0
2.676470896E0,2.626421928E0,-8.855836868E0,3.492922783E0,9.875446742E0
2.678857354E0,2.662314177E0,-8.951549530E0,3.435495138E0,9.950918682E0
2.681243864E0,2.698206663E0,-9.066405296E0,3.366103172E0,1.004045192E1
2.683630375E0,2.726920605E0,-9.198010445E0,3.291925669E0,1.014279383E1
2.686016885E0,2.750848770E0,-9.341878891E0,3.210569859E0,1.025405427E1
2.688403344E0,2.767598391E0,-9.502198219E0,3.131606579E0,1.038067106E1
2.690789854E0,2.769991398E0,-9.674481392E0,3.045166016E0,1.051387077E1
2.693176364E0,2.760420084E0,-9.861420631E0,2.966202736E0,1.066142085E1
2.695562823E0,2.738884687E0,-1.006241703E1,2.880061150E0,1.081889449E1
2.697949333E0,2.702992201E0,-1.027059269E1,2.789133787E0,1.098046030E1
2.700335844E0,2.650350094E0,-1.048624611E1,2.688635349E0,1.114515469E1
2.702722302E0,2.578565598E0,-1.070638561E1,2.588136673E0,1.131256579E1
2.705108812E0,2.489732027E0,-1.092891788E1,2.496910334E0,1.148366548E1
2.707495323E0,2.394019127E0,-1.115414238E1,2.408375978E0,1.165960954E1
2.709881781E0,2.281556368E0,-1.137428284E1,2.336591244E0,1.183382728E1
2.712268292E0,2.159522533E0,-1.158754253E1,2.276770830E0,1.200493086E1
2.714654802E0,2.025524378E0,-1.179571819E1,2.233700037E0,1.217502084E1
2.717041260E0,1.884048700E0,-1.198714447E1,2.200200319E0,1.233215932E1
2.719427771E0,1.740479350E0,-1.217408371E1,2.178664923E0,1.248936201E1
2.721814281E0,1.592124343E0,-1.234636688E1,2.159522533E0,1.263452305E1
2.724200739E0,1.446162224E0,-1.250189972E1,2.140379906E0,1.276597462E1
2.726587250E0,1.295115232E0,-1.263619709E1,2.130808592E0,1.287987366E1
2.728973760E0,1.146760225E0,-1.274626732E1,2.106880426E0,1.297001676E1
2.731360271E0,1.000798106E0,-1.282762337E1,2.073380709E0,1.303259090E1
2.733746729E0,8.572286963E-1,-1.288505077E1,2.011167526E0,1.306920691E1
2.736133239E0,7.181459069E-1,-1.291855049E1,1.941476464E0,1.308334862E1
2.738519750E0,5.865406394E-1,-1.293051434E1,1.840977907E0,1.307407475E1
2.740906208E0,4.645066857E-1,-1.291855049E1,1.730908036E0,1.304226805E1
2.743292719E0,3.520440459E-1,-1.288983631E1,1.613659739E0,1.299521885E1
2.745679229E0,2.416750938E-1,-1.284197998E1,1.491625786E0,1.293057633E1
2.748065687E0,1.363908947E-1,-1.277737427E1,1.376471281E0,1.285202587E1
2.750452198E0,3.349951655E-2,-1.270319653E1,1.264008522E0,1.276597202E1
2.752838708E0,-6.939185411E-2,-1.261914825E1,1.168295622E0,1.267330393E1
2.755225167E0,-1.746760458E-1,-1.252822113E1,1.070189953E0,1.257506036E1
2.757611677E0,-2.826521695E-1,-1.243490124E1,9.816554785E-1,1.247679079E1
2.759998187E0,-3.927220106E-1,-1.233918858E1,8.883354068E-1,1.237735614E1
2.762384646E0,-5.027918816E-1,-1.224586773E1,7.923234105E-1,1.228176911E1
2.764771156E0,-6.176473498E-1,-1.215733337E1,6.798607111E-1,1.219198317E1
2.767157667E0,-7.396813035E-1,-1.205653572E1,5.434698462E-1,1.209142430E1
2.769544125E0,-8.668000102E-1,-1.195843029E1,3.735794425E-1,1.199562249E1
2.771930635E0,-1.005583763E0,-1.186511040E1,1.603191197E-1,1.190872561E1
2.774317146E0,-1.153938770E0,-1.176939774E1,-8.853443712E-2,1.182616320E1
2.776703604E0,-1.311864972E0,-1.167846966E1,-3.711866140E-1,1.175778137E1
2.779090114E0,-1.486840129E0,-1.159711361E1,-6.822535396E-1,1.171192587E1
2.781476625E0,-1.678265929E0,-1.152293682E1,-1.024726272E0,1.168951297E1
2.783863083E0,-1.886441588E0,-1.145803165E1,-1.378864050E0,1.169386238E1
2.786249594E0,-2.114058733E0,-1.140538883E1,-1.742872238E0,1.172986540E1
2.788636104E0,-2.358126640E0,-1.135992527E1,-2.099701881E0,1.179056451E1
2.791022614E0,-2.616850615E0,-1.132403278E1,-2.434697151E0,1.187473687E1
2.793409073E0,-2.887239695E0,-1.129531956E1,-2.726920605E0,1.197315718E1
2.795795583E0,-3.162713289E0,-1.126421261E1,-2.956631422E0,1.206759754E1
2.798182094E0,-3.433102369E0,-1.123549843E1,-3.107678413E0,1.215237762E1
2.800568552E0,-3.708575964E0,-1.119721317E1,-3.169891834E0,1.221389916E1
2.802955062E0,-3.971786499E0,-1.115653515E1,-3.155534744E0,1.225564213E1
2.805341573E0,-4.213760853E0,-1.110628605E1,-3.069094181E0,1.226885119E1
2.807728031E0,-4.433900356E0,-1.103689480E1,-2.927917719E0,1.224929473E1
2.810114542E0,-4.620540619E0,-1.095314598E1,-2.731706142E0,1.219766457E1
2.812501052E0,-4.773980141E0,-1.085234833E1,-2.506481647E0,1.211803618E1
2.814887510E0,-4.898406982E0,-1.073509979E1,-2.267199516E0,1.201569607E1
2.817274021E0,-4.991727352E0,-1.060588741E1,-2.025524378E0,1.189558484E1
2.819660531E0,-5.051547527E0,-1.046231747E1,-1.785943031E0,1.175448049E1
2.822046989E0,-5.082654476E0,-1.030409241E1,-1.553839207E0,1.159405508E1
2.824433500E0,-5.087440014E0,-1.012941647E1,-1.331007600E0,1.141309358E1
2.826820010E0,-5.065904617E0,-9.937990189E0,-1.110867858E0,1.120986467E1
2.829206521E0,-5.013262749E0,-9.731908798E0,-9.026923180E-1,1.098443015E1
2.831592979E0,-4.941477776E0,-9.516554832E0,-7.061817646E-1,1.074624172E1
2.833979489E0,-4.852943420E0,-9.301200867E0,-5.267201066E-1,1.050432442E1
2.836366000E0,-4.742574692E0,-9.092725754E0,-3.544368446E-1,1.026134990E1
2.838752458E0,-4.610969067E0,-8.889336586E0,-1.866401732E-1,1.001579629E1
2.841138969E0,-4.488935471E0,-8.695218086E0,-4.067798331E-2,9.785653475E0
2.843525479E0,-4.388436794E0,-8.501399994E0,7.417750359E-2,9.567532684E0
2.845911937E0,-4.302295208E0,-8.326724052E0,1.651047617E-1,9.373971255E0
2.848298448E0,-4.228117466E0,-8.164011955E0,2.488535494E-1,9.197282022E0
2.850684958E0,-4.146462440E0,-8.024929047E0,3.281157911E-1,9.038821657E0
2.853071417E0,-4.057928085E0,-7.912466049E0,4.166502357E-1,8.902106309E0
2.855457927E0,-3.974179268E0,-7.833503246E0,5.147559643E-1,8.799025382E0
2.857844437E0,-3.892823458E0,-7.785646915E0,6.296114326E-1,8.727358301E0
2.860230896E0,-3.818645954E0,-7.768897057E0,7.540382147E-1,8.689441411E0
2.862617406E0,-3.754039526E0,-7.783253670E0,8.811569214E-1,8.686097396E0
2.865003917E0,-3.696611881E0,-7.819146156E0,9.912267923E-1,8.705545162E0
2.867390375E0,-3.651148319E0,-7.876574039E0,1.094118118E0,8.750336971E0
2.869776885E0,-3.619742393E0,-7.950751305E0,1.187438250E0,8.816291221E0
2.872163396E0,-3.595814228E0,-8.046463966E0,1.278365493E0,8.905598276E0
2.874549854E0,-3.583850145E0,-8.161619186E0,1.376471281E0,9.019461336E0
2.876936364E0,-3.579064369E0,-8.293224335E0,1.484447360E0,9.153734516E0
2.879322875E0,-3.583850145E0,-8.432007790E0,1.606481314E0,9.301801946E0
2.881709333E0,-3.605385542E0,-8.575576782E0,1.728515267E0,9.461875453E0
2.884095844E0,-3.651148319E0,-8.712266922E0,1.855334878E0,9.626876258E0
2.886482354E0,-3.725325823E0,-8.843872070E0,1.989632010E0,9.800549026E0
2.888868812E0,-3.823431492E0,-8.968298912E0,2.130808592E0,9.979446829E0
2.891255323E0,-3.950251102E0,-9.075976372E0,2.283949137E0,1.015845729E1
2.893641833E0,-4.103391647E0,-9.171689034E0,2.451446772E0,1.034249941E1
2.896028292E0,-4.275974274E0,-9.248259544E0,2.626421928E0,1.052199376E1
2.898414802E0,-4.457828522E0,-9.317950249E0,2.810669184E0,1.070496582E1
2.900801312E0,-4.620540619E0,-9.382556915E0,3.002095222E0,1.088091658E1
2.903187823E0,-4.764110088E0,-9.442377090E0,3.208176851E0,1.105204184E1
2.905574281E0,-4.881657124E0,-9.499805450E0,3.425923824E0,1.121667660E1
2.907960792E0,-4.963013172E0,-9.550054550E0,3.651148319E0,1.136511882E1
2.910347302E0,-5.015655518E0,-9.605089188E0,3.885644913E0,1.151141933E1
2.912733760E0,-5.056333542E0,-9.662516594E0,4.117748737E0,1.165704038E1
2.915120271E0,-5.082654476E0,-9.717552185E0,4.342973232E0,1.179515212E1
2.917506781E0,-5.104189873E0,-9.774979591E0,4.560719967E0,1.193327897E1
2.919893239E0,-5.113760948E0,-9.835099220E0,4.773980141E0,1.206940819E1
2.922279750E0,-5.113760948E0,-9.902098656E0,4.989334106E0,1.221046943E1
2.924666260E0,-5.106582642E0,-9.981060982E0,5.192724228E0,1.235569300E1
2.927052719E0,-5.087440014E0,-1.006720352E1,5.386841774E0,1.249994788E1
2.929439229E0,-5.058726311E0,-1.016291618E1,5.559125423E0,1.264038974E1
2.931825739E0,-5.025226593E0,-1.026102161E1,5.709873199E0,1.277278822E1
2.934212198E0,-4.989334106E0,-1.035194874E1,5.836692810E0,1.288888205E1
2.936598708E0,-4.948656559E0,-1.044078255E1,5.925526142E0,1.298502992E1
2.938985219E0,-4.903192520E0,-1.052931690E1,5.987739563E0,1.306754898E1
2.941371677E0,-4.850550652E0,-1.061785126E1,6.016453266E0,1.313256703E1
2.943758187E0,-4.793122768E0,-1.070399284E1,6.011667728E0,1.317913645E1
2.946144698E0,-4.733003139E0,-1.078295612E1,5.961418629E0,1.319893835E1
2.948531156E0,-4.663611412E0,-1.085474110E1,5.884549141E0,1.319858304E1
2.950917667E0,-4.575077057E0,-1.091216850E1,5.772086620E0,1.316524726E1
2.953304177E0,-4.472185612E0,-1.095314598E1,5.621338367E0,1.309852267E1
2.955690687E0,-4.359723091E0,-1.097707367E1,5.461019516E0,1.301253495E1
2.958077146E0,-4.237689018E0,-1.098664474E1,5.286044121E0,1.290761920E1
2.960463656E0,-4.112963200E0,-1.097468090E1,5.094618320E0,1.277948446E1
2.962850167E0,-3.978965044E0,-1.094357395E1,4.896014214E0,1.263190124E1
2.965236625E0,-3.840181351E0,-1.089781189E1,4.687539577E0,1.246925515E1
2.967623135E0,-3.694219112E0,-1.083799076E1,4.467400074E0,1.229093007E1
2.970009646E0,-3.545564890E0,-1.075902748E1,4.266402721E0,1.210495332E1
2.972396104E0,-3.394817114E0,-1.065852928E1,4.060320854E0,1.190021996E1
2.974782614E0,-3.239283562E0,-1.054606628E1,3.856930971E0,1.168710352E1
2.977169125E0,-3.076272726E0,-1.042881870E1,3.675076485E0,1.147736471E1
2.979555583E0,-2.903989315E0,-1.029930687E1,3.488137245E0,1.125504231E1
2.981942094E0,-2.722134829E0,-1.016530895E1,3.320639610E0,1.103495227E1
2.984328604E0,-2.533101797E0,-1.003370380E1,3.162713289E0,1.082102454E1
2.986715062E0,-2.338984251E0,-9.899705887E0,3.014059305E0,1.060940985E1
2.989101573E0,-2.130808592E0,-9.767801285E0,2.868097067E0,1.040078208E1
2.991488083E0,-1.912762642E0,-9.633803368E0,2.717349291E0,1.019082015E1
2.993874542E0,-1.683051586E0,-9.499805450E0,2.568994284E0,9.983921968E0
2.996261052E0,-1.450947881E0,-9.370592117E0,2.425125837E0,9.787465541E0
2.998647562E0,-1.218544960E0,-9.250652313E0,2.283949137E0,9.606031631E0
3.001034021E0,-9.912267923E-1,-9.135796547E0,2.140379906E0,9.435387392E0
3.003420531E0,-7.636095285E-1,-9.018548965E0,2.006381750E0,9.270538964E0
3.005807042E0,-5.362913609E-1,-8.913264275E0,1.874477386E0,9.124009750E0
3.008193500E0,-3.113660514E-1,-8.827122688E0,1.742872238E0,9.002924381E0
3.010580010E0,-8.853443712E-2,-8.752944946E0,1.618445396E0,8.901755393E0
3.012966521E0,1.292124242E-1,-8.690432549E0,1.498804331E0,8.819678461E0
3.015352979E0,3.400799036E-1,-8.652147293E0,1.393221021E0,8.770197942E0
3.017739489E0,5.410770178E-1,-8.633005142E0,1.290329576E0,8.745655638E0
3.020126000E0,7.301099896E-1,-8.625826836E0,1.199402332E0,8.739365832E0
3.022512458E0,9.074779749E-1,-8.640183449E0,1.122832060E0,8.759967930E0
3.024898969E0,1.065404296E0,-8.666504860E0,1.055832982E0,8.795349685E0
3.027285479E0,1.208973646E0,-8.709874153E0,1.015154958E0,8.851783133E0
3.029671937E0,1.326221943E0,-8.762516975E0,9.936196208E-1,8.917838771E0
3.032058448E0,1.417448282E0,-8.815158844E0,1.005583763E0,8.984841890E0
3.034444958E0,1.474876046E0,-8.872586250E0,1.036690354E0,9.053881654E0
3.036831417E0,1.494018674E0,-8.932407379E0,1.098903775E0,9.122915263E0
3.039217927E0,1.470090389E0,-8.982656479E0,1.189831018E0,9.179595907E0
3.041604437E0,1.405484200E0,-9.023334503E0,1.302293777E0,9.224528198E0
3.043990896E0,1.309472203E0,-9.054440498E0,1.427019596E0,9.259265366E0
3.046377406E0,1.185045362E0,-9.078369141E0,1.582553029E0,9.291156702E0
3.048763917E0,1.036690354E0,-9.104690552E0,1.742872238E0,9.327792910E0
3.051150427E0,8.644071817E-1,-9.131011009E0,1.915155411E0,9.369652185E0
3.053536885E0,6.702894568E-1,-9.164510727E0,2.087737799E0,9.423173241E0
3.055923396E0,4.645066857E-1,-9.195617676E0,2.260020971E0,9.480656396E0
3.058309906E0,2.488535494E-1,-9.219545364E0,2.434697151E0,9.538851872E0
3.060696364E0,3.110669367E-2,-9.243474007E0,2.612065077E0,9.605501721E0
3.063082875E0,-1.842473447E-1,-9.265308380E0,2.789133787E0,9.677765948E0
3.065469385E0,-3.879363835E-1,-9.282057762E0,2.973381281E0,9.754388099E0
3.067855844E0,-5.817549825E-1,-9.286844254E0,3.150749207E0,9.824008124E0
3.070242354E0,-7.516453862E-1,-9.289237022E0,3.327818155E0,9.895921833E0
3.072628864E0,-9.026923180E-1,-9.284450531E0,3.507279873E0,9.965785829E0
3.075015323E0,-1.027119160E0,-9.270093918E0,3.687040567E0,1.002915167E1
3.077401833E0,-1.130010486E0,-9.255437851E0,3.864109516E0,1.009313608E1
3.079788344E0,-1.204187989E0,-9.241081238E0,4.036392689E0,1.015579229E1
3.082174802E0,-1.254437327E0,-9.231510162E0,4.208974838E0,1.022300651E1
3.084561312E0,-1.285543919E0,-9.224330902E0,4.376472473E0,1.029050121E1
3.086947823E0,-1.295115232E0,-9.217152596E0,4.532006264E0,1.035240582E1
3.089334281E0,-1.287936807E0,-9.207581520E0,4.670789719E0,1.040454782E1
3.091720792E0,-1.271187067E0,-9.195617676E0,4.790730000E0,1.044635797E1
3.094107302E0,-1.244866014E0,-9.183652878E0,4.898406982E0,1.048253607E1
3.096493760E0,-1.208973646E0,-9.166903496E0,4.989334106E0,1.050653091E1
3.098880271E0,-1.161117196E0,-9.145368576E0,5.058726311E0,1.051554428E1
3.101266781E0,-1.103689432E0,-9.114261627E0,5.092225552E0,1.049850734E1
3.103653239E0,-1.041476011E0,-9.071190834E0,5.101797104E0,1.045942203E1
3.106039750E0,-9.672985673E-1,-9.023334503E0,5.087440014E0,1.040376268E1
3.108426260E0,-8.859425783E-1,-8.977870941E0,5.049154758E0,1.033832794E1
3.110812719E0,-7.995018363E-1,-8.941978455E0,4.984548569E0,1.026858833E1
3.113199229E0,-7.109674215E-1,-8.915657043E0,4.907978535E0,1.020209138E1
3.115585739E0,-6.152545214E-1,-8.889336586E0,4.819443703E0,1.013044326E1
3.117972198E0,-5.123631358E-1,-8.870193481E0,4.730610371E0,1.006585927E1
3.120358708E0,-4.094717801E-1,-8.855836868E0,4.634897232E0,1.000378859E1
3.122745219E0,-3.065803945E-1,-8.848658562E0,4.553541660E0,9.956279000E0
3.125131677E0,-2.057827413E-1,-8.843872070E0,4.472185612E0,9.912460032E0
3.127518187E0,-1.004985496E-1,-8.841479301E0,4.398007870E0,9.875440720E0
3.129904698E0,9.571290575E-3,-8.841479301E0,4.311866283E0,9.836871387E0
3.132291156E0,1.148554832E-1,-8.848658562E0,4.235296249E0,9.810692353E0
3.134677667E0,2.201396823E-1,-8.863015175E0,4.167997837E0,9.796617041E0
3.137064177E0,3.281157911E-1,-8.884550095E0,4.105784416E0,9.792872716E0
3.139450635E0,4.334000051E-1,-8.913264275E0,4.041178226E0,9.796184821E0
3.141837146E0,5.458626747E-1,-8.944371223E0,3.990929127E0,9.809549324E0
3.144223656E0,6.583253145E-1,-8.977870941E0,3.933501244E0,9.823848069E0
3.146610167E0,7.660023570E-1,-9.013762474E0,3.880859137E0,9.843563440E0
3.148996625E0,8.739784956E-1,-9.049654961E0,3.830610037E0,9.865782613E0
3.151383135E0,9.816554785E-1,-9.083154678E0,3.789932013E0,9.890951979E0
3.153769646E0,1.091725349E0,-9.119047165E0,3.749253988E0,9.919969300E0
3.156156104E0,1.199402332E0,-9.157332420E0,3.710968733E0,9.953220180E0
3.158542614E0,1.304686546E0,-9.193224907E0,3.694219112E0,9.993240016E0
3.160929073E0,1.410269856E0,-9.224330902E0,3.679862022E0,1.003087863E1
3.163315583E0,1.517946839E0,-9.257830620E0,3.660719633E0,1.007037530E1
3.165702094E0,1.628016710E0,-9.284450531E0,3.631706476E0,1.010152226E1
3.168088552E0,1.738086581E0,-9.305986404E0,3.607778311E0,1.013106077E1
3.170475062E0,1.845763564E0,-9.317950249E0,3.569493294E0,1.014752789E1
3.172861573E0,1.951047778E0,-9.320343018E0,3.528815269E0,1.015519171E1
3.175248083E0,2.056631088E0,-9.313164711E0,3.459423304E0,1.014555952E1
3.177634542E0,2.164308071E0,-9.298808098E0,3.404388428E0,1.013616900E1
3.180021052E0,2.271985054E0,-9.279664993E0,3.342175007E0,1.012147382E1
3.182407562E0,2.374876499E0,-9.255437851E0,3.279961586E0,1.010254009E1
3.184794021E0,2.480160713E0,-9.221938133E0,3.208176851E0,1.007411231E1
3.187180531E0,2.583351135E0,-9.176474571E0,3.141177893E0,1.003734961E1
3.189567042E0,2.686242580E0,-9.123832703E0,3.061915636E0,9.991774104E0
3.191953500E0,2.786741018E0,-9.066405296E0,2.994916677E0,9.946615324E0
3.194340010E0,2.877668381E0,-9.006584167E0,2.932703257E0,9.899509183E0
3.196726521E0,2.959024191E0,-8.956335068E0,2.892025232E0,9.865879178E0
3.199112979E0,3.030808926E0,-8.906085968E0,2.858525753E0,9.832361847E0
3.201499489E0,3.085843801E0,-8.855836868E0,2.841775894E0,9.799182049E0
3.203886000E0,3.122035265E0,-8.800801277E0,2.834597588E0,9.758901106E0
3.206272458E0,3.133999348E0,-8.745766640E0,2.848954439E0,9.717351873E0
3.208658969E0,3.112463951E0,-8.685647011E0,2.865704298E0,9.661270981E0
3.211045479E0,3.057130098E0,-8.618648529E0,2.887239695E0,9.589749734E0
3.213431937E0,2.973381281E0,-8.544470787E0,2.920739174E0,9.506823581E0
3.215818448E0,2.860918522E0,-8.463114738E0,2.961417198E0,9.411650104E0
3.218204958E0,2.726920605E0,-8.379365921E0,2.999702215E0,9.308495185E0
3.220591417E0,2.571387053E0,-8.300402641E0,3.028416157E0,9.202174732E0
3.222977927E0,2.398804665E0,-8.221439362E0,3.078665495E0,9.100797230E0
3.225364437E0,2.216950178E0,-8.140083313E0,3.131606579E0,8.999043516E0
3.227750896E0,2.025524378E0,-8.065607071E0,3.186641455E0,8.905697625E0
3.230137406E0,1.819442511E0,-8.001000404E0,3.232105255E0,8.818893519E0
3.232523917E0,1.613659739E0,-7.948358536E0,3.294318676E0,8.754018318E0
3.234910375E0,1.400399446E0,-7.900502205E0,3.344567776E0,8.692823897E0
3.237296885E0,1.182652593E0,-7.859824181E0,3.397209883E0,8.643872876E0
3.239683396E0,9.529415965E-1,-7.831110477E0,3.430709362E0,8.602566810E0
3.242069854E0,7.181459069E-1,-7.811967850E0,3.476173162E0,8.580580114E0
3.244456364E0,4.812564552E-1,-7.804789066E0,3.516851187E0,8.574064521E0
3.246842875E0,2.392822653E-1,-7.811967850E0,3.555136204E0,8.586215180E0
3.249229333E0,0.000000000E0,-7.833503246E0,3.588635683E0,8.616384345E0
3.251615844E0,-2.392822653E-1,-7.871788502E0,3.626920938E0,8.670459371E0
3.254002354E0,-4.788636267E-1,-7.926823139E0,3.667897940E0,8.747417376E0
3.256388812E0,-7.181459069E-1,-7.986643791E0,3.701397419E0,8.831905539E0
3.258775323E0,-9.577272534E-1,-8.056035995E0,3.734897137E0,8.931204514E0
3.261161833E0,-1.199402332E0,-8.144868851E0,3.773182154E0,9.056177898E0
3.263548292E0,-1.434198022E0,-8.240582466E0,3.797110319E0,9.185976819E0
3.265934802E0,-1.663909078E0,-8.343473434E0,3.811467409E0,9.322522522E0
3.268321312E0,-1.891227245E0,-8.458329201E0,3.823431492E0,9.473051342E0
3.270707771E0,-2.116451740E0,-8.580363274E0,3.823431492E0,9.629155220E0
3.273094281E0,-2.336591244E0,-8.702695847E0,3.816252947E0,9.785722262E0
3.275480792E0,-2.540280342E0,-8.824729919E0,3.801896095E0,9.938978634E0
3.277867250E0,-2.734098911E0,-8.941978455E0,3.775574923E0,1.008410837E1
3.280253760E0,-2.925524712E0,-9.059226990E0,3.744468451E0,1.022982563E1
3.282640271E0,-3.105285645E0,-9.164510727E0,3.703790426E0,1.036094201E1
3.285026729E0,-3.272783279E0,-9.250652313E0,3.643670797E0,1.046718756E1
3.287413239E0,-3.428316593E0,-9.320343018E0,3.574278831E0,1.055450699E1
3.289799750E0,-3.571886063E0,-9.363413811E0,3.495315790E0,1.061362901E1
3.292186208E0,-3.696611881E0,-9.382556915E0,3.406781197E0,1.064441035E1
3.294572719E0,-3.799503326E0,-9.372985840E0,3.308675528E0,1.064126040E1
3.296959229E0,-3.873680830E0,-9.327521324E0,3.210569859E0,1.059791565E1
3.299345739E0,-3.916751623E0,-9.250652313E0,3.107678413E0,1.051537810E1
3.301732198E0,-3.921537161E0,-9.145368576E0,2.997309446E0,1.039230889E1
3.304118708E0,-3.892823458E0,-9.018548965E0,2.911167860E0,1.024515487E1
3.306505167E0,-3.825824261E0,-8.877371788E0,2.822633505E0,1.007034861E1
3.308891677E0,-3.722932816E0,-8.719446182E0,2.743670225E0,9.869989705E0
3.311278187E0,-3.598206997E0,-8.556434631E0,2.664707184E0,9.657138891E0
3.313664646E0,-3.447459221E0,-8.396115303E0,2.590529680E0,9.438780180E0
3.316051156E0,-3.282354355E0,-8.240582466E0,2.523231506E0,9.222133524E0
3.318437667E0,-3.095714331E0,-8.091927528E0,2.456232548E0,9.005321575E0
3.320824125E0,-2.896811008E0,-7.957930088E0,2.386840582E0,8.798702931E0
3.323210635E0,-2.693420887E0,-7.840681553E0,2.334198475E0,8.612739739E0
3.325597146E0,-2.487339020E0,-7.735397339E0,2.281556368E0,8.439711301E0
3.327983604E0,-2.279163599E0,-7.637291908E0,2.228914261E0,8.275921289E0
3.330370114E0,-2.073380709E0,-7.555636406E0,2.173879385E0,8.130947094E0
3.332756625E0,-1.874477386E0,-7.479066372E0,2.126022816E0,7.998129299E0
3.335143083E0,-1.687837243E0,-7.416852951E0,2.078166485E0,7.885257015E0
3.337529594E0,-1.510768414E0,-7.366603374E0,2.035095692E0,7.790435222E0
3.339916104E0,-1.342971683E0,-7.318747044E0,1.994417667E0,7.703592218E0
3.342302562E0,-1.189831018E0,-7.282855034E0,1.965703845E0,7.636731428E0
3.344689073E0,-1.055832982E0,-7.258926392E0,1.931905150E0,7.585450096E0
3.347075583E0,-9.361918569E-1,-7.246962547E0,1.910369754E0,7.552776572E0
3.349462042E0,-8.306085467E-1,-7.251748085E0,1.898405671E0,7.541996085E0
3.351848552E0,-7.420741320E-1,-7.290033340E0,1.903191328E0,7.570825408E0
3.354235062E0,-6.678966284E-1,-7.352246761E0,1.917548299E0,7.627490401E0
3.356621573E0,-6.056832075E-1,-7.440781116E0,1.934298038E0,7.711911869E0
3.359008031E0,-5.530411601E-1,-7.567600727E0,1.960619092E0,7.836993206E0
3.361394542E0,-5.051847100E-1,-7.723433495E0,1.992024899E0,7.992171153E0
3.363781000E0,-4.645066857E-1,-7.912466049E0,2.027917147E0,8.181401677E0
3.366167510E0,-4.334000051E-1,-8.137690544E0,2.063809633E0,8.406494701E0
3.368554021E0,-4.070789516E-1,-8.400900841E0,2.116451740E0,8.672958906E0
3.370940479E0,-3.927220106E-1,-8.690432549E0,2.171486616E0,8.966225660E0
3.373326989E0,-3.879363835E-1,-9.016156197E0,2.226521492E0,9.295104365E0
3.375713500E0,-3.855435550E-1,-9.392127991E0,2.307877541E0,9.679205069E0
3.378099958E0,-3.927220106E-1,-9.798908234E0,2.382055044E0,1.009192843E1
3.380486469E0,-4.286143482E-1,-1.021316528E1,2.437089920E0,1.050865656E1
3.382872979E0,-4.860421121E-1,-1.062981510E1,2.480160713E0,1.092613395E1
3.385259437E0,-5.626124144E-1,-1.105364418E1,2.518445730E0,1.135086566E1
3.387645948E0,-6.607181430E-1,-1.147717381E1,2.557030201E0,1.177711639E1
3.390032458E0,-7.755736113E-1,-1.189861012E1,2.602493763E0,1.220456517E1
3.392418917E0,-9.122636318E-1,-1.231765270E1,2.645564556E0,1.263154008E1
3.394805427E0,-1.067797065E0,-1.272951698E1,2.691028118E0,1.305459404E1
3.397191937E0,-1.244866014E0,-1.312194061E1,2.741277456E0,1.346289787E1
3.399578396E0,-1.450947881E0,-1.350269794E1,2.798705101E0,1.386581594E1
3.401964906E0,-1.675873160E0,-1.386670589E1,2.856132984E0,1.425663280E1
3.404351417E0,-1.922333837E0,-1.420409393E1,2.908775091E0,1.462575210E1
3.406737875E0,-2.188236237E0,-1.451546001E1,2.963809967E0,1.497568452E1
3.409124385E0,-2.470589399E0,-1.480020618E1,3.018844843E0,1.530566363E1
3.411510896E0,-2.748456001E0,-1.505175209E1,3.078665495E0,1.560728780E1
3.413897354E0,-3.016452074E0,-1.527906990E1,3.141177893E0,1.588760393E1
3.416283864E0,-3.270390272E0,-1.546840191E1,3.191427231E0,1.612923178E1
3.418670375E0,-3.509672642E0,-1.562872124E1,3.244069338E0,1.634315500E1
3.421056833E0,-3.720540047E0,-1.576032639E1,3.284747362E0,1.652331296E1
3.423443344E0,-3.900001764E0,-1.586082458E1,3.311068296E0,1.666550160E1
3.425829854E0,-4.048357010E0,-1.592543125E1,3.337389469E0,1.676743044E1
3.428216312E0,-4.153641224E0,-1.594696617E1,3.354139090E0,1.681691751E1
3.430602823E0,-4.211368084E0,-1.592064571E1,3.363710403E0,1.680824586E1
3.432989333E0,-4.203890324E0,-1.585125351E1,3.397209883E0,1.674741672E1
3.435375792E0,-4.103391647E0,-1.572682667E1,3.442673683E0,1.661393698E1
3.437762302E0,-3.902394533E0,-1.557368660E1,3.495315790E0,1.643123945E1
3.440148812E0,-3.591028690E0,-1.541306782E1,3.552743435E0,1.621974514E1
3.442535271E0,-3.189034462E0,-1.525992775E1,3.583850145E0,1.599622823E1
3.444921781E0,-2.726920605E0,-1.511635780E1,3.579064369E0,1.577181255E1
3.447308292E0,-2.224128723E0,-1.497757435E1,3.524029493E0,1.554648725E1
3.449694750E0,-1.704586983E0,-1.482892036E1,3.428316593E0,1.531521631E1
3.452081260E0,-1.175474167E0,-1.467338657E1,3.291925669E0,1.508399111E1
3.454467771E0,-6.559324861E-1,-1.450349617E1,3.122035265E0,1.485021053E1
3.456854229E0,-1.579262912E-1,-1.432403469E1,2.896811008E0,1.461486998E1
3.459240739E0,3.041875660E-1,-1.415384483E1,2.643171787E0,1.440174332E1
3.461627250E0,7.253243923E-1,-1.400070477E1,2.350948334E0,1.421523083E1
3.464013708E0,1.108475089E0,-1.387627792E1,2.035095692E0,1.406845480E1
3.466400219E0,1.465304732E0,-1.379970741E1,1.666301847E0,1.397696693E1
3.468786729E0,1.785943031E0,-1.374198055E1,1.240080357E0,1.391292282E1
3.471173187E0,2.063809633E0,-1.369412422E1,7.588238716E-1,1.386954080E1
3.473559698E0,2.298306227E0,-1.364626789E1,2.416750938E-1,1.384056522E1
3.475946208E0,2.496910334E0,-1.359601784E1,-3.017947674E-1,1.382668949E1
3.478332667E0,2.664707184E0,-1.354576874E1,-8.234301209E-1,1.382991512E1
3.480719177E0,2.815454960E0,-1.349551964E1,-1.302293777E0,1.384744764E1
3.483105687E0,2.963809967E0,-1.344527054E1,-1.723729610E0,1.387554371E1
3.485492146E0,3.119642496E0,-1.339980698E1,-2.075773716E0,1.391387196E1
3.487878656E0,3.272783279E0,-1.335673618E1,-2.350948334E0,1.395136086E1
3.490265167E0,3.413959742E0,-1.331127262E1,-2.566601276E0,1.397971895E1
3.492651625E0,3.538386583E0,-1.326102352E1,-2.729313374E0,1.399371559E1
3.495038135E0,3.634099483E0,-1.320359516E1,-2.865704298E0,1.399120672E1
3.497424646E0,3.694219112E0,-1.313151169E1,-2.956631422E0,1.395799138E1
3.499811104E0,3.718147278E0,-1.305494118E1,-3.014059305E0,1.390469927E1
3.502197614E0,3.725325823E0,-1.297119236E1,-3.042773008E0,1.383431788E1
3.504584125E0,3.718147278E0,-1.288505077E1,-3.047558784E0,1.375270036E1
3.506970583E0,3.701397419E0,-1.279173088E1,-3.006880760E0,1.365174178E1
3.509357094E0,3.672683716E0,-1.269123173E1,-2.935096025E0,1.353405915E1
3.511743604E0,3.646063566E0,-1.257607746E1,-2.834597588E0,1.339725522E1
3.514130062E0,3.610171080E0,-1.245165062E1,-2.729313374E0,1.324862596E1
3.516516573E0,3.569493294E0,-1.231286716E1,-2.604886532E0,1.308179705E1
3.518903083E0,3.528815269E0,-1.216929817E1,-2.472982168E0,1.290968613E1
3.521289542E0,3.490530014E0,-1.201346493E1,-2.346162558E0,1.272837846E1
3.523676052E0,3.442673683E0,-1.185075283E1,-2.233700037E0,1.254120252E1
3.526062562E0,3.387638569E0,-1.168564892E1,-2.114058733E0,1.234907810E1
3.528449021E0,3.325425386E0,-1.152532959E1,-2.008774519E0,1.216251829E1
3.530835531E0,3.260818958E0,-1.137189007E1,-1.905584097E0,1.198265725E1
3.533222042E0,3.181855917E0,-1.122832012E1,-1.797907114E0,1.180812643E1
3.535608500E0,3.090928555E0,-1.108953667E1,-1.668694735E0,1.163254937E1
3.537995010E0,2.985345364E0,-1.095314598E1,-1.527518153E0,1.145499915E1
3.540381521E0,2.863311291E0,-1.081406307E1,-1.388435364E0,1.127254472E1
3.542767979E0,2.722134829E0,-1.067288589E1,-1.247258782E0,1.108495222E1
3.545154489E0,2.557030201E0,-1.053410244E1,-1.089332461E0,1.089460247E1
3.547540948E0,2.382055044E0,-1.039531898E1,-9.266205430E-1,1.070492731E1
3.549927458E0,2.195414782E0,-1.025145054E1,-7.660023570E-1,1.051184303E1
3.552313969E0,1.996810555E0,-1.010309505E1,-6.104688644E-1,1.031661060E1
3.554700427E0,1.793121457E0,-9.964311600E0,-4.573282301E-1,1.013468990E1
3.557086937E0,1.584945917E0,-9.820742607E0,-2.826521695E-1,9.951830543E0
3.559473448E0,1.376471281E0,-9.679266930E0,-1.316052526E-1,9.777535550E0
3.561859906E0,1.170688510E0,-9.550054550E0,3.110669367E-2,9.621591403E0
3.564246417E0,9.672985673E-1,-9.420842171E0,1.866401732E-1,9.472210316E0
3.566632927E0,7.731808424E-1,-9.294022560E0,3.496512175E-1,9.332680212E0
3.569019385E0,5.745765567E-1,-9.162117958E0,5.027918816E-1,9.193875319E0
3.571405896E0,3.711866140E-1,-9.023334503E0,6.559324861E-1,9.054755242E0
3.573792406E0,1.627119333E-1,-8.882157326E0,8.210372925E-1,8.921507505E0
3.576178864E0,-4.546362907E-2,-8.733802795E0,9.816554785E-1,8.788914932E0
3.578565375E0,-2.512463629E-1,-8.577970505E0,1.146760225E0,8.657930569E0
3.580951885E0,-4.549354017E-1,-8.422436714E0,1.316650629E0,8.536859803E0
3.583338344E0,-6.511468887E-1,-8.262117386E0,1.484447360E0,8.419629442E0
3.585724854E0,-8.476574421E-1,-8.101499557E0,1.661516190E0,8.313450202E0
3.588111364E0,-1.034297585E0,-7.953144073E0,1.855334878E0,8.231921991E0
3.590497823E0,-1.211366415E0,-7.814360619E0,2.044667006E0,8.167760013E0
3.592884333E0,-1.378864050E0,-7.687541008E0,2.238485575E0,8.124676639E0
3.595270844E0,-1.539482236E0,-7.579864025E0,2.434697151E0,8.108766516E0
3.597657302E0,-1.695015788E0,-7.493422985E0,2.621636391E0,8.117724060E0
3.600043812E0,-1.848156333E0,-7.419245720E0,2.813062191E0,8.147036748E0
3.602430323E0,-1.996810555E0,-7.359425068E0,2.997309446E0,8.193427466E0
3.604816781E0,-2.137987137E0,-7.309175968E0,3.177070379E0,8.251594908E0
3.607203292E0,-2.276770830E0,-7.270890713E0,3.356531858E0,8.325613688E0
3.609589802E0,-2.413161755E0,-7.242177010E0,3.526422262E0,8.408812726E0
3.611976260E0,-2.547458887E0,-7.223034382E0,3.699004650E0,8.505551591E0
3.614362771E0,-2.686242580E0,-7.213462830E0,3.873680830E0,8.617154308E0
3.616749281E0,-2.827419043E0,-7.206284523E0,4.050749779E0,8.736899269E0
3.619135739E0,-2.970988512E0,-7.208677292E0,4.228117466E0,8.869542172E0
3.621522250E0,-3.114856958E0,-7.213462830E0,4.407579422E0,9.009058565E0
3.623908760E0,-3.258426189E0,-7.220641613E0,4.584648132E0,9.152814050E0
3.626295219E0,-3.390031576E0,-7.230212688E0,4.764110088E0,9.298657674E0
3.628681729E0,-3.507279873E0,-7.246962547E0,4.946263313E0,9.449073978E0
3.631068239E0,-3.612564087E0,-7.258926392E0,5.116153717E0,9.587369843E0
3.633454698E0,-3.701397419E0,-7.270890713E0,5.295615673E0,9.726753825E0
3.635841208E0,-3.770789385E0,-7.285247803E0,5.463412285E0,9.856092630E0
3.638227719E0,-3.818645954E0,-7.292426109E0,5.635695457E0,9.976101381E0
3.640614177E0,-3.842574120E0,-7.292426109E0,5.798407555E0,1.007801491E1
3.643000687E0,-3.849752426E0,-7.292426109E0,5.947061539E0,1.016698644E1
3.645387198E0,-3.828217030E0,-7.290033340E0,6.078666687E0,1.023474574E1
3.647773656E0,-3.782753468E0,-7.294818878E0,6.205486298E0,1.029716788E1
3.650160167E0,-3.713361740E0,-7.297211647E0,6.305984974E0,1.033459238E1
3.652546625E0,-3.617349625E0,-7.299604416E0,6.389733791E0,1.035365350E1
3.654933135E0,-3.495315790E0,-7.304390430E0,6.444768906E0,1.034922211E1
3.657319646E0,-3.346960783E0,-7.311568737E0,6.471388817E0,1.032182431E1
3.659706104E0,-3.165106058E0,-7.325925827E0,6.478567123E0,1.027905237E1
3.662092614E0,-2.944667339E0,-7.347461224E0,6.454638958E0,1.021364853E1
3.664479125E0,-2.691028118E0,-7.376174927E0,6.404090881E0,1.013222428E1
3.666865635E0,-2.417947292E0,-7.412067413E0,6.339484692E0,1.004859585E1
3.669252094E0,-2.128415823E0,-7.459923744E0,6.250949860E0,9.962679877E0
3.671638604E0,-1.826620936E0,-7.526922703E0,6.164808273E0,9.899291412E0
3.674025062E0,-1.525125384E0,-7.606184959E0,6.064310074E0,9.846619407E0
3.676411573E0,-1.225723386E0,-7.687541008E0,5.939883232E0,9.791981280E0
3.678798083E0,-9.337990284E-1,-7.773682594E0,5.817550182E0,9.754281718E0
3.681184542E0,-6.487540603E-1,-7.864609718E0,5.685945034E0,9.726404206E0
3.683571052E0,-3.687937856E-1,-7.969893932E0,5.551946640E0,9.720047821E0
3.685957562E0,-1.004985496E-1,-8.079963684E0,5.420341492E0,9.730160070E0
3.688344021E0,1.579262912E-1,-8.190332413E0,5.278865814E0,9.745404560E0
3.690730531E0,4.046861231E-1,-8.290831566E0,5.125725269E0,9.755753095E0
3.693117042E0,6.439684033E-1,-8.391329765E0,4.967798710E0,9.772826334E0
3.695503500E0,8.715856671E-1,-8.487042427E0,4.807479858E0,9.792926699E0
3.697890010E0,1.086939692E0,-8.577970505E0,4.632504463E0,9.809338075E0
3.700276521E0,1.287936807E0,-8.659325600E0,4.448257446E0,9.819862289E0
3.702662979E0,1.482054472E0,-8.736195564E0,4.261617184E0,9.832546944E0
3.705049489E0,1.663909078E0,-8.807980537E0,4.043570995E0,9.833594509E0
3.707436000E0,1.836192250E0,-8.870193481E0,3.789932013E0,9.819140443E0
3.709822458E0,1.996810555E0,-8.922835350E0,3.478565931E0,9.782876061E0
3.712208969E0,2.149951220E0,-8.965906143E0,3.119642496E0,9.733546759E0
3.714595479E0,2.293520451E0,-9.004191399E0,2.688635349E0,9.672872316E0
3.716981937E0,2.427518606E0,-9.037691116E0,2.204986095E0,9.614295137E0
3.719368448E0,2.559422970E0,-9.064012527E0,1.656730533E0,9.563039532E0
3.721754958E0,2.686242580E0,-9.080761909E0,1.070189953E0,9.530028468E0
3.724141417E0,2.803490877E0,-9.085547447E0,4.692923427E-1,9.519819789E0
3.726527927E0,2.908775091E0,-9.083154678E0,-1.052841991E-1,9.538121209E0
3.728914385E0,2.994916677E0,-9.071190834E0,-5.650052428E-1,9.569496328E0
3.731300896E0,3.057130098E0,-9.056833267E0,-8.476574421E-1,9.596394969E0
3.733687406E0,3.093321562E0,-9.028120041E0,-9.792626500E-1,9.593463665E0
3.736073864E0,3.098107100E0,-8.985049248E0,-9.720842242E-1,9.553759748E0
3.738460375E0,3.069094181E0,-8.930013657E0,-8.668000102E-1,9.482395544E0
3.740846885E0,3.004487991E0,-8.867800713E0,-6.607181430E-1,9.386233858E0
3.743233344E0,2.899203777E0,-8.796015739E0,-3.951148391E-1,9.269918617E0
3.745619854E0,2.760420084E0,-8.719446182E0,-8.614161611E-2,9.146369834E0
3.748006364E0,2.595315218E0,-8.640183449E0,2.368894368E-1,9.024663302E0
3.750392823E0,2.405983210E0,-8.561220169E0,5.602195859E-1,8.910504586E0
3.752779333E0,2.202593327E0,-8.487042427E0,8.739784956E-1,8.811648253E0
3.755165844E0,1.987239242E0,-8.410472870E0,1.165902853E0,8.720349945E0
3.757552302E0,1.764407635E0,-8.331509590E0,1.427019596E0,8.635020051E0
3.759938812E0,1.541875124E0,-8.252546310E0,1.666301847E0,8.559115687E0
3.762325323E0,1.331007600E0,-8.166404724E0,1.881655931E0,8.485421403E0
3.764711781E0,1.134796143E0,-8.082356453E0,2.078166485E0,8.422055809E0
3.767098292E0,9.577272534E-1,-8.003393173E0,2.245664120E0,8.367469816E0
3.769484802E0,7.971090674E-1,-7.929215908E0,2.410768747E0,8.325842524E0
3.771871260E0,6.631109715E-1,-7.864609718E0,2.564208508E0,8.298612381E0
3.774257771E0,5.530411601E-1,-7.807182312E0,2.717349291E0,8.285042990E0
3.776644281E0,4.645066857E-1,-7.759325504E0,2.872882605E0,8.287119717E0
3.779030739E0,3.975076675E-1,-7.725826263E0,3.040380239E0,8.312058457E0
3.781417250E0,3.472583890E-1,-7.701898098E0,3.212962627E0,8.352421897E0
3.783803760E0,3.161516786E-1,-7.685148239E0,3.375674486E0,8.399799615E0
3.786190219E0,2.970091105E-1,-7.687541008E0,3.526422262E0,8.462987365E0
3.788576729E0,2.946162820E-1,-7.692326546E0,3.648755312E0,8.518926092E0
3.790963239E0,3.089732230E-1,-7.706683636E0,3.742075443E0,8.572722189E0
3.793349698E0,3.376871049E-1,-7.733004570E0,3.818645954E0,8.631074625E0
3.795736208E0,3.783650696E-1,-7.771289825E0,3.871287823E0,8.690395565E0
3.798122667E0,4.334000051E-1,-7.809575081E0,3.900001764E0,8.739983539E0
3.800509177E0,5.051847100E-1,-7.852645874E0,3.911965847E0,8.787646761E0
3.802895687E0,5.865406394E-1,-7.900502205E0,3.911965847E0,8.835465002E0
3.805282198E0,6.750751138E-1,-7.948358536E0,3.919144392E0,8.887734390E0
3.807668656E0,7.683951855E-1,-7.984251022E0,3.914358854E0,8.925295558E0
3.810055167E0,8.715856671E-1,-8.015357971E0,3.911965847E0,8.961534566E0
3.812441625E0,9.840483069E-1,-8.046463966E0,3.916751623E0,9.003048190E0
3.814828135E0,1.103689432E0,-8.070392609E0,3.935894251E0,9.046581165E0
3.817214646E0,1.228116274E0,-8.089534760E0,3.955036640E0,9.087967706E0
3.819601104E0,1.369292736E0,-8.115856171E0,3.983750582E0,9.143979040E0
3.821987614E0,1.527518153E0,-8.149654388E0,4.014857292E0,9.212451218E0
3.824374125E0,1.699801445E0,-8.195118904E0,4.057928085E0,9.301401999E0
3.826760583E0,1.886441588E0,-8.245368004E0,4.103391647E0,9.401200902E0
3.829147094E0,2.082952023E0,-8.302795410E0,4.156033993E0,9.515656535E0
3.831533604E0,2.283949137E0,-8.365009308E0,4.203890324E0,9.636518989E0
3.833920062E0,2.499303341E0,-8.434400558E0,4.275974274E0,9.781083067E0
3.836306573E0,2.731706142E0,-8.503792763E0,4.357329845E0,9.937959206E0
3.838693083E0,2.970988512E0,-8.573184013E0,4.465006828E0,1.011249439E1
3.841079542E0,3.212962627E0,-8.642576218E0,4.579862595E0,1.029526075E1
3.843466052E0,3.466601849E0,-8.712266922E0,4.716253281E0,1.049590245E1
3.845852562E0,3.720540047E0,-8.776873589E0,4.862514496E0,1.070140063E1
3.848239021E0,3.976572037E0,-8.831908226E0,5.020441055E0,1.090965428E1
3.850625531E0,4.225724697E0,-8.877371788E0,5.195116997E0,1.111996941E1
3.853012042E0,4.469792843E0,-8.918049812E0,5.384449005E0,1.133591424E1
3.855398500E0,4.699503899E0,-8.949156761E0,5.578267574E0,1.154512073E1
3.857785010E0,4.919942379E0,-8.968298912E0,5.767300606E0,1.174299683E1
3.860171469E0,5.132903576E0,-8.985049248E0,5.951847076E0,1.193743242E1
3.862557979E0,5.334199905E0,-9.001798630E0,6.128916264E0,1.212640432E1
3.864944489E0,5.518447399E0,-9.016156197E0,6.298806667E0,1.230525496E1
3.867330948E0,5.690730572E0,-9.030512810E0,6.457031727E0,1.247508857E1
3.869717458E0,5.851049423E0,-9.054440498E0,6.602993965E0,1.264188283E1
3.872103969E0,6.002096653E0,-9.085547447E0,6.748956203E0,1.281096197E1
3.874490427E0,6.140880108E0,-9.119047165E0,6.868597507E0,1.296321956E1
3.876876937E0,6.270092487E0,-9.152546883E0,6.964310169E0,1.309903777E1
3.879263448E0,6.389733791E0,-9.186046600E0,7.055536747E0,1.322848249E1
3.881649906E0,6.504888535E0,-9.224330902E0,7.117750168E0,1.334407070E1
3.884036417E0,6.617351055E0,-9.262915611E0,7.172784805E0,1.345510247E1
3.886422927E0,6.734599113E0,-9.301200867E0,7.191927433E0,1.354957501E1
3.888809385E0,6.851847649E0,-9.332307816E0,7.189534664E0,1.362824985E1
3.891195896E0,6.961917400E0,-9.356235504E0,7.160820961E0,1.368520345E1
3.893582406E0,7.069893837E0,-9.375378609E0,7.089035988E0,1.371625146E1
3.895968864E0,7.182356358E0,-9.382556915E0,6.988238335E0,1.372785825E1
3.898355375E0,7.299604416E0,-9.394520760E0,6.866204739E0,1.373630272E1
3.900741885E0,7.416852951E0,-9.411270142E0,6.698707104E0,1.372786911E1
3.903128344E0,7.531708241E0,-9.423234940E0,6.502495766E0,1.370424886E1
3.905514854E0,7.642077446E0,-9.432806015E0,6.258128643E0,1.365808739E1
3.907901364E0,7.744968891E0,-9.430413246E0,5.994917870E0,1.359618613E1
3.910287823E0,7.843074322E0,-9.420842171E0,5.690730572E0,1.351482506E1
3.912674333E0,7.931608677E0,-9.406484604E0,5.372485161E0,1.342594375E1
3.915060844E0,8.010572433E0,-9.392127991E0,5.030012131E0,1.332975472E1
3.917447302E0,8.079963684E0,-9.377771378E0,4.680361271E0,1.323382752E1
3.919833812E0,8.142476082E0,-9.363413811E0,4.319045067E0,1.313878173E1
3.922220271E0,8.185546875E0,-9.344271660E0,3.945465326E0,1.303400503E1
3.924606781E0,8.214261055E0,-9.325128555E0,3.576671600E0,1.293153846E1
3.926993292E0,8.223832130E0,-9.298808098E0,3.203391314E0,1.282033396E1
3.929379750E0,8.214261055E0,-9.272486687E0,2.801098108E0,1.270036396E1
3.931766260E0,8.168797493E0,-9.238688469E0,2.315055847E0,1.254759342E1
3.934152771E0,8.094321251E0,-9.198010445E0,1.728515267E0,1.237373014E1
3.936539229E0,7.989036560E0,-9.164510727E0,1.046261668E0,1.220277122E1
3.938925739E0,7.850253105E0,-9.162117958E0,4.166502357E-1,1.207246771E1
3.941312250E0,7.685148239E0,-9.183652878E0,-6.699903309E-2,1.197520240E1
3.943698708E0,7.493422985E0,-9.226723671E0,-3.807578981E-1,1.189238388E1
3.946085219E0,7.268497944E0,-9.282057762E0,-5.554339290E-1,1.180237965E1
3.948471729E0,7.024429798E0,-9.337093353E0,-6.200401783E-1,1.170078528E1
3.950858187E0,6.758527756E0,-9.392127991E0,-6.032904387E-1,1.158679097E1
3.953244698E0,6.473781586E0,-9.444769859E0,-5.147559643E-1,1.146204604E1
3.955631208E0,6.179165363E0,-9.495018959E0,-3.879363835E-1,1.133525316E1
3.958017667E0,5.870192051E0,-9.535696983E0,-2.392822653E-1,1.120026463E1
3.960404177E0,5.561518192E0,-9.573982239E0,-7.657032460E-2,1.107237479E1
3.962790635E0,5.252544880E0,-9.602696419E0,9.332008660E-2,1.094576242E1
3.965177146E0,4.946263313E0,-9.624231339E0,2.608176768E-1,1.082401845E1
3.967563656E0,4.639683247E0,-9.640981674E0,4.286143482E-1,1.070788955E1
3.969950167E0,4.338187218E0,-9.640981674E0,5.865406394E-1,1.058831554E1
3.972336625E0,4.045963764E0,-9.629017830E0,7.444669604E-1,1.047100942E1
3.974723135E0,3.773182154E0,-9.607481956E0,8.739784956E-1,1.035878620E1
3.977109594E0,3.519243956E0,-9.578767776E0,9.936196208E-1,1.025305565E1
3.979496104E0,3.284747362E0,-9.538089752E0,1.106082320E0,1.014830722E1
3.981882614E0,3.061915636E0,-9.490233421E0,1.199402332E0,1.004382515E1
3.984269073E0,2.870489836E0,-9.439984322E0,1.278365493E0,9.949232846E0
3.986655583E0,2.710170746E0,-9.394520760E0,1.338186026E0,9.868778426E0
3.989042094E0,2.578565598E0,-9.361021042E0,1.398006678E0,9.809798069E0
3.991428552E0,2.475374937E0,-9.344271660E0,1.438983679E0,9.773104315E0
3.993815062E0,2.401197433E0,-9.353842735E0,1.479661703E0,9.769827111E0
3.996201573E0,2.350948334E0,-9.389735222E0,1.489233017E0,9.793462135E0
3.998588031E0,2.319841623E0,-9.459127426E0,1.510768414E0,9.855920963E0
4.000974542E0,2.295913219E0,-9.554840088E0,1.510768414E0,9.942263717E0
4.003361052E0,2.271985054E0,-9.676874161E0,1.520339727E0,1.005560751E1
4.005747510E0,2.248056889E0,-9.823135376E0,1.515554070E0,1.019041964E1
4.008134021E0,2.214557409E0,-9.997811317E0,1.534696579E0,1.035450575E1
4.010520531E0,2.171486616E0,-1.019162941E1,1.570588946E0,1.053809346E1
