"Time (s)","Acceleration x (m/s^2)","Acceleration y (m/s^2)","Acceleration z (m/s^2)","Absolute acceleration (m/s^2)"
3.668442800E-2,4.381856322E-1,3.275176048E0,1.070160007E1,1.120013522E1
3.907088600E-2,5.075774789E-1,3.289532900E0,1.078295612E1,1.128498136E1
4.145729200E-2,5.697908998E-1,3.299104214E0,1.080688477E1,1.131359839E1
4.384369800E-2,6.248258352E-1,3.320639610E0,1.083081245E1,1.134564027E1
4.623010500E-2,6.583253145E-1,3.342175007E0,1.077338505E1,1.129908631E1
4.861656300E-2,6.966105103E-1,3.385245800E0,1.074706364E1,1.128913337E1
5.100296900E-2,7.396813035E-1,3.397209883E0,1.060588741E1,1.116122803E1
5.338937600E-2,7.683951855E-1,3.385245800E0,1.055563831E1,1.111178746E1
5.577578200E-2,8.138588071E-1,3.375674486E0,1.038066292E1,1.094603613E1
5.816218800E-2,8.452646136E-1,3.323032379E0,1.023709393E1,1.079606912E1
6.054864600E-2,9.002995491E-1,3.272783279E0,1.000977516E1,1.056963805E1
6.293505300E-2,9.625129104E-1,3.179463148E0,9.875777245E0,1.041951982E1
6.532145900E-2,1.039083242E0,3.098107100E0,9.633803368E0,1.017291153E1
6.770791700E-2,1.115653515E0,3.011666298E0,9.471091270E0,1.000081929E1
7.009432300E-2,1.144367456E0,2.920739174E0,9.243474007E0,9.761255345E0
7.248073000E-2,1.165902853E0,2.825026274E0,9.087940216E0,9.588052997E0
7.486713600E-2,1.173081279E0,2.755634308E0,8.901300430E0,9.391634015E0
7.725354200E-2,1.177866936E0,2.650350094E0,8.796015739E0,9.261836698E0
7.964000100E-2,1.130010486E0,2.590529680E0,8.582756042E0,9.036120241E0
8.202640700E-2,1.067797065E0,2.559422970E0,8.496614456E0,8.937745450E0
8.441281300E-2,1.007976532E0,2.561815739E0,8.324331284E0,8.767748165E0
8.679921900E-2,9.649057388E-1,2.564208508E0,8.254939079E0,8.697713927E0
8.918567800E-2,9.242277741E-1,2.568994284E0,8.108677864E0,8.555967819E0
9.157208400E-2,9.266205430E-1,2.566601276E0,8.041678429E0,8.492035074E0
9.395849000E-2,9.529415965E-1,2.561815739E0,7.867002487E0,8.328308694E0
9.634489600E-2,1.005583763E0,2.535494804E0,7.792825222E0,8.256394949E0
9.873135500E-2,1.034297585E0,2.571387053E0,7.733004570E0,8.214691872E0
1.011177610E-1,1.041476011E0,2.580958366E0,7.749754429E0,8.234361668E0
1.035041670E-1,1.055832982E0,2.607279301E0,7.768897057E0,8.262472397E0
1.058905730E-1,1.074975610E0,2.647957325E0,7.816753387E0,8.322793045E0
1.082770320E-1,1.098903775E0,2.700599432E0,7.869395256E0,8.392151601E0
1.106634380E-1,1.120439172E0,2.767598391E0,7.955537319E0,8.497385411E0
1.130498440E-1,1.120439172E0,2.844168901E0,8.032107353E0,8.594150872E0
1.154362510E-1,1.094118118E0,2.937488794E0,8.125427246E0,8.709104593E0
1.178227090E-1,1.027119160E0,3.033201694E0,8.199904442E0,8.803051695E0
1.202091150E-1,9.481559992E-1,3.124428272E0,8.293224335E0,8.912834661E0
1.225955210E-1,8.835497499E-1,3.208176851E0,8.393722534E0,9.029265576E0
1.249819280E-1,8.401798606E-1,3.275176048E0,8.532505989E0,9.178035672E0
1.273683340E-1,8.186444640E-1,3.325425386E0,8.671290398E0,9.323084786E0
1.297547920E-1,8.138588071E-1,3.363710403E0,8.836693764E0,9.490209192E0
1.321411980E-1,8.234301209E-1,3.385245800E0,8.987442017E0,9.639089184E0
1.345276050E-1,8.476574421E-1,3.399602890E0,9.140582085E0,9.789078802E0
1.369140630E-1,8.835497499E-1,3.397209883E0,9.274879456E0,9.916908997E0
1.393004690E-1,9.314061999E-1,3.380460262E0,9.404091835E0,1.003653189E1
1.416868760E-1,9.912267923E-1,3.351746321E0,9.516554832E0,1.013812359E1
1.440732820E-1,1.063011408E0,3.318246841E0,9.626625061E0,1.023780569E1
1.464596880E-1,1.141974568E0,3.279961586E0,9.727123260E0,1.032856141E1
1.488461460E-1,1.218544960E0,3.244069338E0,9.825528145E0,1.041872550E1
1.512325530E-1,1.290329576E0,3.210569859E0,9.918848038E0,1.050505857E1
1.536189590E-1,1.354935765E0,3.179463148E0,1.000977516E1,1.058963813E1
1.560053650E-1,1.410269856E0,3.153141975E0,1.009830952E1,1.067272320E1
1.583918230E-1,1.458126307E0,3.124428272E0,1.017727280E1,1.074546723E1
1.607782300E-1,1.494018674E0,3.098107100E0,1.024666500E1,1.080853843E1
1.631646360E-1,1.517946839E0,3.066701412E0,1.029212856E1,1.084604677E1
1.655510420E-1,1.529910922E0,3.033201694E0,1.032084274E1,1.086557568E1
1.679374480E-1,1.529910922E0,2.997309446E0,1.032323551E1,1.085788574E1
1.703239070E-1,1.517946839E0,2.961417198E0,1.031366348E1,1.083724176E1
1.727103130E-1,1.503589988E0,2.923131943E0,1.028734303E1,1.079976434E1
1.750967190E-1,1.479661703E0,2.884846687E0,1.024905777E1,1.074964764E1
1.774831260E-1,1.448554993E0,2.848954439E0,1.019641590E1,1.068558609E1
1.798695840E-1,1.422233939E0,2.810669184E0,1.013180923E1,1.061019175E1
1.822559900E-1,1.395613790E0,2.765205622E0,1.006241703E1,1.052835868E1
1.846423960E-1,1.371685624E0,2.719742060E0,9.985847473E0,1.044009905E1
1.870288030E-1,1.342971683E0,2.676671267E0,9.909276962E0,1.035190378E1
1.894152610E-1,1.316650629E0,2.640778780E0,9.825528145E0,1.025905867E1
1.918016670E-1,1.290329576E0,2.604886532E0,9.746265411E0,1.017054933E1
1.941880730E-1,1.264008522E0,2.566601276E0,9.657731056E0,1.007258303E1
1.965744800E-1,1.242473125E0,2.520838737E0,9.578767776E0,9.982542738E0
1.989609380E-1,1.228116274E0,2.480160713E0,9.490233421E0,9.885544858E0
2.013473440E-1,1.223330617E0,2.437089920E0,9.416056633E0,9.802962185E0
2.037337510E-1,1.225723386E0,2.401197433E0,9.327521324E0,9.709315166E0
2.061201570E-1,1.228116274E0,2.370090723E0,9.257830620E0,9.634989746E0
2.085066150E-1,1.230509043E0,2.348555326E0,9.171689034E0,9.547237525E0
2.108930210E-1,1.228116274E0,2.343769789E0,9.099904060E0,9.476802220E0
2.132794280E-1,1.194616675E0,2.398804665E0,8.982656479E0,9.373872745E0
2.156658340E-1,1.118046403E0,2.525923491E0,8.841479301E0,9.262940865E0
2.180522400E-1,1.027119160E0,2.664707184E0,8.712266922E0,9.168382249E0
2.204386980E-1,9.409775138E-1,2.793919563E0,8.654540062E0,9.142892808E0
2.228251050E-1,8.572286963E-1,2.918346405E0,8.613862038E0,9.135108427E0
2.252115110E-1,7.731808424E-1,3.030808926E0,8.609076500E0,9.159683921E0
2.275979170E-1,6.966105103E-1,3.131606579E0,8.597112656E0,9.176195943E0
2.299843760E-1,6.343970895E-1,3.220141172E0,8.599505424E0,9.204524017E0
2.323707820E-1,5.841478109E-1,3.299104214E0,8.587541580E0,9.217981757E0
2.347571880E-1,5.482555032E-1,3.361317635E0,8.589934349E0,9.240455208E0
2.371435940E-1,5.243272781E-1,3.418745279E0,8.577970505E0,9.249017048E0
2.395300530E-1,5.147559643E-1,3.466601849E0,8.585148811E0,9.272921988E0
2.419164590E-1,5.123631358E-1,3.504886866E0,8.580363274E0,9.282746459E0
2.443028650E-1,5.219344497E-1,3.533600807E0,8.592327118E0,9.305204755E0
2.466892710E-1,5.315057039E-1,3.547957659E0,8.597112656E0,9.315623859E0
2.490756780E-1,5.482555032E-1,3.557528973E0,8.609076500E0,9.331280441E0
2.514621360E-1,5.602195859E-1,3.555136204E0,8.609076500E0,9.331079123E0
2.538485420E-1,5.697908998E-1,3.545564890E0,8.597112656E0,9.316975801E0
2.562349480E-1,5.769693851E-1,3.519243956E0,8.561220169E0,9.274290403E0
2.586213550E-1,5.889334679E-1,3.480958700E0,8.522934914E0,9.225201117E0
2.610078130E-1,5.961119533E-1,3.425923824E0,8.491828918E0,9.176244433E0
2.633942190E-1,6.056832075E-1,3.366103172E0,8.467900276E0,9.132515415E0
2.657806260E-1,6.128616929E-1,3.296711445E0,8.455936432E0,9.096524982E0
2.681670320E-1,6.152545214E-1,3.220141172E0,8.465507507E0,9.078142137E0
2.705534900E-1,6.200401783E-1,3.143570662E0,8.508578300E0,9.091885999E0
2.729398960E-1,6.200401783E-1,3.064308405E0,8.580363274E0,9.132199611E0
2.753263030E-1,6.152545214E-1,2.994916677E0,8.700303078E0,9.221894473E0
2.777127090E-1,6.008976102E-1,2.939881802E0,8.848658562E0,9.343593596E0
2.800991150E-1,5.817549825E-1,2.892025232E0,9.032905579E0,9.502401380E0
2.824855730E-1,5.650052428E-1,2.856132984E0,9.233902931E0,9.682029224E0
2.848719800E-1,5.530411601E-1,2.829811811E0,9.451948166E0,9.881953933E0
2.872583860E-1,5.458626747E-1,2.817847729E0,9.664909363E0,1.008209824E1
2.896447920E-1,5.482555032E-1,2.810669184E0,9.882955551E0,1.028947306E1
2.920312510E-1,5.626124144E-1,2.815454960E0,1.008873844E1,1.048932613E1
2.944176570E-1,5.841478109E-1,2.832204819E0,1.029691410E1,1.069528180E1
2.968040630E-1,6.152545214E-1,2.853740215E0,1.048863888E1,1.088732827E1
2.991904690E-1,6.487540603E-1,2.875275612E0,1.066570759E1,1.106550541E1
3.015769280E-1,6.774678826E-1,2.901596546E0,1.080688477E1,1.121012862E1
3.039633340E-1,7.109674215E-1,2.925524712E0,1.091934681E1,1.132679585E1
3.063497400E-1,7.396813035E-1,2.944667339E0,1.098664474E1,1.139844537E1
3.087361460E-1,7.636095285E-1,2.959024191E0,1.102493000E1,1.144062958E1
3.111226050E-1,7.827520967E-1,2.966202736E0,1.100818062E1,1.142764630E1
3.135090110E-1,8.018946648E-1,2.968595505E0,1.095314598E1,1.137659884E1
3.158954170E-1,8.476574421E-1,2.985345364E0,1.086191940E1,1.129655271E1
3.182818230E-1,9.050851464E-1,3.009273529E0,1.077577782E1,1.122462890E1
3.206682300E-1,9.553344250E-1,3.030808926E0,1.066810036E1,1.113134457E1
3.230546880E-1,1.000798106E0,3.042773008E0,1.056281662E1,1.103780591E1
3.254410940E-1,1.043868899E0,3.049951553E0,1.043838978E1,1.092482713E1
3.278275010E-1,1.086939692E0,3.049951553E0,1.032084274E1,1.081681271E1
3.302139070E-1,1.122832060E0,3.042773008E0,1.018684387E1,1.069069724E1
3.326003130E-1,1.153938770E0,3.026023388E0,1.005763149E1,1.056618869E1
3.349867710E-1,1.173081279E0,3.014059305E0,9.911669731E0,1.042601890E1
3.373731780E-1,1.185045362E0,3.004487991E0,9.770194054E0,1.029018816E1
3.397595840E-1,1.192223907E0,2.992523909E0,9.617053032E0,1.014220421E1
3.421459900E-1,1.187438250E0,2.987738132E0,9.471091270E0,1.000190775E1
3.445324480E-1,1.177866936E0,2.987738132E0,9.317950249E0,9.855868633E0
3.469188550E-1,1.168295622E0,2.997309446E0,9.171689034E0,9.719498871E0
3.493052610E-1,1.170688510E0,3.011666298E0,9.032905579E0,9.593436750E0
3.516916670E-1,1.185045362E0,3.026023388E0,8.908478737E0,9.482728693E0
3.540781260E-1,1.216152072E0,3.037987471E0,8.803194046E0,9.391731424E0
3.564645320E-1,1.254437327E0,3.047558784E0,8.724231720E0,9.325955536E0
3.588509380E-1,1.299900889E0,3.049951553E0,8.666504860E0,9.279022216E0
3.612373440E-1,1.342971683E0,3.037987471E0,8.611469269E0,9.229861525E0
3.636237510E-1,1.381256819E0,3.006880760E0,8.566005707E0,9.182900200E0
3.660102090E-1,1.417448282E0,2.954238653E0,8.530113220E0,9.137807024E0
3.683966150E-1,1.460519075E0,2.870489836E0,8.551649094E0,9.138026597E0
3.707830210E-1,1.417448282E0,2.588136673E0,8.851051331E0,9.329990393E0
3.731694280E-1,1.287936807E0,2.240878344E0,1.002413273E1,1.035198309E1
3.755558860E-1,1.259222865E0,1.970489502E0,1.135992527E1,1.159811938E1
3.779422920E-1,1.326221943E0,1.773978829E0,1.182443237E1,1.203009004E1
3.803286980E-1,1.357328653E0,1.647159338E0,1.169043446E1,1.188367505E1
3.827151050E-1,1.328614831E0,1.556231976E0,1.129053402E1,1.147446006E1
3.851015110E-1,1.261615753E0,1.498804331E0,1.086191940E1,1.103718179E1
3.874879690E-1,1.151545882E0,1.467697620E0,1.054606628E1,1.070979497E1
3.898743760E-1,1.034297585E0,1.505982757E0,1.069681454E1,1.085170940E1
3.922607820E-1,9.960124493E-1,1.668694735E0,1.133360481E1,1.149900783E1
3.946471880E-1,1.043868899E0,1.931905150E0,1.200150108E1,1.220073555E1
3.970336460E-1,1.106082320E0,2.221735716E0,1.227936745E1,1.252766509E1
3.994200530E-1,1.110867858E0,2.487339020E0,1.214536953E1,1.244712352E1
4.018064590E-1,1.058225870E0,2.686242580E0,1.173111248E1,1.208117301E1
4.041928650E-1,9.696913958E-1,2.803490877E0,1.119242764E1,1.157887295E1
4.065793230E-1,8.739784956E-1,2.848954439E0,1.062981510E1,1.103962630E1
4.089657300E-1,8.066803217E-1,2.868097067E0,1.013659477E1,1.056538061E1
4.113521360E-1,7.755736113E-1,2.870489836E0,9.743872643E0,1.018745701E1
4.137385420E-1,7.660023570E-1,2.868097067E0,9.463912964E0,9.918588054E0
4.161249480E-1,7.636095285E-1,2.877668381E0,9.274879456E0,9.741019646E0
4.185114070E-1,7.683951855E-1,2.918346405E0,9.176474571E0,9.659961825E0
4.208978130E-1,7.731808424E-1,2.990130901E0,9.126225471E0,9.634660491E0
4.232842190E-1,7.755736113E-1,3.085843801E0,9.114261627E0,9.653689005E0
4.256706260E-1,7.636095285E-1,3.203391314E0,9.107083321E0,9.684202705E0
4.280570840E-1,7.348956466E-1,3.337389469E0,9.114261627E0,9.733858695E0
4.304434900E-1,6.798607111E-1,3.480958700E0,9.135796547E0,9.800105234E0
4.328298960E-1,6.056832075E-1,3.634099483E0,9.186046600E0,9.897322029E0
4.352163030E-1,5.147559643E-1,3.792324781E0,9.250652313E0,1.001105735E1
4.376027090E-1,4.142574072E-1,3.943072557E0,9.320343018E0,1.012858452E1
4.399891670E-1,3.089732230E-1,4.077070713E0,9.370592117E0,1.022379414E1
4.423755730E-1,2.057827413E-1,4.189533234E0,9.401699066E0,1.029497356E1
4.447619800E-1,1.124626622E-1,4.271188259E0,9.416056633E0,1.034010733E1
4.471483860E-1,3.828516230E-2,4.321437836E0,9.432806015E0,1.037565034E1
4.495348440E-1,-1.674975827E-2,4.342973232E0,9.461520195E0,1.041067056E1
4.519212510E-1,-5.024927482E-2,4.338187218E0,9.502198219E0,1.044577256E1
4.543076570E-1,-6.460621208E-2,4.304687977E0,9.552447319E0,1.047777468E1
4.566940630E-1,-5.503492057E-2,4.247260094E0,9.609874725E0,1.050675684E1
4.590804690E-1,-3.110669367E-2,4.165605068E0,9.657731056E0,1.051784210E1
4.614668760E-1,4.785645287E-3,4.062713623E0,9.691230774E0,1.050835947E1
4.638533340E-1,4.785645381E-2,3.940679789E0,9.707980156E0,1.047741028E1
4.662397400E-1,8.853443712E-2,3.789932013E0,9.724730492E0,1.043751916E1
4.686261460E-1,1.076770201E-1,3.653541088E0,9.770194054E0,1.043152188E1
4.710125530E-1,1.100698411E-1,3.540779352E0,9.866206169E0,1.048290313E1
4.733990110E-1,8.853443712E-2,3.457030535E0,1.000977516E1,1.059030204E1
4.757854170E-1,5.503492057E-2,3.392424345E0,1.019880867E1,1.074836127E1
4.781718230E-1,1.196411345E-2,3.330210924E0,1.042403316E1,1.094307614E1
4.805582300E-1,-3.349951655E-2,3.260818958E0,1.066331482E1,1.115080021E1
4.829446880E-1,-7.896314561E-2,3.179463148E0,1.088345432E1,1.133864185E1
4.853310940E-1,-1.316052526E-1,3.093321562E0,1.109671497E1,1.152054866E1
4.877175010E-1,-1.866401732E-1,3.002095222E0,1.128814125E1,1.168201794E1
4.901039070E-1,-2.368894368E-1,2.899203777E0,1.148195934E1,1.184469879E1
4.924903650E-1,-2.922234535E-1,2.791526794E0,1.166889858E1,1.200171698E1
4.948767710E-1,-3.568296731E-1,2.664707184E0,1.185314560E1,1.215421953E1
4.972631780E-1,-4.334000051E-1,2.533101797E0,1.201585770E1,1.228760662E1
4.996495840E-1,-5.219344497E-1,2.394019127E0,1.212862015E1,1.237364820E1
5.020359900E-1,-6.176473498E-1,2.257628202E0,1.218126202E1,1.240409278E1
5.044224480E-1,-7.181459069E-1,2.126022816E0,1.216929817E1,1.237447068E1
5.068088550E-1,-8.114659786E-1,2.003988981E0,1.210469151E1,1.229625981E1
5.091952610E-1,-8.931210637E-1,1.888834357E0,1.199432278E1,1.217493899E1
5.115816670E-1,-9.505487680E-1,1.790728688E0,1.185553932E1,1.202763754E1
5.139680730E-1,-9.840483069E-1,1.711765528E0,1.169282722E1,1.185835995E1
5.163545320E-1,-9.912267923E-1,1.647159338E0,1.151336479E1,1.167275603E1
5.187409380E-1,-9.696913958E-1,1.604088426E0,1.133121204E1,1.148519775E1
5.211273440E-1,-9.146564603E-1,1.580160260E0,1.116371441E1,1.131202998E1
5.235137510E-1,-8.306085467E-1,1.570588946E0,1.100100231E1,1.114355024E1
5.259002090E-1,-7.301099896E-1,1.568196177E0,1.083799076E1,1.097516941E1
5.282866150E-1,-6.200401783E-1,1.570588946E0,1.064895821E1,1.078199937E1
5.306730210E-1,-5.003990531E-1,1.565803289E0,1.044078255E1,1.056939352E1
5.330594280E-1,-3.735794425E-1,1.556231976E0,1.020837975E1,1.033307489E1
5.354458340E-1,-2.440679073E-1,1.529910922E0,9.993025780E0,1.011240628E1
5.378322920E-1,-1.196411327E-1,1.491625786E0,9.796515465E0,9.910145142E0
5.402186980E-1,-9.571290575E-3,1.434198022E0,9.624231339E0,9.730511006E0
5.426051050E-1,9.332008660E-2,1.357328653E0,9.463912964E0,9.561207994E0
5.449915110E-1,1.794617027E-1,1.252044439E0,9.301200867E0,9.386807729E0
5.473779690E-1,2.464607358E-1,1.096511006E0,9.080761909E0,9.150044598E0
5.497643760E-1,3.041875660E-1,9.098708034E-1,8.817551613E0,8.869589134E0
5.521507820E-1,3.975076675E-1,7.468597889E-1,8.534899712E0,8.576731602E0
5.545371880E-1,5.410770178E-1,6.224330068E-1,8.262117386E0,8.303178360E0
5.569235940E-1,7.372884750E-1,5.362913609E-1,8.015357971E0,8.067041969E0
5.593100530E-1,9.912267923E-1,4.908277392E-1,7.828717709E0,7.906469717E0
5.616964590E-1,1.371685624E0,4.788636267E-1,7.697112083E0,7.833030464E0
5.640828650E-1,2.097309113E0,4.908277392E-1,7.620542049E0,7.919108442E0
5.664692710E-1,3.303889751E0,5.027918816E-1,7.558029652E0,8.263915499E0
5.688556780E-1,4.915156841E0,5.243272781E-1,7.483851910E0,8.968931111E0
5.712421360E-1,6.535995007E0,5.889334679E-1,7.397710323E0,9.888993446E0
5.736285420E-1,7.850253105E0,6.990033388E-1,7.299604416E0,1.074240681E1
5.760149480E-1,8.752944946E0,8.524430394E-1,7.172784805E0,1.134854820E1
5.784013550E-1,9.325128555E0,1.015154958E0,7.002595425E0,1.170576374E1
5.807877610E-1,9.667302132E0,1.173081279E0,6.775277138E0,1.186327233E1
5.831742190E-1,9.818050385E0,1.316650629E0,6.466603279E0,1.182981996E1
5.855606260E-1,9.796515465E0,1.443769336E0,6.076273918E0,1.161797271E1
5.879470320E-1,9.617053032E0,1.546660781E0,5.623731613E0,1.124749865E1
5.903334380E-1,9.313164711E0,1.625623941E0,5.144867897E0,1.076324095E1
5.927198960E-1,8.922835350E0,1.690230131E0,4.670789719E0,1.021225466E1
5.951063030E-1,8.477471352E0,1.726122379E0,4.223331928E0,9.627229693E0
5.974927090E-1,8.020143509E0,1.730908036E0,3.816252947E0,9.048896678E0
5.998791150E-1,7.587042332E0,1.714158297E0,3.449851990E0,8.508996930E0
6.022655730E-1,7.196712971E0,1.690230131E0,3.095714331E0,8.014549438E0
6.046519800E-1,6.873383045E0,1.666301847E0,2.748456001E0,7.587751098E0
6.070383860E-1,6.617351055E0,1.642373681E0,2.401197433E0,7.228587373E0
6.094247920E-1,6.428019047E0,1.620838284E0,2.051845312E0,6.939496725E0
6.118111980E-1,6.284449577E0,1.594517231E0,1.704586983E0,6.703909939E0
6.141976570E-1,6.176772594E0,1.558624864E0,1.364507079E0,6.514883784E0
6.165840630E-1,6.100202084E0,1.510768414E0,1.053440213E0,6.372175684E0
6.189704690E-1,6.026024818E0,1.441376567E0,7.995018363E-1,6.247379027E0
6.213568760E-1,5.939883232E0,1.345364571E0,6.272186637E-1,6.122550277E0
6.237432820E-1,5.829514027E0,1.223330617E0,5.673980713E-1,5.983453197E0
6.261297400E-1,5.693123341E0,1.091725349E0,6.200401783E-1,5.829920019E0
6.285161460E-1,5.542375565E0,9.505487680E-1,1.005583763E0,5.712501078E0
6.309025530E-1,5.360520840E0,8.500502706E-1,1.436590910E0,5.614406699E0
6.332889590E-1,5.125725269E0,7.899305820E-1,1.876870275E0,5.515404961E0
6.356754170E-1,4.845765114E0,7.731808424E-1,2.322234392E0,5.428813934E0
6.380618230E-1,4.548755646E0,7.851449251E-1,2.813062191E0,5.405640514E0
6.404482300E-1,4.266402721E0,8.186444640E-1,3.457030535E0,5.551885361E0
6.428346360E-1,4.012464523E0,8.476574421E-1,4.677968502E0,6.221075791E0
6.452210420E-1,3.758825302E0,8.210372925E-1,6.830312252E0,7.839389986E0
6.476075010E-1,3.543172121E0,7.516453862E-1,9.018548965E0,9.718706957E0
6.499939070E-1,3.375674486E0,7.157530785E-1,1.017009449E1,1.073956715E1
6.523803130E-1,3.232105255E0,7.061817646E-1,1.038574791E1,1.089995214E1
6.547667190E-1,3.083451033E0,6.894320250E-1,1.017009449E1,1.064959195E1
6.571531260E-1,2.913560629E0,6.750751138E-1,9.926026344E0,1.036680090E1
6.595395840E-1,2.710170746E0,6.822535396E-1,9.897313118E0,1.028432313E1
6.619259900E-1,2.494517565E0,7.205387354E-1,1.015573788E1,1.048240458E1
6.643123960E-1,2.312663078E0,7.923234105E-1,1.053649521E1,1.081637269E1
6.666988030E-1,2.178664923E0,9.026923180E-1,1.082363415E1,1.107756699E1
6.690852610E-1,2.059023857E0,1.029511929E0,1.088824081E1,1.112893805E1
6.714716670E-1,1.793121457E0,1.125224829E0,1.056520939E1,1.077520603E1
6.738580730E-1,1.460519075E0,1.189831018E0,1.014377308E1,1.031721601E1
6.762444800E-1,1.108475089E0,1.223330617E0,9.696016312E0,9.835547119E0
6.786308860E-1,7.779664397E-1,1.232901812E0,9.250652313E0,9.364819639E0
6.810173440E-1,5.051847100E-1,1.220937729E0,8.829515457E0,8.927835333E0
6.834037510E-1,3.161516786E-1,1.197009563E0,8.489435196E0,8.579236197E0
6.857901570E-1,2.177468538E-1,1.161117196E0,8.269295692E0,8.353254341E0
6.881765630E-1,2.081755698E-1,1.120439172E0,8.178368568E0,8.257386599E0
6.905629690E-1,2.850449979E-1,1.077368379E0,8.171190262E0,8.246837186E0
6.929494280E-1,4.214358926E-1,1.034297585E0,8.187939644E0,8.263760362E0
6.953358340E-1,5.841478109E-1,9.888339639E-1,8.211868286E0,8.291791243E0
6.977222400E-1,7.492526174E-1,9.433703423E-1,8.252546310E0,8.340014850E0
7.001086460E-1,8.907282352E-1,8.907282352E-1,8.305188179E0,8.400175252E0
7.024950530E-1,9.984052777E-1,8.330013752E-1,8.367402077E0,8.467828642E0
7.048815110E-1,1.084546804E0,7.636095285E-1,8.427222252E0,8.530968067E0
7.072679170E-1,1.168295622E0,6.798607111E-1,8.479864120E0,8.586921494E0
7.096543230E-1,1.259222865E0,5.793621540E-1,8.520542145E0,8.632551255E0
7.120407300E-1,1.357328653E0,4.621138871E-1,8.546863556E0,8.666300650E0
7.144271360E-1,1.458126307E0,3.305086195E-1,8.561220169E0,8.690791624E0
7.168135940E-1,1.558624864E0,1.890329868E-1,8.568398476E0,8.711056042E0
7.192000010E-1,1.654337764E0,4.546362907E-2,8.556434631E0,8.715014284E0
7.215864070E-1,1.738086581E0,-1.004985496E-1,8.525327682E0,8.701279045E0
7.239728130E-1,1.807478428E0,-2.440679073E-1,8.475078583E0,8.669112088E0
7.263592710E-1,1.869691849E0,-3.855435550E-1,8.396115303E0,8.610409028E0
7.287456780E-1,1.917548299E0,-5.195416212E-1,8.300402641E0,8.534846160E0
7.311320840E-1,1.958226204E0,-6.487540603E-1,8.175975800E0,8.432206827E0
7.335184900E-1,2.001596212E0,-7.755736113E-1,8.051250458E0,8.332498770E0
7.359048960E-1,2.039881229E0,-8.979067206E-1,7.910073280E0,8.218066148E0
7.382913550E-1,2.073380709E0,-1.010369420E0,7.768897057E0,8.104043152E0
7.406777610E-1,2.102094650E0,-1.110867858E0,7.627720356E0,7.989677537E0
7.430641670E-1,2.116451740E0,-1.201795220E0,7.486244678E0,7.871946335E0
7.454505730E-1,2.104487419E0,-1.275972724E0,7.349853992E0,7.750956547E0
7.478369800E-1,2.054238319E0,-1.338186026E0,7.211070061E0,7.616440660E0
7.502234380E-1,1.970489502E0,-1.390828133E0,7.077072144E0,7.476776170E0
7.526098440E-1,1.857727647E0,-1.427019596E0,6.937989235E0,7.322788510E0
7.549962510E-1,1.733300924E0,-1.458126307E0,6.808776855E0,7.175646778E0
7.573826570E-1,1.599302888E0,-1.489233017E0,6.686742783E0,7.034778870E0
7.597691150E-1,1.455733418E0,-1.517946839E0,6.581458569E0,6.909335661E0
7.621555210E-1,1.299900889E0,-1.549053550E0,6.507281303E0,6.814251183E0
7.645419280E-1,1.132403374E0,-1.575374603E0,6.466603279E0,6.751377675E0
7.669283340E-1,9.529415965E-1,-1.601695657E0,6.476174355E0,6.739017802E0
7.693147400E-1,7.588238716E-1,-1.623231053E0,6.514459610E0,6.756395247E0
7.717011980E-1,5.650052428E-1,-1.642373681E0,6.586244106E0,6.811404676E0
7.740876050E-1,3.640081584E-1,-1.659123421E0,6.655636311E0,6.868965509E0
7.764740110E-1,1.698904037E-1,-1.668694735E0,6.744170666E0,6.949621776E0
7.788604170E-1,-7.178467698E-3,-1.680658817E0,6.830312252E0,7.034047985E0
7.812468230E-1,-1.555334777E-1,-1.699801445E0,6.926024914E0,7.133255689E0
7.836332820E-1,-2.775674164E-1,-1.726122379E0,7.026822567E0,7.241048096E0
7.860196880E-1,-3.640081584E-1,-1.754836321E0,7.134500027E0,7.356156815E0
7.884060940E-1,-4.238287210E-1,-1.788335800E0,7.263712406E0,7.492615941E0
7.907925010E-1,-4.597210586E-1,-1.821835399E0,7.400103092E0,7.634916728E0
7.931789590E-1,-4.836492836E-1,-1.860120535E0,7.558029652E0,7.798575335E0
7.955653650E-1,-4.932205677E-1,-1.907976985E0,7.728219032E0,7.975525821E0
7.979517710E-1,-4.812564552E-1,-1.970489502E0,7.922037601E0,8.177598450E0
8.003381780E-1,-4.453641176E-1,-2.059023857E0,8.166404724E0,8.433747362E0
8.027245840E-1,-3.975076675E-1,-2.171486616E0,8.458329201E0,8.741664563E0
8.051110420E-1,-3.999004960E-1,-2.286342144E0,8.805587769E0,9.106352550E0
8.074974480E-1,-3.520440459E-1,-2.475374937E0,9.282057762E0,9.612908633E0
8.098838550E-1,-2.560320199E-1,-2.707777977E0,1.005284595E1,1.041428470E1
8.122702610E-1,-9.332008660E-2,-2.990130901E0,1.117089272E1,1.156453352E1
8.146566670E-1,9.332008660E-2,-3.189034462E0,1.236072350E1,1.276581900E1
8.170431260E-1,3.161516786E-1,-3.239283562E0,1.309322643E1,1.349168219E1
8.194295320E-1,5.291129351E-1,-3.160320520E0,1.319880962E1,1.358220018E1
8.218159380E-1,6.631109715E-1,-3.006880760E0,1.293290710E1,1.329440236E1
8.242023440E-1,6.702894568E-1,-2.848954439E0,1.259282780E1,1.292846245E1
8.265887510E-1,5.913262963E-1,-2.726920605E0,1.239900875E1,1.270909835E1
8.289752090E-1,4.812564552E-1,-2.652743101E0,1.231286716E1,1.260457661E1
8.313616150E-1,3.759722710E-1,-2.604886532E0,1.215494061E1,1.243661409E1
8.337480210E-1,2.751746178E-1,-2.549851656E0,1.177657604E1,1.205260170E1
8.361344280E-1,1.794617027E-1,-2.475374937E0,1.120678520E1,1.147831530E1
8.385208340E-1,8.614161611E-2,-2.379662037E0,1.054128075E1,1.080688723E1
8.409072920E-1,4.785645287E-3,-2.252842426E0,9.820742607E0,1.007582787E1
8.432936980E-1,-3.589234129E-2,-2.090130568E0,9.006584167E0,9.245998725E0
8.456801050E-1,-7.178467698E-3,-1.888834357E0,8.034500122E0,8.253540996E0
8.480665110E-1,1.316052526E-1,-1.644766450E0,7.002595425E0,7.194367192E0
8.504529170E-1,3.807578981E-1,-1.359721422E0,6.052345753E0,6.214877958E0
8.528393760E-1,6.918248534E-1,-1.065404296E0,5.309972763E0,5.459809400E0
8.552257820E-1,1.000798106E0,-7.923234105E-1,4.817050934E0,4.983307429E0
8.576121880E-1,1.256830096E0,-5.578267574E-1,4.527220249E0,4.731439080E0
8.599985940E-1,1.422233939E0,-3.664009571E-1,4.364508629E0,4.604990186E0
8.623850010E-1,1.494018674E0,-2.081755698E-1,4.259224415E0,4.518453439E0
8.647714590E-1,1.482054472E0,-6.699903309E-2,4.196712017E0,4.451220741E0
8.671578650E-1,1.390828133E0,5.742774159E-2,4.163212299E0,4.389765084E0
8.695442710E-1,1.201795220E0,1.818545163E-1,4.175176620E0,4.348503493E0
8.719306780E-1,9.601200819E-1,2.946162820E-1,4.240081787E0,4.357398638E0
8.743171360E-1,7.205387354E-1,3.927220106E-1,4.364508629E0,4.440984375E0
8.767035420E-1,5.051847100E-1,4.621138871E-1,4.543970108E0,4.595261165E0
8.790899480E-1,3.065803945E-1,5.147559643E-1,4.747360229E0,4.785017700E0
8.814763550E-1,1.076770201E-1,5.530411601E-1,4.941477776E0,4.973494895E0
8.838627610E-1,-8.135596663E-2,5.793621540E-1,5.101797104E0,5.135232515E0
8.862492190E-1,-2.584248483E-1,6.032904387E-1,5.226223946E0,5.267272490E0
8.886356260E-1,-4.118646085E-1,6.152545214E-1,5.309972763E0,5.361341374E0
8.910220320E-1,-5.530411601E-1,6.200401783E-1,5.374877930E0,5.438714656E0
8.934084380E-1,-6.583253145E-1,6.176473498E-1,5.439484119E0,5.513879574E0
8.957948440E-1,-7.660023570E-1,6.080760360E-1,5.506483078E0,5.592662332E0
8.981813030E-1,-8.596215248E-1,5.913262963E-1,5.614160061E0,5.710289760E0
9.005677090E-1,-9.505487680E-1,5.650052428E-1,5.755336761E0,5.860603648E0
9.029541150E-1,-1.031904817E0,5.267201066E-1,5.944668770E0,6.056512891E0
9.053405210E-1,-1.094118118E0,4.812564552E-1,6.174379826E0,6.289011724E0
9.077269280E-1,-1.141974568E0,4.190430641E-1,6.444768906E0,6.558563048E0
9.101133860E-1,-1.153938770E0,3.448655605E-1,6.741777897E0,6.848509046E0
9.124997920E-1,-1.144367456E0,2.679961324E-1,7.067500591E0,7.164563030E0
9.148861980E-1,-1.106082320E0,1.842473447E-1,7.428816795E0,7.512967733E0
9.172726050E-1,-1.024726272E0,9.332008660E-2,7.826324463E0,7.893676404E0
9.196590110E-1,-9.098708034E-1,-9.571290575E-3,8.252546310E0,8.302558467E0
9.220454690E-1,-7.803592682E-1,-1.100698411E-1,8.695218086E0,8.730858693E0
9.244318760E-1,-6.487540603E-1,-2.129612118E-1,9.140582085E0,9.166050139E0
9.268182820E-1,-5.171487927E-1,-3.233301640E-1,9.569196701E0,9.588613600E0
9.292046880E-1,-3.831507266E-1,-4.334000051E-1,9.957133293E0,9.973923173E0
9.315910940E-1,-2.464607358E-1,-5.291129351E-1,1.031127071E1,1.032777842E1
9.339775530E-1,-1.100698411E-1,-6.200401783E-1,1.062981510E1,1.064845220E1
9.363639590E-1,2.632104978E-2,-6.990033388E-1,1.093131161E1,1.095366934E1
9.387503650E-1,1.435693651E-1,-7.516453862E-1,1.122353458E1,1.124959162E1
9.411367710E-1,2.321037948E-1,-7.803592682E-1,1.152054405E1,1.154927565E1
9.435231780E-1,2.775674164E-1,-7.755736113E-1,1.180289650E1,1.183160699E1
9.459096360E-1,2.727817893E-1,-7.396813035E-1,1.208076286E1,1.210645983E1
9.482960420E-1,2.297109663E-1,-6.750751138E-1,1.233440208E1,1.235499771E1
9.506824480E-1,1.651047617E-1,-5.817549825E-1,1.257129192E1,1.258582850E1
9.530688550E-1,9.092725813E-2,-4.645066857E-1,1.280848026E1,1.281722282E1
9.554552610E-1,7.178467698E-3,-3.257229924E-1,1.304297733E1,1.304704582E1
9.578416670E-1,-8.135596663E-2,-1.674975902E-1,1.327777290E1,1.327907856E1
9.602281260E-1,-1.722832322E-1,4.785645287E-3,1.351226902E1,1.351336814E1
9.626145320E-1,-2.727817893E-1,1.890329868E-1,1.375663662E1,1.376063932E1
9.650009380E-1,-3.927220106E-1,3.807578981E-1,1.399352551E1,1.400421234E1
9.673873440E-1,-5.243272781E-1,5.745765567E-1,1.421366596E1,1.423493440E1
9.697738030E-1,-6.726822853E-1,7.612167001E-1,1.440299797E1,1.443877775E1
9.721602090E-1,-8.258228898E-1,9.409775138E-1,1.456331635E1,1.461703134E1
9.745466150E-1,-9.816554785E-1,1.110867858E0,1.469492245E1,1.476950983E1
9.769330210E-1,-1.130010486E0,1.283151150E0,1.477867126E1,1.487724857E1
9.793194280E-1,-1.264008522E0,1.453340650E0,1.481456280E1,1.493924990E1
9.817058860E-1,-1.390828133E0,1.630409479E0,1.480259895E1,1.495692394E1
9.840922920E-1,-1.503589988E0,1.821835399E0,1.474756432E1,1.493554553E1
9.864786980E-1,-1.608874083E0,2.025524378E0,1.468056488E1,1.490671694E1
9.888651050E-1,-1.697408557E0,2.245664120E0,1.460638809E1,1.487517315E1
9.912515110E-1,-1.778764486E0,2.477767944E0,1.456092358E1,1.487695643E1
9.936379690E-1,-1.850549221E0,2.717349291E0,1.455374527E1,1.492045646E1
9.960243760E-1,-1.907976985E0,2.956631422E0,1.460399437E1,1.502194052E1
9.984107820E-1,-1.946262121E0,3.184248686E0,1.469013596E1,1.515676319E1
1.000797188E0,-1.960619092E0,3.394817114E0,1.480499172E1,1.531524046E1
1.003183594E0,-1.948654890E0,3.591028690E0,1.493450356E1,1.548328581E1
1.005570053E0,-1.912762642E0,3.770789385E0,1.509243011E1,1.567351142E1
1.007956459E0,-1.855334878E0,3.940679789E0,1.527428436E1,1.588316680E1
1.010342865E0,-1.778764486E0,4.093820572E0,1.550668716E1,1.613631670E1
1.012729271E0,-1.683051586E0,4.240081787E0,1.577229023E1,1.641877265E1
1.015115678E0,-1.561017632E0,4.352544308E0,1.607887077E1,1.673055598E1
1.017502084E0,-1.410269856E0,4.426722050E0,1.637079430E1,1.701727461E1
1.019888542E0,-1.220937729E0,4.457828522E0,1.664866257E1,1.727833584E1
1.022274948E0,-1.007976532E0,4.448257446E0,1.688315773E1,1.748839689E1
1.024661355E0,-7.803592682E-1,4.405186653E0,1.709611893E1,1.767178294E1
1.027047761E0,-5.506483316E-1,4.333401680E0,1.727348709E1,1.781726522E1
1.029434167E0,-3.257229924E-1,4.249652863E0,1.743380737E1,1.794723612E1
1.031820626E0,-1.076770201E-1,4.163212299E0,1.756541252E1,1.805235852E1
1.034207032E0,9.332008660E-2,4.081856251E0,1.767069626E1,1.813625555E1
1.036593438E0,2.703889608E-1,4.000500202E0,1.776910019E1,1.821587312E1
1.038979844E0,4.286143482E-1,3.931108475E0,1.786242104E1,1.829490118E1
1.041366251E0,5.673980713E-1,3.878466368E0,1.797966957E1,1.840198250E1
1.043752709E0,6.846463680E-1,3.840181351E0,1.811366653E1,1.852891386E1
1.046139115E0,7.803592682E-1,3.809074640E0,1.828146362E1,1.869036978E1
1.048525521E0,8.620143533E-1,3.773182154E0,1.846331787E1,1.886462507E1
1.050911928E0,9.314061999E-1,3.720540047E0,1.867867279E1,1.906837049E1
1.053298334E0,9.840483069E-1,3.646063566E0,1.891107559E1,1.928447330E1
1.055684792E0,1.022333503E0,3.555136204E0,1.918625069E1,1.953961040E1
1.058071198E0,1.060618639E0,3.442673683E0,1.950240135E1,1.983231132E1
1.060457605E0,1.101296663E0,3.318246841E0,1.987807465E1,2.018319767E1
1.062844011E0,1.137188911E0,3.198605776E0,2.029711723E1,2.057904870E1
1.065230417E0,1.165902853E0,3.110071182E0,2.075205421E1,2.101617535E1
1.067616876E0,1.189831018E0,3.045166016E0,2.120459557E1,2.145515339E1
1.070003282E0,1.208973646E0,2.999702215E0,2.162842560E1,2.186889628E1
1.072389688E0,1.228116274E0,2.970988512E0,2.198256302E1,2.221639303E1
1.074776094E0,1.247258782E0,2.961417198E0,2.227478600E1,2.250537130E1
1.077162501E0,1.275972724E0,2.968595505E0,2.251167488E1,2.274238711E1
1.079548959E0,1.309472203E0,3.002095222E0,2.269113731E1,2.292629507E1
1.081935365E0,1.340578914E0,3.064308405E0,2.281586266E1,2.305972087E1
1.084321771E0,1.364507079E0,3.157927752E0,2.289482689E1,2.315183547E1
1.086708178E0,1.374078393E0,3.284747362E0,2.291875458E1,2.319368380E1
1.089094584E0,1.357328653E0,3.435495138E0,2.289961243E1,2.319562927E1
1.091480990E0,1.314257860E0,3.591028690E0,2.284696960E1,2.316477457E1
1.093867448E0,1.244866014E0,3.732504129E0,2.277039909E1,2.310784182E1
1.096253855E0,1.151545882E0,3.852145433E0,2.267438698E1,2.302808953E1
1.098640261E0,1.051047325E0,3.945465326E0,2.254517555E1,2.291192567E1
1.101026667E0,9.505487680E-1,4.007678986E0,2.238006973E1,2.275593450E1
1.103413073E0,8.476574421E-1,4.041178226E0,2.217667961E1,2.255780936E1
1.105799480E0,7.564310431E-1,4.055535316E0,2.194667053E1,2.233105242E1
1.108185938E0,6.655037999E-1,4.048357010E0,2.170978165E1,2.209404239E1
1.110572344E0,5.769693851E-1,4.038785458E0,2.147259140E1,2.185673496E1
1.112958751E0,4.884349108E-1,4.017250061E0,2.122613144E1,2.160845951E1
1.115345157E0,4.094717801E-1,3.990929127E0,2.097219276E1,2.135247180E1
1.117731615E0,3.352942765E-1,3.962215185E0,2.071137619E1,2.108963430E1
1.120118021E0,2.751746178E-1,3.935894251E0,2.043829536E1,2.081564080E1
1.122504428E0,2.273181528E-1,3.923929930E0,2.015594101E1,2.053559976E1
1.124890834E0,1.914258152E-1,3.916751623E0,1.986611176E1,2.024944403E1
1.127277240E0,1.722832322E-1,3.926322937E0,1.957418633E1,1.996483067E1
1.129663646E0,1.555334777E-1,3.940679789E0,1.927478409E1,1.967410607E1
1.132050105E0,1.411765367E-1,3.945465326E0,1.895893288E1,1.936563356E1
1.134436511E0,1.292124242E-1,3.950251102E0,1.862842369E1,1.904309189E1
1.136822917E0,1.244267747E-1,3.935894251E0,1.826710701E1,1.868673177E1
1.139209323E0,1.316052526E-1,3.904787540E0,1.787199211E1,1.829406428E1
1.141595730E0,1.483550072E-1,3.859323740E0,1.744816399E1,1.787050126E1
1.143982188E0,1.674975902E-1,3.797110319E0,1.699562073E1,1.741543069E1
1.146368594E0,1.962114573E-1,3.727718592E0,1.652154350E1,1.693799825E1
1.148755001E0,2.273181528E-1,3.641277790E0,1.604058647E1,1.645025811E1
1.151141407E0,2.608176768E-1,3.540779352E0,1.556650734E1,1.596625488E1
1.153527813E0,2.970091105E-1,3.433102369E0,1.510200119E1,1.549015320E1
1.155914271E0,3.305086195E-1,3.311068296E0,1.467338657E1,1.504595237E1
1.158300678E0,3.544368446E-1,3.177070379E0,1.427348614E1,1.462709158E1
1.160687084E0,3.735794425E-1,3.028416157E0,1.390259838E1,1.423352057E1
1.163073490E0,3.831507266E-1,2.877668381E0,1.354576874E1,1.385336170E1
1.165459896E0,3.999004960E-1,2.726920605E0,1.320359516E1,1.348817784E1
1.167846303E0,4.142574072E-1,2.576172590E0,1.287069416E1,1.313251852E1
1.170232761E0,4.310071766E-1,2.434697151E0,1.254497051E1,1.278631309E1
1.172619167E0,4.429712892E-1,2.298306227E0,1.222911835E1,1.245109516E1
1.175005573E0,4.621138871E-1,2.169093609E0,1.191296673E1,1.211764385E1
1.177391980E0,4.836492836E-1,2.044667006E0,1.160429287E1,1.179297218E1
1.179778386E0,5.003990531E-1,1.915155411E0,1.130249786E1,1.147452297E1
1.182164844E0,5.171487927E-1,1.781157374E0,1.101296616E1,1.116805211E1
1.184551251E0,5.219344497E-1,1.644766450E0,1.073749256E1,1.087526638E1
1.186937657E0,5.123631358E-1,1.494018674E0,1.047906780E1,1.059742751E1
1.189324063E0,4.980062246E-1,1.333400369E0,1.023948669E1,1.033794247E1
1.191710469E0,4.764707983E-1,1.163509965E0,1.000498962E1,1.008367975E1
1.194096928E0,4.381856322E-1,9.864411354E-1,9.789336205E0,9.848663670E0
1.196483334E0,3.831507266E-1,8.186444640E-1,9.571589470E0,9.614172259E0
1.198869740E0,3.185445070E-1,6.678966284E-1,9.358628273E0,9.387836794E0
1.201256146E0,2.488535494E-1,5.338985324E-1,9.162117958E0,9.181033777E0
1.203642553E0,1.651047617E-1,4.142574072E-1,8.977870941E0,8.988939616E0
1.206029011E0,6.939185411E-2,3.089732230E-1,8.851051331E0,8.856714365E0
1.208415417E0,-1.914258115E-2,2.201396823E-1,8.764909744E0,8.767694722E0
1.210801823E0,-9.092725813E-2,1.387837082E-1,8.731410027E0,8.732986301E0
1.213188230E0,-1.435693651E-1,6.460621208E-2,8.738588333E0,8.740006418E0
1.215574636E0,-1.842473447E-1,-2.392822644E-3,8.781659126E0,8.783592080E0
1.217961042E0,-2.153540403E-1,-6.460621208E-2,8.867800713E0,8.870650529E0
1.220347501E0,-2.512463629E-1,-1.339980662E-1,8.953942299E0,8.958468781E0
1.222733907E0,-2.946162820E-1,-2.033899277E-1,9.044869423E0,9.051951673E0
1.225120313E0,-3.472583890E-1,-2.727817893E-1,9.099904060E0,9.110612065E0
1.227506719E0,-4.166502357E-1,-3.424727321E-1,9.121439934E0,9.137371146E0
1.229893126E0,-4.908277392E-1,-4.166502357E-1,9.109476089E0,9.132199292E0
1.232279584E0,-5.673980713E-1,-4.908277392E-1,9.040083885E0,9.071161397E0
1.234665990E0,-6.559324861E-1,-5.673980713E-1,8.939585686E0,8.981557784E0
1.237052396E0,-7.540382147E-1,-6.343970895E-1,8.819944382E0,8.874821249E0
1.239438803E0,-8.620143533E-1,-6.942176819E-1,8.690432549E0,8.760629248E0
1.241825209E0,-9.672985673E-1,-7.444669604E-1,8.570791245E0,8.657272095E0
1.244211667E0,-1.070189953E0,-7.851449251E-1,8.432007790E0,8.535837068E0
1.246598073E0,-1.158724308E0,-8.186444640E-1,8.286046028E0,8.406627122E0
1.248984480E0,-1.235294700E0,-8.500502706E-1,8.101499557E0,8.239103928E0
1.251370886E0,-1.295115232E0,-8.835497499E-1,7.890930653E0,8.045170613E0
1.253757292E0,-1.335793257E0,-9.218349457E-1,7.661220074E0,7.831246153E0
1.256143751E0,-1.366899967E0,-9.577272534E-1,7.404888630E0,7.590654295E0
1.258530157E0,-1.386042476E0,-9.912267923E-1,7.153642178E0,7.353790907E0
1.260916563E0,-1.383649707E0,-1.017547846E0,6.887740135E0,7.098651583E0
1.263302969E0,-1.347757339E0,-1.041476011E0,6.626922131E0,6.842310944E0
1.265689376E0,-1.275972724E0,-1.065404296E0,6.361020088E0,6.574630732E0
1.268075782E0,-1.182652593E0,-1.086939692E0,6.093023777E0,6.301193839E0
1.270462240E0,-1.067797065E0,-1.101296663E0,5.841478348E0,6.039529303E0
1.272848646E0,-9.242277741E-1,-1.115653515E0,5.542375565E0,5.728595521E0
1.275235053E0,-7.612167001E-1,-1.122832060E0,5.223830700E0,5.397092725E0
1.277621459E0,-6.056832075E-1,-1.115653515E0,4.876871586E0,5.039386012E0
1.280007865E0,-4.621138871E-1,-1.094118118E0,4.508078098E0,4.661910750E0
1.282394323E0,-3.400799036E-1,-1.058225870E0,4.148855209E0,4.295171228E0
1.284780730E0,-2.297109663E-1,-1.012762189E0,3.768396616E0,3.908870353E0
1.287167136E0,-1.387837082E-1,-9.720842242E-1,3.409173965E0,3.547770537E0
1.289553542E0,-6.221338734E-2,-9.337990284E-1,3.054737091E0,3.194881817E0
1.291939948E0,1.196411345E-2,-9.074779749E-1,2.717349291E0,2.864899053E0
1.294326355E0,7.178468257E-2,-8.859425783E-1,2.401197433E0,2.560428950E0
1.296712813E0,1.148554832E-1,-8.596215248E-1,2.104487419E0,2.276182823E0
1.299099219E0,1.339980662E-1,-8.306085467E-1,1.857727647E0,2.039367071E0
1.301485626E0,1.339980662E-1,-7.899305820E-1,1.644766450E0,1.829536138E0
1.303872032E0,1.148554832E-1,-7.420741320E-1,1.477268934E0,1.657163029E0
1.306258438E0,9.092725813E-2,-6.918248534E-1,1.340578914E0,1.511304476E0
1.308644896E0,6.460621208E-2,-6.439684033E-1,1.225723386E0,1.386097791E0
1.311031303E0,4.067798331E-2,-6.032904387E-1,1.132403374E0,1.283725614E0
1.313417709E0,2.392822690E-2,-5.745765567E-1,1.046261668E0,1.193890388E0
1.315804115E0,1.914258115E-2,-5.602195859E-1,9.792626500E-1,1.128347358E0
1.318190521E0,2.153540403E-2,-5.602195859E-1,9.170492887E-1,1.074843782E0
1.320576980E0,3.828516230E-2,-5.865406394E-1,8.596215248E-1,1.041366814E0
1.322963386E0,6.221338734E-2,-6.343970895E-1,8.162516356E-1,1.035662544E0
1.325349792E0,8.853443712E-2,-7.037889361E-1,7.755736113E-1,1.051033605E0
1.327736198E0,1.124626622E-1,-7.875377536E-1,7.420741320E-1,1.087905134E0
1.330122605E0,1.244267747E-1,-8.787640929E-1,7.109674215E-1,1.137182056E0
1.332509011E0,1.196411327E-1,-9.816554785E-1,6.726822853E-1,1.196019622E0
1.334895469E0,9.571290761E-2,-1.091725349E0,6.487540603E-1,1.273541138E0
1.337281876E0,5.982056633E-2,-1.201795220E0,6.128616929E-1,1.350366508E0
1.339668282E0,1.196411345E-2,-1.309472203E0,5.865406394E-1,1.434883449E0
1.342054688E0,-4.307080805E-2,-1.405484200E0,5.554339290E-1,1.511868969E0
1.344441094E0,-1.028913707E-1,-1.482054472E0,5.219344497E-1,1.574638899E0
1.346827553E0,-1.603191197E-1,-1.546660781E0,4.932205677E-1,1.631296515E0
1.349213959E0,-2.129612118E-1,-1.599302888E0,4.549354017E-1,1.676331836E0
1.351600365E0,-2.608176768E-1,-1.642373681E0,4.334000051E-1,1.718503050E0
1.353986771E0,-2.994019389E-1,-1.680658817E0,4.022932947E-1,1.753880120E0
1.356373178E0,-3.329014480E-1,-1.726122379E0,3.807578981E-1,1.798693531E0
1.358759584E0,-3.568296731E-1,-1.776371717E0,3.664009571E-1,1.848532812E0
1.361146042E0,-3.664009571E-1,-1.831406593E0,3.424727321E-1,1.898838420E0
1.363532448E0,-3.664009571E-1,-1.893620014E0,3.352942765E-1,1.957669194E0
1.365918855E0,-3.496512175E-1,-1.960619092E0,3.233301640E-1,2.017628705E0
1.368305261E0,-3.137588799E-1,-2.025524378E0,3.185445070E-1,2.074286442E0
1.370691667E0,-2.584248483E-1,-2.085345030E0,3.137588799E-1,2.124592180E0
1.373078126E0,-1.938186288E-1,-2.135594130E0,3.041875660E-1,2.165838873E0
1.375464532E0,-1.196411327E-1,-2.173879385E0,2.946162820E-1,2.197012593E0
1.377850938E0,-3.828516230E-2,-2.190629244E0,2.751746178E-1,2.208176467E0
1.380237344E0,4.307080805E-2,-2.185843468E0,2.632105052E-1,2.202055070E0
1.382623751E0,1.124626622E-1,-2.157129526E0,2.392822653E-1,2.173272106E0
1.385010157E0,1.627119333E-1,-2.099701881E0,2.153540403E-1,2.116979104E0
1.387396615E0,1.914258152E-1,-2.015953064E0,1.914258152E-1,2.034048781E0
1.389783021E0,1.938186288E-1,-1.910369754E0,1.627119333E-1,1.927058232E0
1.392169428E0,1.531406492E-1,-1.781157374E0,1.292124242E-1,1.792392117E0
1.394555834E0,7.896314561E-2,-1.637588024E0,9.332008660E-2,1.642144438E0
1.396942240E0,-1.435693540E-2,-1.484447360E0,5.024927482E-2,1.485366984E0
1.399328698E0,-1.196411327E-1,-1.326221943E0,7.178467698E-3,1.331626890E0
1.401715105E0,-2.344966233E-1,-1.170688510E0,-4.307080805E-2,1.194719778E0
1.404101511E0,-3.448655605E-1,-1.024726272E0,-9.092725813E-2,1.085017950E0
1.406487917E0,-4.549354017E-1,-8.955138922E-1,-1.555334777E-1,1.016416260E0
1.408874323E0,-5.602195859E-1,-7.851449251E-1,-2.225325108E-1,9.898582000E-1
1.411260730E0,-6.750751138E-1,-6.942176819E-1,-3.017947674E-1,1.014270517E0
1.413647188E0,-8.066803217E-1,-6.272186637E-1,-3.927220106E-1,1.094699489E0
1.416033594E0,-9.577272534E-1,-5.769693851E-1,-4.980062246E-1,1.223987485E0
1.418420001E0,-1.122832060E0,-5.386841893E-1,-6.176473498E-1,1.390115369E0
1.420806407E0,-1.309472203E0,-5.075774789E-1,-7.444669604E-1,1.589523011E0
1.423192813E0,-1.503589988E0,-4.932205677E-1,-8.787640929E-1,1.810048538E0
1.425579219E0,-1.695015788E0,-4.932205677E-1,-1.019940615E0,2.038780005E0
1.427965678E0,-1.876870275E0,-4.956133962E-1,-1.168295622E0,2.265654282E0
1.430352084E0,-2.044667006E0,-5.003990531E-1,-1.307079315E0,2.477805221E0
1.432738490E0,-2.193022013E0,-5.027918816E-1,-1.438983679E0,2.670733842E0
1.435124896E0,-2.322234392E0,-5.027918816E-1,-1.563410521E0,2.844261715E0
1.437511303E0,-2.432304144E0,-4.980062246E-1,-1.680658817E0,2.998120696E0
1.439897761E0,-2.518445730E0,-4.932205677E-1,-1.793121457E0,3.130674046E0
1.442284167E0,-2.588136673E0,-4.908277392E-1,-1.891227245E0,3.242854268E0
1.444670573E0,-2.645564556E0,-5.003990531E-1,-1.996810555E0,3.352113278E0
1.447056980E0,-2.693420887E0,-5.195416212E-1,-2.094916344E0,3.451537926E0
1.449443386E0,-2.726920605E0,-5.506483316E-1,-2.173879385E0,3.530589349E0
1.451829792E0,-2.755634308E0,-6.008976102E-1,-2.267199516E0,3.618672688E0
1.454216251E0,-2.786741018E0,-6.607181430E-1,-2.355733871E0,3.708362987E0
1.456602657E0,-2.832204819E0,-7.301099896E-1,-2.420340061E0,3.796378635E0
1.458989063E0,-2.896811008E0,-8.042874932E-1,-2.477767944E0,3.895860159E0
1.461375469E0,-2.980559587E0,-8.739784956E-1,-2.523231506E0,4.001783490E0
1.463761876E0,-3.081058264E0,-9.409775138E-1,-2.545065880E0,4.105571707E0
1.466148334E0,-3.191427231E0,-1.000798106E0,-2.549851656E0,4.205775563E0
1.468534740E0,-3.313461065E0,-1.067797065E0,-2.499303341E0,4.285525871E0
1.470921146E0,-3.435495138E0,-1.122832060E0,-2.360519648E0,4.316877539E0
1.473307553E0,-3.552743435E0,-1.175474167E0,-2.147558212E0,4.314595196E0
1.475693959E0,-3.655933857E0,-1.220937729E0,-1.893620014E0,4.294454338E0
1.478080365E0,-3.737289906E0,-1.271187067E0,-1.635195136E0,4.272834601E0
1.480466823E0,-3.799503326E0,-1.328614831E0,-1.419841170E0,4.268183671E0
1.482853230E0,-3.861716747E0,-1.390828133E0,-1.256830096E0,4.292654310E0
1.485239636E0,-3.928715706E0,-1.450947881E0,-1.120439172E0,4.335370894E0
1.487626042E0,-4.000500202E0,-1.510768414E0,-9.768698215E-1,4.386421972E0
1.490012448E0,-4.077070713E0,-1.565803289E0,-8.090731502E-1,4.441716437E0
1.492398855E0,-4.148855209E0,-1.611266971E0,-6.080760360E-1,4.492097201E0
1.494785313E0,-4.203890324E0,-1.649552107E0,-3.807578981E-1,4.531963436E0
1.497171719E0,-4.232903481E0,-1.678265929E0,-1.555334777E-1,4.556121055E0
1.499558126E0,-4.225724697E0,-1.699801445E0,5.982056633E-2,4.555178665E0
1.501944532E0,-4.189533234E0,-1.721336842E0,2.584248483E-1,4.536735902E0
1.504330938E0,-4.136891365E0,-1.738086581E0,4.262215197E-1,4.507380605E0
1.506717396E0,-4.079463482E0,-1.752443433E0,5.793621540E-1,4.477582025E0
1.509103803E0,-4.036392689E0,-1.769193292E0,7.348956466E-1,4.467950588E0
1.511490209E0,-4.012464523E0,-1.795514345E0,8.859425783E-1,4.484265555E0
1.513876615E0,-4.010071754E0,-1.826620936E0,1.051047325E0,4.530112581E0
1.516263021E0,-4.024428368E0,-1.857727647E0,1.230509043E0,4.600144367E0
1.518649428E0,-4.043570995E0,-1.884048700E0,1.412662625E0,4.679286441E0
1.521035886E0,-4.062713623E0,-1.898405671E0,1.613659739E0,4.765866535E0
1.523422292E0,-4.069892406E0,-1.912762642E0,1.833799481E0,4.856491085E0
1.525808698E0,-4.072285175E0,-1.931905150E0,2.061416626E0,4.956329546E0
1.528195105E0,-4.065106392E0,-1.953440547E0,2.293520451E0,5.059768375E0
1.530581511E0,-4.053142548E0,-1.984846354E0,2.557030201E0,5.187097744E0
1.532967917E0,-4.043570995E0,-2.032702923E0,2.827419043E0,5.336351376E0
1.535354376E0,-4.043570995E0,-2.085345030E0,3.100499868E0,5.505654341E0
1.537740782E0,-4.057928085E0,-2.137987137E0,3.380460262E0,5.697831248E0
1.540127188E0,-4.093820572E0,-2.178664923E0,3.626920938E0,5.887317149E0
1.542513594E0,-4.144069672E0,-2.195414782E0,3.842574120E0,6.062881771E0
1.544900001E0,-4.206283092E0,-2.173879385E0,4.041178226E0,6.224924939E0
1.547286407E0,-4.273581028E0,-2.106880426E0,4.220939159E0,6.365435360E0
1.549672865E0,-4.352544308E0,-2.001596212E0,4.398007870E0,6.503345491E0
1.552059271E0,-4.436293125E0,-1.855334878E0,4.603790760E0,6.657165580E0
1.554445678E0,-4.520041943E0,-1.673480392E0,4.838586330E0,6.829585160E0
1.556832084E0,-4.596612453E0,-1.465304732E0,5.099404335E0,7.019963574E0
1.559218490E0,-4.663611412E0,-1.240080357E0,5.417948723E0,7.255428248E0
1.561604896E0,-4.716253281E0,-1.012762189E0,5.774479389E0,7.524183974E0
1.563991355E0,-4.754538536E0,-7.923234105E-1,6.171987057E0,7.831145338E0
1.566377761E0,-4.766502857E0,-5.745765567E-1,6.619743824E0,8.177450459E0
1.568764167E0,-4.749752998E0,-3.640081584E-1,7.101000309E0,8.550839776E0
1.571150573E0,-4.699503899E0,-1.363908947E-1,7.606184959E0,8.941923116E0
1.573536980E0,-4.603790760E0,1.076770201E-1,8.161619186E0,9.371153155E0
1.575923438E0,-4.450650215E0,3.783650696E-1,8.786444664E0,9.856625046E0
1.578309844E0,-4.235296249E0,6.655037999E-1,9.502198219E0,1.042460554E1
1.580696251E0,-3.959822416E0,9.529415965E-1,1.035194874E1,1.112434870E1
1.583082657E0,-3.634099483E0,1.237687469E0,1.133360481E1,1.196616678E1
1.585469063E0,-3.282354355E0,1.520339727E0,1.242293739E1,1.293888158E1
1.587855469E0,-2.925524712E0,1.795514345E0,1.362712479E1,1.405279675E1
1.590241928E0,-2.571387053E0,2.070987940E0,1.492971802E1,1.529043827E1
1.592628334E0,-2.231307030E0,2.350948334E0,1.633011818E1,1.664867709E1
1.595014740E0,-1.910369754E0,2.628814697E0,1.784088516E1,1.813442480E1
1.597401146E0,-1.608874083E0,2.896811008E0,1.945933151E1,1.973944206E1
1.599787553E0,-1.319043517E0,3.153141975E0,2.118306160E1,2.145703332E1
1.602173959E0,-1.051047325E0,3.382853031E0,2.301925278E1,2.329022098E1
1.604560417E0,-8.210372925E-1,3.595814228E0,2.494397926E1,2.521519549E1
1.606946823E0,-6.224330068E-1,3.799503326E0,2.689771843E1,2.717187710E1
1.609333230E0,-4.501497746E-1,3.998107433E0,2.887748146E1,2.915641325E1
1.611719636E0,-3.089732230E-1,4.196712017E0,3.088146973E1,3.116685786E1
1.614106042E0,-2.273181528E-1,4.400400639E0,3.282773209E1,3.312212543E1
1.616492448E0,-1.890329868E-1,4.620540619E0,3.467858124E1,3.498555596E1
1.618878907E0,-1.770688742E-1,4.855336189E0,3.645734406E1,3.677966257E1
1.621265313E0,-1.770688742E-1,5.097011566E0,3.813561249E1,3.847513249E1
1.623651719E0,-1.722832322E-1,5.331807137E0,3.974687958E1,4.010327025E1
1.626038126E0,-1.363908947E-1,5.539982796E0,4.128396606E1,4.165424187E1
1.628424532E0,-4.067798331E-2,5.707480431E0,4.272743607E1,4.310696905E1
1.630810990E0,1.387837082E-1,5.824728489E0,4.409463501E1,4.447789968E1
1.633197396E0,3.759722710E-1,5.867799282E0,4.535864639E1,4.573815941E1
1.635583803E0,7.157530785E-1,5.865406513E0,4.651976395E1,4.689353616E1
1.637970209E0,1.185045362E0,5.819942951E0,4.759712982E1,4.796626769E1
1.640356615E0,1.733300924E0,5.743372440E0,4.855725098E1,4.892644767E1
1.642743021E0,2.329412937E0,5.657230854E0,4.938785934E1,4.976536020E1
1.645129428E0,2.935096025E0,5.563910961E0,5.007250595E1,5.046610492E1
1.647515886E0,3.516851187E0,5.477769375E0,5.061597443E1,5.103284302E1
1.649902292E0,4.055535316E0,5.403591633E0,5.100869751E1,5.145418730E1
1.652288698E0,4.539184570E0,5.353342533E0,5.126472855E1,5.174296924E1
1.654675105E0,4.953442097E0,5.326722145E0,5.139184952E1,5.190407262E1
1.657061511E0,5.307579517E0,5.334199905E0,5.138706207E1,5.193509639E1
1.659447917E0,5.599802971E0,5.372485161E0,5.125515747E1,5.183929550E1
1.661834376E0,5.831906796E0,5.441876888E0,5.099194717E1,5.161205128E1
1.664220782E0,6.011667728E0,5.537590027E0,5.061597443E1,5.127164830E1
1.666607188E0,6.138487339E0,5.654838085E0,5.013232803E1,5.082232319E1
1.668993594E0,6.215057850E0,5.788836002E0,4.956014252E1,5.028265399E1
1.671380001E0,6.236593246E0,5.935097694E0,4.892095947E1,4.967273654E1
1.673766459E0,6.217450619E0,6.093023777E0,4.821477890E1,4.899435208E1
1.676152865E0,6.150451660E0,6.253343105E0,4.744159698E1,4.824559545E1
1.678539271E0,6.033203125E0,6.401698112E0,4.661069107E1,4.743350926E1
1.680925678E0,5.870192051E0,6.550352097E0,4.572474670E1,4.656306185E1
1.683312084E0,5.669195175E0,6.691528320E0,4.478167725E1,4.563238918E1
1.685698490E0,5.439484119E0,6.825526714E0,4.380002213E1,4.466114352E1
1.688084896E0,5.190331459E0,6.952346325E0,4.277289963E1,4.364396410E1
1.690471355E0,4.931906700E0,7.074679375E0,4.170031738E1,4.258275780E1
1.692857761E0,4.666004181E0,7.184749126E0,4.059902191E1,4.149304514E1
1.695244167E0,4.393222332E0,7.282855034E0,3.945704651E1,4.036333607E1
1.697630573E0,4.117748737E0,7.373782158E0,3.827917862E1,3.919979635E1
1.700016980E0,3.835395575E0,7.455138206E0,3.709413528E1,3.802978066E1
1.702403438E0,3.547957659E0,7.524529934E0,3.590191269E1,3.685313947E1
1.704789844E0,3.256033421E0,7.582256794E0,3.469772339E1,3.566545079E1
1.707176251E0,2.956631422E0,7.627720356E0,3.352224731E1,3.450601183E1
1.709562657E0,2.652743101E0,7.663612843E0,3.237309647E1,3.337342330E1
1.711949063E0,2.346162558E0,7.687541008E0,3.125983429E1,3.227661701E1
1.714335469E0,2.051845312E0,7.697112083E0,3.019203758E1,3.122522597E1
1.716721928E0,1.769193292E0,7.682755470E0,2.917209816E1,3.021863808E1
1.719108334E0,1.501197100E0,7.639684677E0,2.819283485E1,2.924815057E1
1.721494740E0,1.249651670E0,7.567600727E0,2.726172829E1,2.832017018E1
1.723881146E0,1.007976532E0,7.464709282E0,2.635664177E1,2.741186726E1
1.726267553E0,7.660023570E-1,7.337889671E0,2.546591377E1,2.651309391E1
1.728653959E0,5.171487927E-1,7.179963589E0,2.455155754E1,2.558511868E1
1.731040365E0,2.488535494E-1,7.000202656E0,2.365604210E1,2.467130100E1
1.733426823E0,-1.196411345E-2,6.806384087E0,2.280868530E1,2.380258668E1
1.735813230E0,-2.488535494E-1,6.591030121E0,2.199931145E1,2.296678711E1
1.738199636E0,-4.573282301E-1,6.353841305E0,2.121416664E1,2.214997324E1
1.740586042E0,-6.296114326E-1,6.104988098E0,2.045743752E1,2.135823120E1
1.742972448E0,-7.731808424E-1,5.834300041E0,1.976561165E1,2.062319736E1
1.745358855E0,-8.979067206E-1,5.547161102E0,1.911925125E1,1.992794523E1
1.747745313E0,-1.010369420E0,5.245366573E0,1.851596069E1,1.927110576E1
1.750131719E0,-1.115653515E0,4.927121162E0,1.796291924E1,1.865978760E1
1.752518126E0,-1.228116274E0,4.601397991E0,1.742423630E1,1.806336468E1
1.754904532E0,-1.357328653E0,4.264009953E0,1.690469360E1,1.748693191E1
1.757290938E0,-1.498804331E0,3.916751623E0,1.640908051E1,1.693650734E1
1.759677344E0,-1.639980793E0,3.564707518E0,1.595175171E1,1.642726573E1
1.762063803E0,-1.790728688E0,3.215355396E0,1.552582932E1,1.595608334E1
1.764450209E0,-1.943869352E0,2.858525753E0,1.512114334E1,1.551124668E1
1.766836615E0,-2.099701881E0,2.504088879E0,1.472124290E1,1.507959554E1
1.769223021E0,-2.257628202E0,2.149951220E0,1.433599854E1,1.467106095E1
1.771609428E0,-2.405983210E0,1.800299883E0,1.395045471E1,1.427042471E1
1.773995834E0,-2.547458887E0,1.455733418E0,1.356012630E1,1.387392273E1
1.776382292E0,-2.674278498E0,1.125224829E0,1.317458248E1,1.349027501E1
1.778768698E0,-2.784348249E0,8.114659786E-1,1.278933811E1,1.311404749E1
1.781155105E0,-2.892025232E0,5.219344497E-1,1.241336536E1,1.275648326E1
1.783541511E0,-3.004487991E0,2.584248483E-1,1.203978634E1,1.241169556E1
1.785927917E0,-3.124428272E0,1.914258115E-2,1.168325520E1,1.209383605E1
1.788314323E0,-3.248854876E0,-1.962114573E-1,1.133599758E1,1.179399839E1
1.790700782E0,-3.370888948E0,-3.903291821E-1,1.100339508E1,1.151477106E1
1.793087188E0,-3.485744476E0,-5.650052428E-1,1.068485069E1,1.125325197E1
1.795473594E0,-3.593421459E0,-7.205387354E-1,1.037348461E1,1.100186515E1
1.797860001E0,-3.691826344E0,-8.644071817E-1,1.008156013E1,1.077100907E1
1.800246407E0,-3.780360699E0,-9.936196208E-1,9.798908234E0,1.054973979E1
1.802632813E0,-3.859323740E0,-1.110867858E0,9.528518677E0,1.034026476E1
1.805019271E0,-3.928715706E0,-1.216152072E0,9.262915611E0,1.013486253E1
1.807405678E0,-3.990929127E0,-1.302293777E0,8.999405861E0,9.930397284E0
1.809792084E0,-4.043570995E0,-1.369292736E0,8.733802795E0,9.721354857E0
1.812178490E0,-4.091427803E0,-1.419841170E0,8.451150894E0,9.496193019E0
1.814564896E0,-4.134498596E0,-1.462911963E0,8.156833649E0,9.261108207E0
1.816951303E0,-4.167997837E0,-1.477268934E0,7.850253105E0,9.010050127E0
1.819337761E0,-4.196712017E0,-1.465304732E0,7.553243637E0,8.764188448E0
1.821724167E0,-4.213760853E0,-1.436590910E0,7.270890713E0,8.525574803E0
1.824110573E0,-4.225724697E0,-1.393221021E0,6.997809887E0,8.292596532E0
1.826496980E0,-4.242474556E0,-1.338186026E0,6.722635269E0,8.061213132E0
1.828883386E0,-4.256831646E0,-1.271187067E0,6.444768906E0,7.827616398E0
1.831269792E0,-4.275974274E0,-1.192223907E0,6.167201042E0,7.598665839E0
1.833656251E0,-4.297509670E0,-1.103689432E0,5.882156372E0,7.367936164E0
1.836042657E0,-4.326223373E0,-1.010369420E0,5.602196217E0,7.149941083E0
1.838429063E0,-4.352544308E0,-9.242277741E-1,5.317151070E0,6.933320592E0
1.840815469E0,-4.381258488E0,-8.452646136E-1,5.034798145E0,6.727487686E0
1.843201876E0,-4.405186653E0,-7.683951855E-1,4.752145767E0,6.525257850E0
1.845588282E0,-4.421936035E0,-7.037889361E-1,4.472185612E0,6.328450151E0
1.847974688E0,-4.429114819E0,-6.487540603E-1,4.199104786E0,6.137623393E0
1.850361146E0,-4.424329281E0,-6.008976102E-1,3.928715706E0,5.947316590E0
1.852747553E0,-4.407579422E0,-5.578267574E-1,3.658326626E0,5.755109100E0
1.855133959E0,-4.369294167E0,-5.123631358E-1,3.382853031E0,5.549499268E0
1.857520365E0,-4.311866283E0,-4.549354017E-1,3.110071182E0,5.335887913E0
1.859906771E0,-4.240081787E0,-3.903291821E-1,2.836990356E0,5.116557897E0
1.862293178E0,-4.156033993E0,-3.305086195E-1,2.561815739E0,4.893337754E0
1.864679636E0,-4.057928085E0,-2.826521695E-1,2.283949137E0,4.665093381E0
1.867066042E0,-3.952643871E0,-2.632105052E-1,1.996810555E0,4.436206233E0
1.869452448E0,-3.840181351E0,-2.775674164E-1,1.706979871E0,4.211628753E0
1.871838855E0,-3.725325823E0,-3.185445070E-1,1.422233939E0,4.000284048E0
1.874225261E0,-3.607778311E0,-3.831507266E-1,1.144367456E0,3.804266775E0
1.876611667E0,-3.495315790E0,-4.597210586E-1,8.691928387E-1,3.630987760E0
1.878998126E0,-3.382853031E0,-5.410770178E-1,6.008976102E-1,3.478151364E0
1.881384532E0,-3.272783279E0,-6.248258352E-1,3.544368446E-1,3.350692943E0
1.883770938E0,-3.153141975E0,-7.205387354E-1,1.148554832E-1,3.236459820E0
1.886157344E0,-3.026023388E0,-8.306085467E-1,-1.100698411E-1,3.139879531E0
1.888543751E0,-2.892025232E0,-9.457631707E-1,-3.520440459E-1,3.063039818E0
1.890930157E0,-2.760420084E0,-1.060618639E0,-5.937191248E-1,3.016178598E0
1.893316615E0,-2.638386011E0,-1.168295622E0,-8.644071817E-1,3.012174494E0
1.895703021E0,-2.525923491E0,-1.266401410E0,-1.125224829E0,3.041412982E0
1.898089428E0,-2.434697151E0,-1.345364571E0,-1.412662625E0,3.119835210E0
1.900475834E0,-2.355733871E0,-1.407876968E0,-1.699801445E0,3.228145688E0
1.902862240E0,-2.298306227E0,-1.453340650E0,-2.003988981E0,3.377925753E0
1.905248646E0,-2.255235434E0,-1.484447360E0,-2.300698996E0,3.547236487E0
1.907635053E0,-2.233700037E0,-1.508375525E0,-2.607279301E0,3.750002391E0
1.910021511E0,-2.226521492E0,-1.522732496E0,-2.918346405E0,3.974022892E0
1.912407917E0,-2.233700037E0,-1.537089467E0,-3.232105255E0,4.218834468E0
1.914794323E0,-2.240878344E0,-1.561017632E0,-3.545564890E0,4.475415309E0
1.917180730E0,-2.250449657E0,-1.589731574E0,-3.833002806E0,4.720559357E0
1.919567136E0,-2.283949137E0,-1.625623941E0,-4.117748737E0,4.981458774E0
1.921953542E0,-2.334198475E0,-1.663909078E0,-4.376472473E0,5.231690668E0
1.924339948E0,-2.394019127E0,-1.699801445E0,-4.591826439E0,5.450277294E0
1.926726407E0,-2.444268227E0,-1.721336842E0,-4.754538536E0,5.616323030E0
1.929112813E0,-2.461018085E0,-1.723729610E0,-4.862514496E0,5.715933958E0
1.931499219E0,-2.420340061E0,-1.711765528E0,-4.900799751E0,5.727654445E0
1.933885626E0,-2.317448616E0,-1.683051586E0,-4.924727917E0,5.697032191E0
1.936272032E0,-2.161915302E0,-1.647159338E0,-4.934299469E0,5.633322546E0
1.938658438E0,-1.965703845E0,-1.604088426E0,-4.922335148E0,5.537731900E0
1.941044896E0,-1.750050664E0,-1.558624864E0,-4.917549610E0,5.447410666E0
1.943431303E0,-1.534696579E0,-1.508375525E0,-4.907978535E0,5.358987182E0
1.945817709E0,-1.335793257E0,-1.462911963E0,-4.884049892E0,5.270521643E0
1.948204115E0,-1.170688510E0,-1.412662625E0,-4.855336189E0,5.190415859E0
1.950590521E0,-1.039083242E0,-1.374078393E0,-4.809872627E0,5.109076248E0
1.952976928E0,-9.433703423E-1,-1.352542996E0,-4.740181446E0,5.018828579E0
1.955363386E0,-8.883354068E-1,-1.354935765E0,-4.670789719E0,4.943811012E0
1.957749792E0,-8.644071817E-1,-1.378864050E0,-4.608576298E0,4.887478014E0
1.960136198E0,-8.596215248E-1,-1.417448282E0,-4.539184570E0,4.832422308E0
1.962522605E0,-8.620143533E-1,-1.460519075E0,-4.474578381E0,4.785189275E0
1.964909011E0,-8.572286963E-1,-1.503589988E0,-4.414757729E0,4.741909920E0
1.967295417E0,-8.401798606E-1,-1.532303810E0,-4.347758770E0,4.685815136E0
1.969681876E0,-8.066803217E-1,-1.553839207E0,-4.299902439E0,4.642661996E0
1.972068282E0,-7.564310431E-1,-1.563410521E0,-4.254438877E0,4.595290038E0
1.974454688E0,-6.870391965E-1,-1.553839207E0,-4.211368084E0,4.541151867E0
1.976841094E0,-6.104688644E-1,-1.539482236E0,-4.163212299E0,4.480514975E0
1.979227501E0,-5.291129351E-1,-1.517946839E0,-4.136891365E0,4.438242138E0
1.981613907E0,-4.429712892E-1,-1.498804331E0,-4.096213341E0,4.384244715E0
1.984000313E0,-3.687937856E-1,-1.479661703E0,-4.081856251E0,4.357402674E0
1.986386719E0,-3.041875660E-1,-1.465304732E0,-4.074677944E0,4.340811950E0
1.988773178E0,-2.512463629E-1,-1.443769336E0,-4.060320854E0,4.316688554E0
1.991159584E0,-2.201396823E-1,-1.417448282E0,-4.050749779E0,4.297231072E0
1.993545990E0,-2.009970993E-1,-1.386042476E0,-4.031607151E0,4.267946790E0
1.995932396E0,-1.986042857E-1,-1.362114310E0,-3.990929127E0,4.221648298E0
1.998318803E0,-2.081755698E-1,-1.335793257E0,-3.940679789E0,4.166129845E0
2.000705209E0,-2.249253243E-1,-1.311864972E0,-3.880859137E0,4.102761112E0
2.003091615E0,-2.488535494E-1,-1.290329576E0,-3.785146236E0,4.006770587E0
2.005478073E0,-2.775674164E-1,-1.261615753E0,-3.682255030E0,3.902271144E0
2.007864480E0,-3.089732230E-1,-1.230509043E0,-3.555136204E0,3.774733154E0
2.010250886E0,-3.424727321E-1,-1.197009563E0,-3.406781197E0,3.627158335E0
2.012637292E0,-3.759722710E-1,-1.151545882E0,-3.248854876E0,3.467343518E0
2.015023698E0,-4.118646085E-1,-1.098903775E0,-3.085843801E0,3.301462393E0
2.017410157E0,-4.501497746E-1,-1.043868899E0,-2.918346405E0,3.131939150E0
2.019796563E0,-4.884349108E-1,-9.792626500E-1,-2.758027315E0,2.967193737E0
2.022182969E0,-5.219344497E-1,-9.146564603E-1,-2.609672308E0,2.814143132E0
2.024569376E0,-5.458626747E-1,-8.572286963E-1,-2.451446772E0,2.653751754E0
2.026955782E0,-5.626124144E-1,-7.995018363E-1,-2.305484533E0,2.504195449E0
2.029342188E0,-5.721837282E-1,-7.444669604E-1,-2.166700840E0,2.361401661E0
2.031728594E0,-5.673980713E-1,-6.966105103E-1,-2.023131609E0,2.213654960E0
2.034115053E0,-5.506483316E-1,-6.535396576E-1,-1.893620014E0,2.077528442E0
2.036501459E0,-5.291129351E-1,-6.200401783E-1,-1.759621978E0,1.939247232E0
2.038887865E0,-4.980062246E-1,-5.937191248E-1,-1.637588024E0,1.811686269E0
2.041274271E0,-4.645066857E-1,-5.769693851E-1,-1.532303810E0,1.701944505E0
2.043660678E0,-4.286143482E-1,-5.721837282E-1,-1.443769336E0,1.611078637E0
2.046047084E0,-3.975076675E-1,-5.745765567E-1,-1.357328653E0,1.526594785E0
2.048433490E0,-3.687937856E-1,-5.841478109E-1,-1.290329576E0,1.463621514E0
2.050819948E0,-3.424727321E-1,-5.961119533E-1,-1.242473125E0,1.419991726E0
2.053206355E0,-3.113660514E-1,-6.152545214E-1,-1.208973646E0,1.391798915E0
2.055592761E0,-2.775674164E-1,-6.391827464E-1,-1.218544960E0,1.403727208E0
2.057979167E0,-2.416750938E-1,-6.750751138E-1,-1.252044439E0,1.442826579E0
2.060365573E0,-1.986042857E-1,-7.181459069E-1,-1.323829174E0,1.519111875E0
2.062751980E0,-1.531406492E-1,-7.612167001E-1,-1.436590910E0,1.633002255E0
2.065138386E0,-1.100698411E-1,-8.018946648E-1,-1.575374603E0,1.771145269E0
2.067524844E0,-7.896314561E-2,-8.401798606E-1,-1.718943954E0,1.914916628E0
2.069911251E0,-6.221338734E-2,-8.715856671E-1,-1.884048700E0,2.076817658E0
2.072297657E0,-6.699903309E-2,-8.907282352E-1,-2.044667006E0,2.231266193E0
2.074684063E0,-9.092725813E-2,-9.026923180E-1,-2.193022013E0,2.373281849E0
2.077070469E0,-1.339980662E-1,-9.074779749E-1,-2.350948334E0,2.523574811E0
2.079456876E0,-1.818545163E-1,-9.098708034E-1,-2.484946251E0,2.652525931E0
2.081843282E0,-2.368894368E-1,-9.074779749E-1,-2.600100994E0,2.764083584E0
2.084229740E0,-2.922234535E-1,-8.931210637E-1,-2.700599432E0,2.859422507E0
2.086616146E0,-3.472583890E-1,-8.739784956E-1,-2.781955481E0,2.936614223E0
2.089002553E0,-4.070789516E-1,-8.500502706E-1,-2.836990356E0,2.989450287E0
2.091388959E0,-4.621138871E-1,-8.186444640E-1,-2.880061150E0,3.029600671E0
2.093775365E0,-5.243272781E-1,-7.875377536E-1,-2.908775091E0,3.058775464E0
2.096161771E0,-5.865406394E-1,-7.588238716E-1,-2.918346405E0,3.071903210E0
2.098548178E0,-6.511468887E-1,-7.348956466E-1,-2.906382322E0,3.067755219E0
2.100934636E0,-7.157530785E-1,-7.133602500E-1,-2.877668381E0,3.049944364E0
2.103321042E0,-7.827520967E-1,-7.013961077E-1,-2.825026274E0,3.014204836E0
2.105707448E0,-8.572286963E-1,-6.942176819E-1,-2.755634308E0,2.968214896E0
2.108093855E0,-9.266205430E-1,-6.918248534E-1,-2.676671267E0,2.915787428E0
2.110480261E0,-9.960124493E-1,-6.942176819E-1,-2.602493763E0,2.871750821E0
2.112866667E0,-1.058225870E0,-6.942176819E-1,-2.518445730E0,2.818572170E0
2.115253073E0,-1.122832060E0,-6.966105103E-1,-2.441875458E0,2.776467862E0
2.117639532E0,-1.194616675E0,-6.990033388E-1,-2.360519648E0,2.736378569E0
2.120025938E0,-1.280758262E0,-6.990033388E-1,-2.276770830E0,2.704188012E0
2.122412344E0,-1.378864050E0,-7.061817646E-1,-2.176272154E0,2.671351576E0
2.124798751E0,-1.484447360E0,-7.109674215E-1,-2.073380709E0,2.647256354E0
2.127185157E0,-1.599302888E0,-7.133602500E-1,-1.975275040E0,2.639765909E0
2.129571563E0,-1.709372640E0,-7.181459069E-1,-1.874477386E0,2.636542023E0
2.131958021E0,-1.814656854E0,-7.253243923E-1,-1.781157374E0,2.644162734E0
2.134344428E0,-1.912762642E0,-7.301099896E-1,-1.711765528E0,2.668681836E0
2.136730834E0,-2.006381750E0,-7.253243923E-1,-1.673480392E0,2.711494020E0
2.139117240E0,-2.097309113E0,-7.085745931E-1,-1.635195136E0,2.752207587E0
2.141503646E0,-2.188236237E0,-6.822535396E-1,-1.613659739E0,2.803167044E0
2.143890053E0,-2.307877541E0,-6.726822853E-1,-1.596910000E0,2.885987136E0
2.146276459E0,-2.441875458E0,-6.583253145E-1,-1.580160260E0,2.982122469E0
2.148662917E0,-2.561815739E0,-6.224330068E-1,-1.541875124E0,3.054128620E0
2.151049323E0,-2.659921408E0,-5.602195859E-1,-1.467697620E0,3.089201221E0
2.153435730E0,-2.731706142E0,-4.860421121E-1,-1.350150228E0,3.085670271E0
2.155822136E0,-2.791526794E0,-4.094717801E-1,-1.192223907E0,3.062953938E0
2.158208542E0,-2.848954439E0,-3.281157911E-1,-9.984052777E-1,3.036612334E0
2.160594948E0,-2.915953398E0,-2.536391914E-1,-7.612167001E-1,3.024329334E0
2.162981355E0,-2.999702215E0,-1.866401732E-1,-4.788636267E-1,3.043412280E0
2.165367813E0,-3.102892876E0,-1.292124242E-1,-1.627119333E-1,3.109841671E0
2.167754219E0,-3.234498024E0,-8.135596663E-2,1.866401732E-1,3.240899692E0
2.170140626E0,-3.392424345E0,-4.546362907E-2,5.410770178E-1,3.435603909E0
2.172527032E0,-3.564707518E0,-2.153540403E-2,9.098708034E-1,3.679058078E0
2.174913438E0,-3.744468451E0,-2.392822644E-3,1.283151150E0,3.958222654E0
2.177299844E0,-3.928715706E0,9.571290575E-3,1.656730533E0,4.263760636E0
2.179686251E0,-4.112963200E0,1.196411345E-2,2.006381750E0,4.576262356E0
2.182072709E0,-4.299902439E0,9.571290575E-3,2.341377020E0,4.896049320E0
2.184459115E0,-4.481756687E0,7.178467698E-3,2.643171787E0,5.203129023E0
2.186845521E0,-4.649254322E0,0.000000000E0,2.903989315E0,5.481671250E0
2.189231928E0,-4.795515537E0,-2.392822644E-3,3.126821041E0,5.724856751E0
2.191618334E0,-4.919942379E0,-4.785645287E-3,3.294318676E0,5.921012705E0
2.194004740E0,-5.030012131E0,-1.196411345E-2,3.418745279E0,6.081856991E0
2.196391146E0,-5.125725269E0,-2.392822690E-2,3.500101328E0,6.206797999E0
2.198777553E0,-5.211866856E0,-4.067798331E-2,3.569493294E0,6.317158633E0
2.201164011E0,-5.298008442E0,-5.982056633E-2,3.626920938E0,6.420827629E0
2.203550417E0,-5.379663467E0,-7.896314561E-2,3.691826344E0,6.525074402E0
2.205936823E0,-5.453841209E0,-9.571290761E-2,3.766003847E0,6.628448527E0
2.208323230E0,-5.528018475E0,-1.028913707E-1,3.878466368E0,6.753671317E0
2.210709636E0,-5.609374523E0,-9.810572863E-2,4.060320854E0,6.925381774E0
2.213096042E0,-5.697908878E0,-7.896314561E-2,4.299902439E0,7.138736705E0
2.215482501E0,-5.793622017E0,-5.503492057E-2,4.591826439E0,7.392831322E0
2.217868907E0,-5.884549141E0,-3.349951655E-2,4.941477776E0,7.684220417E0
2.220255313E0,-5.961418629E0,-2.153540403E-2,5.346164227E0,8.007524447E0
2.222641719E0,-6.023632050E0,-1.914258115E-2,5.819942951E0,8.375932513E0
2.225028126E0,-6.083452702E0,-3.110669367E-2,6.351448536E0,8.794899823E0
2.227414532E0,-6.143272877E0,-4.785645381E-2,6.937989235E0,9.267026843E0
2.229800938E0,-6.200700760E0,-6.221338734E-2,7.567600727E0,9.783718168E0
2.232187344E0,-6.262914181E0,-5.982056633E-2,8.219046593E0,1.033346019E1
2.234573803E0,-6.320342064E0,-4.785645381E-2,8.891729355E0,1.090925593E1
2.236960209E0,-6.358626842E0,-2.153540403E-2,9.576375008E0,1.149519714E1
2.239346615E0,-6.351448536E0,2.153540403E-2,1.027777100E1,1.208196751E1
2.241733021E0,-6.282056808E0,8.374879509E-2,1.099621677E1,1.266443978E1
2.244119428E0,-6.150451660E0,1.770688742E-1,1.172154045E1,1.323835033E1
2.246505834E0,-5.978168488E0,3.137588799E-1,1.242293739E1,1.379008037E1
2.248892240E0,-5.784050465E0,4.980062246E-1,1.309083366E1,1.432037625E1
2.251278698E0,-5.592624664E0,7.348956466E-1,1.373958778E1,1.485240030E1
2.253665105E0,-5.417948723E0,1.031904817E0,1.440060520E1,1.542064934E1
2.256051511E0,-5.271687508E0,1.378864050E0,1.512353611E1,1.607523871E1
2.258437917E0,-5.149653435E0,1.762014747E0,1.596610928E1,1.686832155E1
2.260824323E0,-5.039583683E0,2.178664923E0,1.696212196E1,1.782856040E1
2.263210730E0,-4.927121162E0,2.619243383E0,1.817588043E1,1.901314252E1
2.265597136E0,-4.805087090E0,3.064308405E0,1.957897186E1,2.039154205E1
2.267983594E0,-4.680361271E0,3.507279873E0,2.113998985E1,2.193412785E1
2.270370001E0,-4.555934429E0,3.928715706E0,2.280389977E1,2.358408765E1
2.272756407E0,-4.421936035E0,4.311866283E0,2.459462738E1,2.535826108E1
2.275142813E0,-4.278367043E0,4.654039860E0,2.645953369E1,2.720425398E1
2.277529219E0,-4.120141506E0,4.948656559E0,2.835345268E1,2.907547157E1
2.279915626E0,-3.919144392E0,5.190331459E0,3.027578735E1,3.096647434E1
2.282302032E0,-3.646063566E0,5.382056236E0,3.220529938E1,3.285485682E1
2.284688490E0,-3.282354355E0,5.535196781E0,3.413989639E1,3.474111079E1
2.287074896E0,-2.803490877E0,5.652445316E0,3.604547882E1,3.659352733E1
2.289461303E0,-2.224128723E0,5.743372440E0,3.790111542E1,3.839827633E1
2.291847709E0,-1.570588946E0,5.815157413E0,3.969184113E1,4.014629569E1
2.294234115E0,-8.548358679E-1,5.870192051E0,4.141796494E1,4.184062283E1
2.296620521E0,-1.531406492E-1,5.906383514E0,4.304119492E1,4.344483028E1
2.299006928E0,5.602195859E-1,5.920740604E0,4.456841660E1,4.496346042E1
2.301393334E0,1.350150228E0,5.918347836E0,4.606003952E1,4.645833604E1
2.303779792E0,2.128415823E0,5.896812439E0,4.746073914E1,4.787300189E1
2.306166198E0,2.860918522E0,5.874977589E0,4.874389267E1,4.917994804E1
2.308552605E0,3.521636724E0,5.851049423E0,4.991218567E1,5.037720698E1
2.310939011E0,4.110570431E0,5.817550182E0,5.093212891E1,5.142783715E1
2.313325417E0,4.637290478E0,5.784050465E0,5.177230835E1,5.230039784E1
2.315711823E0,5.108975410E0,5.755336761E0,5.242345428E1,5.298531957E1
2.318098230E0,5.532804012E0,5.740979671E0,5.287360382E1,5.347138252E1
2.320484688E0,5.915955067E0,5.752943993E0,5.313232803E1,5.376931440E1
2.322871094E0,6.253343105E0,5.805585861E0,5.320889664E1,5.388873545E1
2.325257501E0,6.543173313E0,5.903990746E0,5.309404373E1,5.382051378E1
2.327643907E0,6.796812534E0,6.035595894E0,5.279703522E1,5.357379962E1
2.330030313E0,7.024429798E0,6.188736439E0,5.233013535E1,5.316094561E1
2.332416719E0,7.223034382E0,6.353841305E0,5.170770264E1,5.259496209E1
2.334803126E0,7.397710323E0,6.524031162E0,5.096084213E1,5.190661356E1
2.337189584E0,7.548458099E0,6.689135551E0,5.012036133E1,5.112508556E1
2.339575990E0,7.670791149E0,6.849454880E0,4.922753906E1,5.029022441E1
2.341962396E0,7.768897057E0,7.004988194E0,4.829373932E1,4.941367097E1
2.344348803E0,7.835896015E0,7.160820961E0,4.736951447E1,4.854430475E1
2.346735209E0,7.867002487E0,7.323532581E0,4.643840790E1,4.766602129E1
2.349121615E0,7.859824181E0,7.486244678E0,4.549982071E1,4.677664353E1
2.351508021E0,7.811967850E0,7.644470215E0,4.454209518E1,4.586352592E1
2.353894480E0,7.725826263E0,7.792825222E0,4.354638290E1,4.490772740E1
2.356280886E0,7.606184959E0,7.931608677E0,4.249533463E1,4.389325610E1
2.358667292E0,7.459923744E0,8.060821533E0,4.138685989E1,4.281938204E1
2.361053698E0,7.290033340E0,8.183154106E0,4.021856308E1,4.168502625E1
2.363440105E0,7.098607540E0,8.300402641E0,3.899971771E1,4.050018388E1
2.365826511E0,6.892525673E0,8.412865639E0,3.774288940E1,3.927860638E1
2.368212917E0,6.665207386E0,8.515756607E0,3.646452332E1,3.803425510E1
2.370599376E0,6.420840263E0,8.609076500E0,3.517658615E1,3.677955412E1
2.372985782E0,6.167201042E0,8.671290398E0,3.389553070E1,3.552650626E1
2.375372188E0,5.903990746E0,8.705088615E0,3.263869858E1,3.429169461E1
2.377758594E0,5.630909920E0,8.702695847E0,3.140101242E1,3.306762227E1
2.380145001E0,5.348556995E0,8.664112091E0,3.021596527E1,3.188539568E1
2.382531407E0,5.051547527E0,8.580363274E0,2.907159805E1,3.072944158E1
2.384917813E0,4.740181446E0,8.448758125E0,2.796790886E1,2.959822224E1
2.387304219E0,4.414757729E0,8.286046028E0,2.690968323E1,2.850052098E1
2.389690626E0,4.079463482E0,8.089534760E0,2.590410042E1,2.744275885E1
2.392077084E0,3.737289906E0,7.857431412E0,2.493201637E1,2.640666591E1
2.394463490E0,3.399602890E0,7.589435101E0,2.400090790E1,2.540079536E1
2.396849896E0,3.071486950E0,7.290033340E0,2.312214470E1,2.443792531E1
2.399236303E0,2.750848770E0,6.961917400E0,2.227000046E1,2.349443303E1
2.401622709E0,2.449054003E0,6.600601196E0,2.147019958E1,2.259502759E1
2.404009115E0,2.161915302E0,6.207879066E0,2.072812462E1,2.174550047E1
2.406395573E0,1.884048700E0,5.796014786E0,2.002433586E1,2.093125542E1
2.408781980E0,1.613659739E0,5.362913609E0,1.937797546E1,2.017103550E1
2.411168386E0,1.354935765E0,4.919942379E0,1.877917099E1,1.946018877E1
2.413554792E0,1.101296663E0,4.465006828E0,1.820459557E1,1.877648636E1
2.415941198E0,8.644071817E-1,4.010071754E0,1.767069626E1,1.814060036E1
2.418327605E0,6.391827464E-1,3.559921980E0,1.717777443E1,1.755441635E1
2.420714011E0,4.238287210E-1,3.124428272E0,1.670608902E1,1.700103212E1
2.423100417E0,2.201396823E-1,2.705385208E0,1.628944016E1,1.651403740E1
2.425486876E0,2.871387079E-2,2.305484533E0,1.592782402E1,1.609383924E1
2.427873282E0,-1.579262912E-1,1.924726725E0,1.560239983E1,1.572146285E1
2.430259688E0,-3.305086195E-1,1.558624864E0,1.533410454E1,1.541665688E1
2.432646094E0,-4.980062246E-1,1.201795220E0,1.511396503E1,1.516984710E1
2.435032501E0,-6.726822853E-1,8.476574421E-1,1.492493248E1,1.496411154E1
2.437418907E0,-8.644071817E-1,5.075774789E-1,1.476909924E1,1.480307829E1
2.439805313E0,-1.086939692E0,1.746760458E-1,1.464227962E1,1.468360658E1
2.442191719E0,-1.338186026E0,-1.435693651E-1,1.450349617E1,1.456580774E1
2.444578178E0,-1.608874083E0,-4.477569461E-1,1.436471272E1,1.446146374E1
2.446964584E0,-1.876870275E0,-7.372884750E-1,1.421127319E1,1.435362401E1
2.449350990E0,-2.128415823E0,-1.015154958E0,1.401745415E1,1.421441924E1
2.451737396E0,-2.350948334E0,-1.280758262E0,1.380927849E1,1.406639514E1
2.454123803E0,-2.540280342E0,-1.532303810E0,1.356730461E1,1.388786282E1
2.456510209E0,-2.714956284E0,-1.769193292E0,1.325623703E1,1.364656927E1
2.458896615E0,-2.875275612E0,-1.984846354E0,1.288026524E1,1.334571307E1
2.461283073E0,-3.006880760E0,-2.181057930E0,1.246122169E1,1.300309162E1
2.463669480E0,-3.119642496E0,-2.355733871E0,1.200389385E1,1.262438589E1
2.466055886E0,-3.212962627E0,-2.511267424E0,1.153250790E1,1.223226599E1
2.468442292E0,-3.284747362E0,-2.652743101E0,1.103689480E1,1.181692253E1
2.470828698E0,-3.339782238E0,-2.779562712E0,1.050299549E1,1.136631112E1
2.473215105E0,-3.378067255E0,-2.892025232E0,9.928419113E0,1.087881677E1
2.475601511E0,-3.406781197E0,-2.994916677E0,9.313164711E0,1.035908881E1
2.477987969E0,-3.423531055E0,-3.081058264E0,8.668897629E0,9.816479563E0
2.480374376E0,-3.425923824E0,-3.155534744E0,8.022536278E0,9.276607241E0
2.482760782E0,-3.416352510E0,-3.210569859E0,7.380960464E0,8.744015134E0
2.485147188E0,-3.404388428E0,-3.244069338E0,6.748956203E0,8.225707038E0
2.487533594E0,-3.387638569E0,-3.265604734E0,6.143272877E0,7.738221436E0
2.489920001E0,-3.363710403E0,-3.272783279E0,5.568696499E0,7.282584621E0
2.492306407E0,-3.332603693E0,-3.265604734E0,5.008476734E0,6.845090274E0
2.494692813E0,-3.289532900E0,-3.244069338E0,4.479363918E0,6.435037970E0
2.497079271E0,-3.232105255E0,-3.210569859E0,3.969393730E0,6.042379480E0
2.499465678E0,-3.165106058E0,-3.162713289E0,3.483351469E0,5.670484033E0
2.501852084E0,-3.069094181E0,-3.102892876E0,3.035594702E0,5.316212795E0
2.504238490E0,-2.963809967E0,-3.030808926E0,2.621636391E0,4.984270220E0
2.506624896E0,-2.889632463E0,-2.951845884E0,2.212164640E0,4.685834215E0
2.509011303E0,-2.813062191E0,-2.863311291E0,1.836192250E0,4.414008656E0
2.511397709E0,-2.748456001E0,-2.772384167E0,1.482054472E0,4.175716683E0
2.513784115E0,-2.691028118E0,-2.676671267E0,1.132403374E0,3.960876015E0
2.516170573E0,-2.645564556E0,-2.573779821E0,7.899305820E-1,3.774565500E0
2.518556980E0,-2.607279301E0,-2.465803623E0,4.740779996E-1,3.619784912E0
2.520943386E0,-2.578565598E0,-2.355733871E0,1.674975902E-1,3.496646687E0
2.523329792E0,-2.559422970E0,-2.245664120E0,-1.244267747E-1,3.407218117E0
2.525716198E0,-2.545065880E0,-2.140379906E0,-3.927220106E-1,3.348554472E0
2.528102605E0,-2.535494804E0,-2.037488461E0,-6.559324861E-1,3.318183322E0
2.530489011E0,-2.525923491E0,-1.927119493E0,-9.098708034E-1,3.304836441E0
2.532875417E0,-2.511267424E0,-1.819442511E0,-1.141974568E0,3.304684711E0
2.535261876E0,-2.496910334E0,-1.709372640E0,-1.359721422E0,3.317432498E0
2.537648282E0,-2.477767944E0,-1.608874083E0,-1.580160260E0,3.350330767E0
2.540034688E0,-2.463410854E0,-1.529910922E0,-1.793121457E0,3.409443507E0
2.542421094E0,-2.458625317E0,-1.474876046E0,-2.003988981E0,3.498009382E0
2.544807501E0,-2.458625317E0,-1.429412484E0,-2.200200319E0,3.595683515E0
2.547193907E0,-2.461018085E0,-1.383649707E0,-2.384447813E0,3.695495623E0
2.549580313E0,-2.468196630E0,-1.342971683E0,-2.549851656E0,3.794378871E0
2.551966719E0,-2.480160713E0,-1.297508121E0,-2.717349291E0,3.901116719E0
2.554353178E0,-2.487339020E0,-1.249651670E0,-2.870489836E0,3.998524302E0
2.556739584E0,-2.492124796E0,-1.201795220E0,-3.006880760E0,4.086114249E0
2.559125990E0,-2.480160713E0,-1.146760225E0,-3.133999348E0,4.157909101E0
2.561512396E0,-2.449054003E0,-1.089332461E0,-3.256033421E0,4.217376478E0
2.563898803E0,-2.403590441E0,-1.031904817E0,-3.363710403E0,4.261058816E0
2.566285209E0,-2.343769789E0,-9.744769931E-1,-3.459423304E0,4.290742573E0
2.568671615E0,-2.267199516E0,-9.170492887E-1,-3.567100286E0,4.324971387E0
2.571058073E0,-2.169093609E0,-8.644071817E-1,-3.658326626E0,4.339990848E0
2.573444480E0,-2.049452543E0,-8.210372925E-1,-3.737289906E0,4.340701994E0
2.575830886E0,-1.924726725E0,-7.827520967E-1,-3.816252947E0,4.345234213E0
2.578217292E0,-1.795514345E0,-7.540382147E-1,-3.880859137E0,4.342063223E0
2.580603698E0,-1.666301847E0,-7.348956466E-1,-3.931108475E0,4.332464344E0
2.582990105E0,-1.544267893E0,-7.229315639E-1,-3.971786499E0,4.322323607E0
2.585376511E0,-1.436590910E0,-7.181459069E-1,-4.000500202E0,4.310861730E0
2.587762917E0,-1.338186026E0,-7.277171612E-1,-4.007678986E0,4.287400723E0
2.590149376E0,-1.249651670E0,-7.588238716E-1,-4.007678986E0,4.266020841E0
2.592535782E0,-1.177866936E0,-8.018946648E-1,-3.976572037E0,4.224160359E0
2.594922188E0,-1.118046403E0,-8.353942037E-1,-3.904787540E0,4.146718820E0
2.597308594E0,-1.067797065E0,-8.476574421E-1,-3.785146236E0,4.023188504E0
2.599695001E0,-1.017547846E0,-8.452646136E-1,-3.619742393E0,3.853882572E0
2.602081407E0,-9.768698215E-1,-8.282157183E-1,-3.435495138E0,3.666448250E0
2.604467813E0,-9.385846853E-1,-8.018946648E-1,-3.236890793E0,3.464309205E0
2.606854219E0,-9.050851464E-1,-7.755736113E-1,-3.045166016E0,3.270126849E0
2.609240678E0,-8.859425783E-1,-7.468597889E-1,-2.880061150E0,3.104423622E0
2.611627084E0,-8.811569214E-1,-7.229315639E-1,-2.734098911E0,2.962155368E0
2.614013490E0,-8.859425783E-1,-6.966105103E-1,-2.597707987E0,2.831650974E0
2.616399896E0,-9.026923180E-1,-6.726822853E-1,-2.465803623E0,2.710635052E0
2.618786303E0,-9.314061999E-1,-6.439684033E-1,-2.348555326E0,2.607283056E0
2.621172709E0,-9.720842242E-1,-6.176473498E-1,-2.233700037E0,2.513135858E0
2.623559115E0,-1.019940615E0,-5.889334679E-1,-2.128415823E0,2.432545046E0
2.625945521E0,-1.070189953E0,-5.578267574E-1,-2.032702923E0,2.363970896E0
2.628331928E0,-1.118046403E0,-5.267201066E-1,-1.951047778E0,2.309556075E0
2.630718386E0,-1.156331539E0,-4.980062246E-1,-1.884048700E0,2.265999191E0
2.633104792E0,-1.180259824E0,-4.645066857E-1,-1.833799481E0,2.229708557E0
2.635491198E0,-1.189831018E0,-4.310071766E-1,-1.797907114E0,2.198621166E0
2.637877605E0,-1.182652593E0,-3.927220106E-1,-1.773978829E0,2.167924957E0
2.640264011E0,-1.168295622E0,-3.496512175E-1,-1.762014747E0,2.142864112E0
2.642650417E0,-1.149153113E0,-2.994019389E-1,-1.762014747E0,2.124827138E0
2.645036823E0,-1.132403374E0,-2.488535494E-1,-1.783550143E0,2.127279155E0
2.647423230E0,-1.113260746E0,-2.009970993E-1,-1.821835399E0,2.144489110E0
2.649809688E0,-1.098903775E0,-1.555334777E-1,-1.879263043E0,2.182523713E0
2.652196094E0,-1.082154036E0,-1.100698411E-1,-1.958226204E0,2.240049685E0
2.654582501E0,-1.070189953E0,-7.178468257E-2,-2.059023857E0,2.321645714E0
2.656968907E0,-1.060618639E0,-3.828516230E-2,-2.152343988E0,2.399783802E0
2.659355313E0,-1.051047325E0,-1.435693540E-2,-2.245664120E0,2.479498728E0
2.661741719E0,-1.046261668E0,-2.392822644E-3,-2.331805706E0,2.555775236E0
2.664128126E0,-1.048654556E0,0.000000000E0,-2.413161755E0,2.631164387E0
2.666514532E0,-1.058225870E0,-1.674975827E-2,-2.484946251E0,2.700940654E0
2.668900990E0,-1.079761267E0,-3.828516230E-2,-2.528316259E0,2.749496909E0
2.671287396E0,-1.110867858E0,-6.939185411E-2,-2.552244425E0,2.784383995E0
2.673673803E0,-1.149153113E0,-1.052841991E-1,-2.545065880E0,2.794458440E0
2.676060209E0,-1.192223907E0,-1.435693651E-1,-2.540280342E0,2.809810353E0
2.678446615E0,-1.240080357E0,-1.842473447E-1,-2.518445730E0,2.813239284E0
2.680833021E0,-1.292722464E0,-2.249253243E-1,-2.489732027E0,2.814336216E0
2.683219428E0,-1.354935765E0,-2.608176768E-1,-2.470589399E0,2.829785993E0
2.685605834E0,-1.417448282E0,-2.946162820E-1,-2.429911375E0,2.828502727E0
2.687992240E0,-1.489233017E0,-3.233301640E-1,-2.398804665E0,2.841939688E0
2.690378698E0,-1.568196177E0,-3.496512175E-1,-2.360519648E0,2.855441863E0
2.692765105E0,-1.647159338E0,-3.711866140E-1,-2.331805706E0,2.878928835E0
2.695151511E0,-1.721336842E0,-3.975076675E-1,-2.305484533E0,2.904526089E0
2.697537917E0,-1.788335800E0,-4.262215197E-1,-2.269592285E0,2.920763403E0
2.699924323E0,-1.848156333E0,-4.573282301E-1,-2.233700037E0,2.935003713E0
2.702310730E0,-1.893620014E0,-4.956133962E-1,-2.185843468E0,2.934167865E0
2.704697136E0,-1.931905150E0,-5.386841893E-1,-2.152343988E0,2.941942013E0
2.707083594E0,-1.960619092E0,-5.817549825E-1,-2.106880426E0,2.936223972E0
2.709470001E0,-1.982453585E0,-6.272186637E-1,-2.066202402E0,2.931333798E0
2.711856407E0,-1.992024899E0,-6.655037999E-1,-2.023131609E0,2.916182438E0
2.714242813E0,-2.001596212E0,-7.037889361E-1,-1.977667928E0,2.900495940E0
2.716629219E0,-2.003988981E0,-7.348956466E-1,-1.939083695E0,2.883762998E0
2.719015626E0,-1.992024899E0,-7.636095285E-1,-1.896012783E0,2.854142110E0
2.721402032E0,-1.963011861E0,-7.875377536E-1,-1.860120535E0,2.816678839E0
2.723788438E0,-1.927119493E0,-8.090731502E-1,-1.819442511E0,2.771057552E0
2.726174844E0,-1.879263043E0,-8.282157183E-1,-1.790728688E0,2.724753218E0
2.728561303E0,-1.826620936E0,-8.476574421E-1,-1.752443433E0,2.669480318E0
2.730947709E0,-1.769193292E0,-8.644071817E-1,-1.704586983E0,2.604392724E0
2.733334115E0,-1.716551185E0,-8.811569214E-1,-1.644766450E0,2.535397832E0
2.735720521E0,-1.675873160E0,-8.955138922E-1,-1.572981834E0,2.466732217E0
2.738106928E0,-1.647159338E0,-9.074779749E-1,-1.472483277E0,2.388484281E0
2.740493334E0,-1.632802367E0,-9.194421172E-1,-1.352542996E0,2.311014914E0
2.742879740E0,-1.637588024E0,-9.290133715E-1,-1.213759303E0,2.240083040E0
2.745266146E0,-1.659123421E0,-9.337990284E-1,-1.063011408E0,2.180519297E0
2.747652605E0,-1.702194214E0,-9.361918569E-1,-8.955138922E-1,2.139127267E0
2.750039011E0,-1.766800404E0,-9.337990284E-1,-7.205387354E-1,2.124321153E0
2.752425417E0,-1.850549221E0,-9.361918569E-1,-5.434698462E-1,2.143909300E0
2.754811823E0,-1.941476464E0,-9.361918569E-1,-3.592225015E-1,2.185137721E0
2.757198230E0,-2.047059774E0,-9.337990284E-1,-1.818545163E-1,2.257322620E0
2.759584636E0,-2.164308071E0,-9.290133715E-1,7.178467698E-3,2.355280621E0
2.761971042E0,-2.288734913E0,-9.218349457E-1,1.866401732E-1,2.474453823E0
2.764357448E0,-2.415554523E0,-9.098708034E-1,3.664009571E-1,2.607109165E0
2.766743855E0,-2.542673111E0,-8.859425783E-1,5.315057039E-1,2.744554447E0
2.769130313E0,-2.669492722E0,-8.500502706E-1,6.966105103E-1,2.886874271E0
2.771516719E0,-2.791526794E0,-8.090731502E-1,8.476574421E-1,3.027498034E0
2.773903126E0,-2.903989315E0,-7.612167001E-1,9.960124493E-1,3.163012110E0
2.776289532E0,-3.002095222E0,-7.061817646E-1,1.132403374E0,3.285362356E0
2.778675938E0,-3.090928555E0,-6.511468887E-1,1.268794179E0,3.404066725E0
2.781062344E0,-3.174677372E0,-5.889334679E-1,1.398006678E0,3.518499924E0
2.783448751E0,-3.258426189E0,-5.267201066E-1,1.527518153E0,3.637043719E0
2.785835157E0,-3.342175007E0,-4.716851711E-1,1.651944876E0,3.757864094E0
2.788221615E0,-3.425923824E0,-4.214358926E-1,1.778764486E0,3.883112844E0
2.790608021E0,-3.504886866E0,-3.855435550E-1,1.903191328E0,4.006870725E0
2.792994428E0,-3.576671600E0,-3.687937856E-1,2.030309916E0,4.129255011E0
2.795380834E0,-3.648755312E0,-3.664009571E-1,2.164308071E0,4.258156222E0
2.797767240E0,-3.730111361E0,-3.664009571E-1,2.322234392E0,4.409166928E0
2.800153646E0,-3.830610037E0,-3.592225015E-1,2.511267424E0,4.594461680E0
2.802540053E0,-3.962215185E0,-3.520440459E-1,2.719742060E0,4.818721932E0
2.804926459E0,-4.117748737E0,-3.448655605E-1,2.937488794E0,5.069874489E0
2.807312917E0,-4.304687977E0,-3.376871049E-1,3.160320520E0,5.350887492E0
2.809699323E0,-4.524827480E0,-3.257229924E-1,3.385245800E0,5.660392948E0
2.812085730E0,-4.773980141E0,-3.113660514E-1,3.593421459E0,5.983352989E0
2.814472136E0,-5.039583683E0,-2.922234535E-1,3.799503326E0,6.318150344E0
2.816858542E0,-5.312365532E0,-2.560320199E-1,4.000500202E0,6.655131990E0
2.819244948E0,-5.578267574E0,-2.057827413E-1,4.216153622E0,6.995381836E0
2.821631355E0,-5.831906796E0,-1.435693651E-1,4.445864677E0,7.334675301E0
2.824017761E0,-6.057131290E0,-7.178468257E-2,4.711467743E0,7.674107166E0
2.826404167E0,-6.241378784E0,2.392822644E-3,4.994120121E0,7.993500525E0
2.828790573E0,-6.363412857E0,6.699903309E-2,5.300401211E0,8.282014553E0
2.831177032E0,-6.420840263E0,1.220339537E-1,5.616552830E0,8.531573575E0
2.833563438E0,-6.399304867E0,1.603191197E-1,5.939883232E0,8.732640941E0
2.835949844E0,-6.305984974E0,1.818545163E-1,6.277271271E0,8.899587191E0
2.838336251E0,-6.150451660E0,1.866401732E-1,6.641279221E0,9.053699789E0
2.840722657E0,-5.954239845E0,1.818545163E-1,7.048357964E0,9.228509803E0
2.843109063E0,-5.733801365E0,1.746760458E-1,7.519744396E0,9.457988454E0
2.845495469E0,-5.506483078E0,1.818545163E-1,8.063214302E0,9.765748913E0
2.847881876E0,-5.290830135E0,2.081755698E-1,8.688039780E0,1.017439216E1
2.850268334E0,-5.097011566E0,2.608176768E-1,9.399306297E0,1.069553700E1
2.852654740E0,-4.941477776E0,3.424727321E-1,1.018923664E1,1.132943218E1
2.855041146E0,-4.838586330E0,4.525425732E-1,1.104168034E1,1.206380608E1
2.857427553E0,-4.785944462E0,5.865406394E-1,1.194168091E1,1.287839420E1
2.859813959E0,-4.783551693E0,7.348956466E-1,1.287787247E1,1.375725400E1
2.862200365E0,-4.824229717E0,9.002995491E-1,1.383320713E1,1.467792053E1
2.864586771E0,-4.905585289E0,1.079761267E0,1.480738449E1,1.563615320E1
2.866973178E0,-5.030012131E0,1.275972724E0,1.580818272E1,1.663814200E1
2.869359584E0,-5.190331459E0,1.486840129E0,1.685683823E1,1.770037370E1
2.871746042E0,-5.365306377E0,1.706979871E0,1.796052742E1,1.882234943E1
2.874132448E0,-5.520840168E0,1.929512382E0,1.915992928E1,2.003261301E1
2.876518855E0,-5.621338367E0,2.147558212E0,2.046940041E1,2.133559946E1
2.878905261E0,-5.623731613E0,2.343769789E0,2.193949127E1,2.276973630E1
2.881291667E0,-5.484947681E0,2.518445730E0,2.357468605E1,2.433501679E1
2.883678073E0,-5.183153152E0,2.659921408E0,2.534627342E1,2.600718814E1
2.886064480E0,-4.728217602E0,2.767598391E0,2.720400047E1,2.775019431E1
2.888450886E0,-4.134498596E0,2.841775894E0,2.911466980E1,2.954376019E1
2.890837292E0,-3.423531055E0,2.872882605E0,3.104896736E1,3.136897183E1
2.893223751E0,-2.635993242E0,2.848954439E0,3.300749207E1,3.323491439E1
2.895610157E0,-1.797907114E0,2.769991398E0,3.498246765E1,3.513799034E1
2.897996563E0,-9.361918569E-1,2.631207705E0,3.698645782E1,3.709174803E1
2.900382969E0,-7.657032460E-2,2.441875458E0,3.900480270E1,3.908123914E1
2.902769376E0,7.803592682E-1,2.212164640E0,4.105156326E1,4.111852963E1
2.905155782E0,1.630409479E0,1.963011861E0,4.311776733E1,4.319321139E1
2.907542188E0,2.472982168E0,1.733300924E0,4.515734863E1,4.525821592E1
2.909928594E0,3.308675528E0,1.546660781E0,4.713740921E1,4.727869330E1
2.912315053E0,4.122534275E0,1.429412484E0,4.901427841E1,4.920810906E1
2.914701459E0,4.905585289E0,1.402792215E0,5.072604370E1,5.098199783E1
2.917087865E0,5.592624664E0,1.460519075E0,5.220570755E1,5.252472244E1
2.919474271E0,6.294020653E0,1.616052628E0,5.346732330E1,5.386075550E1
2.921860678E0,6.961917400E0,1.855334878E0,5.447051239E1,5.494494773E1
2.924247084E0,7.555636406E0,2.176272154E0,5.519583893E1,5.575306662E1
2.926633490E0,8.048856735E0,2.571387053E0,5.564120102E1,5.627912026E1
2.929019896E0,8.434400558E0,3.028416157E0,5.581348419E1,5.652835956E1
2.931406355E0,8.709874153E0,3.535993576E0,5.572495270E1,5.651225983E1
2.933792761E0,8.882157326E0,4.077070713E0,5.538995743E1,5.624555634E1
2.936179167E0,8.949156761E0,4.644468784E0,5.480580902E1,5.572553454E1
2.938565573E0,8.927620888E0,5.223830700E0,5.399404144E1,5.497587956E1
2.940951980E0,8.848658562E0,5.798407555E0,5.298367310E1,5.402952807E1
2.943338386E0,8.726624489E0,6.361020088E0,5.177470016E1,5.288890364E1
2.945724792E0,8.585148811E0,6.904489517E0,5.040301514E1,5.159302948E1
2.948111198E0,8.453543663E0,7.426424026E0,4.888745880E1,5.016570345E1
2.950497605E0,8.345866203E0,7.917252064E0,4.726422882E1,4.864405091E1
2.952884011E0,8.269295692E0,8.369794846E0,4.554050064E1,4.703585776E1
2.955270469E0,8.226224899E0,8.788837433E0,4.378327179E1,4.540803154E1
2.957656876E0,8.216653824E0,9.171689034E0,4.200689697E1,4.377456651E1
2.960043282E0,8.235795975E0,9.518947601E0,4.024488449E1,4.216739767E1
2.962429688E0,8.269295692E0,9.839884758E0,3.852833176E1,4.061572271E1
2.964816094E0,8.307580948E0,1.013898754E1,3.686920929E1,3.912995736E1
2.967202501E0,8.331509590E0,1.042164040E1,3.527708435E1,3.771600881E1
2.969588907E0,8.329116821E0,1.069202900E1,3.376871109E1,3.638707902E1
2.971975313E0,8.283653259E0,1.094836044E1,3.233720398E1,3.513090191E1
2.974361719E0,8.190332413E0,1.119482040E1,3.097239685E1,3.393663088E1
2.976748178E0,8.041678429E0,1.143410301E1,2.967488861E1,3.280253523E1
2.979134584E0,7.838288784E0,1.166889858E1,2.843241501E1,3.171756908E1
2.981520990E0,7.589435101E0,1.189382362E1,2.724019241E1,3.067720079E1
2.983907396E0,7.304390430E0,1.210229874E1,2.610300255E1,2.968478560E1
2.986293803E0,7.004988194E0,1.227936745E1,2.503999138E1,2.875506725E1
2.988680209E0,6.705885410E0,1.241575813E1,2.405594254E1,2.788921513E1
2.991066615E0,6.420840263E0,1.249711418E1,2.317957115E1,2.710530522E1
2.993453021E0,6.145665646E0,1.252343559E1,2.241357040E1,2.640026105E1
2.995839428E0,5.877370834E0,1.248754311E1,2.176720810E1,2.577389317E1
2.998225886E0,5.623731613E0,1.239661598E1,2.123091698E1,2.522011659E1
3.000612292E0,5.391627789E0,1.224347496E1,2.080948067E1,2.473877149E1
3.002998698E0,5.178367138E0,1.203739357E1,2.050080681E1,2.433099690E1
3.005385105E0,4.982155800E0,1.177896881E1,2.032822418E1,2.401671670E1
3.007771511E0,4.793122768E0,1.147238827E1,2.028754616E1,2.379441631E1
3.010157917E0,4.599005222E0,1.111346436E1,2.038086700E1,2.366515749E1
3.012544323E0,4.388436794E0,1.069920731E1,2.057737732E1,2.360423419E1
3.014930730E0,4.144069672E0,1.023470020E1,2.087648010E1,2.361672761E1
3.017317136E0,3.847359657E0,9.722337723E0,2.124048805E1,2.367455089E1
3.019703542E0,3.504886866E0,9.162117958E0,2.164038849E1,2.375994637E1
3.022090001E0,3.119642496E0,8.568398476E0,2.203520393E1,2.384742825E1
3.024476407E0,2.700599432E0,7.943572998E0,2.240160561E1,2.392123582E1
3.026862813E0,2.262413740E0,7.301997185E0,2.270788765E1,2.396008849E1
3.029249219E0,1.814656854E0,6.653243542E0,2.292593193E1,2.394069723E1
3.031635626E0,1.369292736E0,6.002096653E0,2.304318047E1,2.385137926E1
3.034022032E0,9.433703423E-1,5.365306377E0,2.305514526E1,2.369000176E1
3.036408438E0,5.458626747E-1,4.754538536E0,2.294986153E1,2.344354382E1
3.038794844E0,1.794617027E-1,4.170390606E0,2.273929214E1,2.311925110E1
3.041181303E0,-1.507478207E-1,3.614956856E0,2.242553329E1,2.271552732E1
3.043567709E0,-4.429712892E-1,3.093321562E0,2.202802658E1,2.224856887E1
3.045954115E0,-7.037889361E-1,2.607279301E0,2.155155563E1,2.172010070E1
3.048340521E0,-9.433703423E-1,2.154736757E0,2.101526451E1,2.114649334E1
3.050726928E0,-1.161117196E0,1.733300924E0,2.043350983E1,2.053973829E1
3.053113334E0,-1.371685624E0,1.345364571E0,1.981586075E1,1.990878862E1
3.055499740E0,-1.572981834E0,9.936196208E-1,1.917907143E1,1.926910306E1
3.057886146E0,-1.769193292E0,6.774678826E-1,1.851835442E1,1.861500626E1
3.060272553E0,-1.963011861E0,3.831507266E-1,1.786002731E1,1.797166647E1
3.062659011E0,-2.152343988E0,1.244267747E-1,1.719213104E1,1.732678379E1
3.065045417E0,-2.334198475E0,-1.052841991E-1,1.652393532E1,1.668831944E1
3.067431823E0,-2.499303341E0,-3.089732230E-1,1.585843182E1,1.605714300E1
3.069818230E0,-2.643171787E0,-4.884349108E-1,1.518814278E1,1.542415660E1
3.072204636E0,-2.762812853E0,-6.487540603E-1,1.450828171E1,1.478324236E1
3.074591042E0,-2.858525753E0,-7.899305820E-1,1.383559990E1,1.414987577E1
3.076977448E0,-2.937488794E0,-9.194421172E-1,1.315543938E1,1.351072905E1
3.079363855E0,-3.011666298E0,-1.034297585E0,1.247079372E1,1.287092077E1
3.081750261E0,-3.083451033E0,-1.127617717E0,1.178136158E1,1.223027688E1
3.084136667E0,-3.148356438E0,-1.189831018E0,1.109910774E1,1.159819119E1
3.086523126E0,-3.212962627E0,-1.237687469E0,1.041685390E1,1.097113688E1
3.088909532E0,-3.277568817E0,-1.275972724E0,9.734301567E0,1.035022660E1
3.091295938E0,-3.339782238E0,-1.302293777E0,9.056833267E0,9.740448825E0
3.093682344E0,-3.397209883E0,-1.323829174E0,8.379365921E0,9.138234617E0
3.096068751E0,-3.449851990E0,-1.335793257E0,7.723433495E0,8.563716910E0
3.098455157E0,-3.502494097E0,-1.340578914E0,7.074679375E0,8.007228296E0
3.100841563E0,-3.557528973E0,-1.342971683E0,6.466603279E0,7.501769345E0
3.103227969E0,-3.614956856E0,-1.333400369E0,5.874977589E0,7.025754855E0
3.105614376E0,-3.677469254E0,-1.314257860E0,5.314758301E0,6.595279344E0
3.108000834E0,-3.742075443E0,-1.287936807E0,4.778766155E0,6.204717222E0
3.110387240E0,-3.813860178E0,-1.247258782E0,4.273581028E0,5.862139433E0
3.112773646E0,-3.885644913E0,-1.201795220E0,3.794717550E0,5.562591970E0
3.115160053E0,-3.962215185E0,-1.149153113E0,3.339782238E0,5.307904243E0
3.117546459E0,-4.024428368E0,-1.089332461E0,2.913560629E0,5.086403881E0
3.119932865E0,-4.072285175E0,-1.022333503E0,2.511267424E0,4.892354894E0
3.122319271E0,-4.100998878E0,-9.505487680E-1,2.126022816E0,4.716111510E0
3.124705678E0,-4.112963200E0,-8.715856671E-1,1.773978829E0,4.563236652E0
3.127092084E0,-4.110570431E0,-7.875377536E-1,1.438983679E0,4.425796991E0
3.129478490E0,-4.100998878E0,-7.013961077E-1,1.134796143E0,4.312529488E0
3.131864948E0,-4.081856251E0,-6.176473498E-1,8.524430394E-1,4.215411941E0
3.134251355E0,-4.053142548E0,-5.410770178E-1,5.937191248E-1,4.131976676E0
3.136637761E0,-4.005286217E0,-4.740779996E-1,3.472583890E-1,4.048166995E0
3.139024167E0,-3.931108475E0,-4.238287210E-1,1.100698411E-1,3.955421595E0
3.141410573E0,-3.830610037E0,-3.879363835E-1,-1.052841991E-1,3.851642851E0
3.143796980E0,-3.710968733E0,-3.687937856E-1,-3.089732230E-1,3.742026489E0
3.146183386E0,-3.581457376E0,-3.616153300E-1,-4.908277392E-1,3.632975978E0
3.148569792E0,-3.445066452E0,-3.664009571E-1,-6.678966284E-1,3.528288314E0
3.150956198E0,-3.313461065E0,-3.807578981E-1,-8.282157183E-1,3.436559629E0
3.153342657E0,-3.186641455E0,-4.046861231E-1,-9.888339639E-1,3.360989025E0
3.155729063E0,-3.059522867E0,-4.334000051E-1,-1.130010486E0,3.290203556E0
3.158115469E0,-2.947060108E0,-4.621138871E-1,-1.266401410E0,3.240753779E0
3.160501876E0,-2.851347208E0,-4.932205677E-1,-1.388435364E0,3.209548284E0
3.162888282E0,-2.769991398E0,-5.171487927E-1,-1.501197100E0,3.192786863E0
3.165274688E0,-2.710170746E0,-5.338985324E-1,-1.596910000E0,3.190641732E0
3.167661094E0,-2.669492722E0,-5.434698462E-1,-1.680658817E0,3.200963124E0
3.170047501E0,-2.645564556E0,-5.458626747E-1,-1.754836321E0,3.221246404E0
3.172433907E0,-2.633600473E0,-5.458626747E-1,-1.814656854E0,3.244502583E0
3.174820313E0,-2.628814697E0,-5.506483316E-1,-1.855334878E0,3.264375562E0
3.177206771E0,-2.628814697E0,-5.697908998E-1,-1.879263043E0,3.281304309E0
3.179593178E0,-2.635993242E0,-6.032904387E-1,-1.874477386E0,3.290301688E0
3.181979584E0,-2.650350094E0,-6.559324861E-1,-1.850549221E0,3.298353448E0
3.184365990E0,-2.676671267E0,-7.277171612E-1,-1.795514345E0,3.304241683E0
3.186752396E0,-2.722134829E0,-8.114659786E-1,-1.711765528E0,3.316419196E0
3.189138803E0,-2.774776936E0,-9.002995491E-1,-1.601695657E0,3.327965639E0
3.191525209E0,-2.825026274E0,-9.888339639E-1,-1.460519075E0,3.330417695E0
3.193911615E0,-2.865704298E0,-1.074975610E0,-1.299900889E0,3.325293372E0
3.196298021E0,-2.884846687E0,-1.156331539E0,-1.113260746E0,3.301331932E0
3.198684428E0,-2.877668381E0,-1.228116274E0,-9.290133715E-1,3.263787790E0
3.201070886E0,-2.844168901E0,-1.302293777E0,-7.396813035E-1,3.214404183E0
3.203457292E0,-2.784348249E0,-1.374078393E0,-5.721837282E-1,3.157226761E0
3.205843698E0,-2.698206663E0,-1.446162224E0,-4.166502357E-1,3.089547183E0
3.208230105E0,-2.590529680E0,-1.513161182E0,-2.898306549E-1,3.014050862E0
3.210616511E0,-2.470589399E0,-1.577767372E0,-2.009970993E-1,2.938292309E0
3.213002917E0,-2.331805706E0,-1.639980793E0,-1.579262912E-1,2.855134947E0
3.215389323E0,-2.185843468E0,-1.699801445E0,-1.483550072E-1,2.772948940E0
3.217775730E0,-2.027917147E0,-1.757229090E0,-1.842473447E-1,2.689655947E0
3.220162136E0,-1.860120535E0,-1.812264085E0,-2.608176768E-1,2.610052754E0
3.222548594E0,-1.692622900E0,-1.860120535E0,-3.759722710E-1,2.542906965E0
3.224935001E0,-1.527518153E0,-1.903191328E0,-5.219344497E-1,2.495568975E0
3.227321407E0,-1.359721422E0,-1.943869352E0,-7.013961077E-1,2.473747543E0
3.229707813E0,-1.204187989E0,-1.980060697E0,-8.955138922E-1,2.484482684E0
3.232094219E0,-1.065404296E0,-2.008774519E0,-1.103689432E0,2.527526804E0
3.234480626E0,-9.553344250E-1,-2.025524378E0,-1.309472203E0,2.594249471E0
3.236867032E0,-8.787640929E-1,-2.025524378E0,-1.505982757E0,2.672631550E0
3.239253438E0,-8.377870321E-1,-2.011167526E0,-1.695015788E0,2.760391358E0
3.241639844E0,-8.330013752E-1,-1.984846354E0,-1.872084618E0,2.852754310E0
3.244026251E0,-8.644071817E-1,-1.943869352E0,-2.030309916E0,2.940745856E0
3.246412657E0,-9.314061999E-1,-1.891227245E0,-2.176272154E0,3.029920542E0
3.248799115E0,-1.024726272E0,-1.838585138E0,-2.300698996E0,3.118280794E0
3.251185521E0,-1.132403374E0,-1.781157374E0,-2.403590441E0,3.198766325E0
3.253571928E0,-1.252044439E0,-1.718943954E0,-2.482553482E0,3.268861481E0
3.255958334E0,-1.376471281E0,-1.663909078E0,-2.545065880E0,3.337757771E0
3.258344740E0,-1.501197100E0,-1.613659739E0,-2.585743904E0,3.397581791E0
3.260731146E0,-1.620838284E0,-1.570588946E0,-2.616850615E0,3.455687127E0
3.263117553E0,-1.738086581E0,-1.534696579E0,-2.645564556E0,3.517847406E0
3.265503959E0,-1.855334878E0,-1.508375525E0,-2.671885490E0,3.585587303E0
3.267890365E0,-1.968096614E0,-1.489233017E0,-2.686242580E0,3.647892331E0
3.270276771E0,-2.073380709E0,-1.477268934E0,-2.702992201E0,3.713138552E0
3.272663178E0,-2.164308071E0,-1.474876046E0,-2.724527597E0,3.779224710E0
3.275049636E0,-2.238485575E0,-1.479661703E0,-2.750848770E0,3.842835591E0
3.277436042E0,-2.288734913E0,-1.491625786E0,-2.793919563E0,3.907587685E0
3.279822448E0,-2.310270309E0,-1.505982757E0,-2.853740215E0,3.968521914E0
3.282208855E0,-2.300698996E0,-1.527518153E0,-2.925524712E0,4.023086180E0
3.284595261E0,-2.262413740E0,-1.549053550E0,-2.999702215E0,4.064024632E0
3.286981667E0,-2.212164640E0,-1.570588946E0,-3.071486950E0,4.098103722E0
3.289368073E0,-2.147558212E0,-1.599302888E0,-3.145963669E0,4.131206048E0
3.291754480E0,-2.070987940E0,-1.628016710E0,-3.222533941E0,4.162229506E0
3.294140886E0,-1.994417667E0,-1.663909078E0,-3.289532900E0,4.191338921E0
3.296527344E0,-1.919941068E0,-1.702194214E0,-3.346960783E0,4.217319685E0
3.298913751E0,-1.850549221E0,-1.740479350E0,-3.399602890E0,4.243948703E0
3.301300157E0,-1.785943031E0,-1.778764486E0,-3.430709362E0,4.257154253E0
3.303686563E0,-1.728515267E0,-1.819442511E0,-3.445066452E0,4.262231685E0
3.306072969E0,-1.678265929E0,-1.857727647E0,-3.447459221E0,4.260598974E0
3.308459376E0,-1.637588024E0,-1.891227245E0,-3.430709362E0,4.245962995E0
3.310845782E0,-1.606481314E0,-1.924726725E0,-3.406781197E0,4.229836084E0
3.313232188E0,-1.587338686E0,-1.953440547E0,-3.375674486E0,4.210789987E0
3.315618594E0,-1.580160260E0,-1.968096614E0,-3.334996462E0,4.182405065E0
3.318005001E0,-1.580160260E0,-1.970489502E0,-3.279961586E0,4.139792668E0
3.320391407E0,-1.587338686E0,-1.960619092E0,-3.212962627E0,4.084948001E0
3.322777813E0,-1.594517231E0,-1.936690807E0,-3.141177893E0,4.019981970E0
3.325164271E0,-1.604088426E0,-1.898405671E0,-3.066701412E0,3.947366378E0
3.327550678E0,-1.616052628E0,-1.855334878E0,-2.994916677E0,3.876005613E0
3.329937084E0,-1.623231053E0,-1.807478428E0,-2.915953398E0,3.795344719E0
3.332323490E0,-1.625623941E0,-1.754836321E0,-2.846561670E0,3.718200782E0
3.334709896E0,-1.630409479E0,-1.699801445E0,-2.786741018E0,3.648764931E0
3.337096303E0,-1.639980793E0,-1.647159338E0,-2.743670225E0,3.595886148E0
3.339482709E0,-1.654337764E0,-1.594517231E0,-2.688635349E0,3.536676219E0
3.341869115E0,-1.663909078E0,-1.522732496E0,-2.614457846E0,3.452925933E0
3.344255521E0,-1.666301847E0,-1.431805253E0,-2.506481647E0,3.333028409E0
3.346641928E0,-1.659123421E0,-1.328614831E0,-2.391626120E0,3.199653636E0
3.349028386E0,-1.649552107E0,-1.225723386E0,-2.281556368E0,3.070654561E0
3.351414792E0,-1.642373681E0,-1.122832060E0,-2.200200319E0,2.966314985E0
3.353801198E0,-1.639980793E0,-1.034297585E0,-2.135594130E0,2.884453290E0
3.356187605E0,-1.642373681E0,-9.625129104E-1,-2.104487419E0,2.837726151E0
3.358574011E0,-1.642373681E0,-9.026923180E-1,-2.080559254E0,2.800173483E0
3.360960417E0,-1.642373681E0,-8.572286963E-1,-2.068595171E0,2.776926057E0
3.363346823E0,-1.647159338E0,-8.258228898E-1,-2.051845312E0,2.757750263E0
3.365733230E0,-1.654337764E0,-8.042874932E-1,-2.035095692E0,2.743232816E0
3.368119636E0,-1.659123421E0,-7.851449251E-1,-2.008774519E0,2.721087677E0
3.370506042E0,-1.654337764E0,-7.588238716E-1,-1.980060697E0,2.689477174E0
3.372892501E0,-1.642373681E0,-7.277171612E-1,-1.943869352E0,2.646807820E0
3.375278907E0,-1.625623941E0,-6.942176819E-1,-1.912762642E0,2.604467760E0
3.377665313E0,-1.601695657E0,-6.631109715E-1,-1.881655931E0,2.558471063E0
3.380051719E0,-1.570588946E0,-6.320042610E-1,-1.860120535E0,2.515199282E0
3.382438126E0,-1.537089467E0,-6.080760360E-1,-1.838585138E0,2.472406885E0
3.384824532E0,-1.510768414E0,-5.913262963E-1,-1.829013824E0,2.444868004E0
3.387210938E0,-1.494018674E0,-5.745765567E-1,-1.819442511E0,2.423345016E0
3.389597344E0,-1.498804331E0,-5.626124144E-1,-1.817049742E0,2.421697115E0
3.391983751E0,-1.525125384E0,-5.530411601E-1,-1.807478428E0,2.428752814E0
3.394370157E0,-1.577767372E0,-5.362913609E-1,-1.800299883E0,2.453168965E0
3.396756563E0,-1.661516190E0,-5.075774789E-1,-1.793121457E0,2.496708935E0
3.399142969E0,-1.766800404E0,-4.621138871E-1,-1.788335800E0,2.556027747E0
3.401529428E0,-1.891227245E0,-3.999004960E-1,-1.781157374E0,2.628532384E0
3.403915834E0,-2.027917147E0,-3.209373355E-1,-1.785943031E0,2.721220542E0
3.406302240E0,-2.166700840E0,-2.416750938E-1,-1.788335800E0,2.819777352E0
3.408688646E0,-2.303091764E0,-1.579262912E-1,-1.797907114E0,2.926028431E0
3.411075053E0,-2.427518606E0,-7.657032460E-2,-1.797907114E0,3.021784173E0
3.413461459E0,-2.537887573E0,0.000000000E0,-1.797907114E0,3.110199885E0
3.415847865E0,-2.635993242E0,6.460621208E-2,-1.773978829E0,3.177992326E0
3.418234271E0,-2.717349291E0,1.172483116E-1,-1.730908036E0,3.223938114E0
3.420620678E0,-2.791526794E0,1.579262912E-1,-1.647159338E0,3.245103456E0
3.423007084E0,-2.851347208E0,1.794617027E-1,-1.537089467E0,3.244230484E0
3.425393542E0,-2.896811008E0,1.914258152E-1,-1.381256819E0,3.214969403E0
3.427779948E0,-2.937488794E0,1.938186288E-1,-1.197009563E0,3.177929825E0
3.430166355E0,-2.980559587E0,1.962114573E-1,-9.744769931E-1,3.141948408E0
3.432552761E0,-3.042773008E0,2.057827413E-1,-7.396813035E-1,3.138143169E0
3.434939167E0,-3.119642496E0,2.249253243E-1,-4.812564552E-1,3.164548701E0
3.437325573E0,-3.212962627E0,2.560320199E-1,-2.177468538E-1,3.230494534E0
3.439711980E0,-3.311068296E0,2.898306549E-1,6.460621208E-2,3.324356936E0
3.442098386E0,-3.413959742E0,3.185445070E-1,3.568296731E-1,3.447306069E0
3.444484792E0,-3.526422262E0,3.448655605E-1,6.822535396E-1,3.608331487E0
3.446871198E0,-3.658326626E0,3.711866140E-1,1.017547846E0,3.815302979E0
3.449257605E0,-3.818645954E0,4.046861231E-1,1.374078393E0,4.078470205E0
3.451644063E0,-4.024428368E0,4.525425732E-1,1.733300924E0,4.405127758E0
3.454030417E0,-4.275974274E0,5.147559643E-1,2.104487419E0,4.793516140E0
3.456416876E0,-4.567898273E0,6.104688644E-1,2.468196630E0,5.227844822E0
3.458803282E0,-4.891228676E0,7.301099896E-1,2.829811811E0,5.697807775E0
3.461189688E0,-5.223830700E0,8.715856671E-1,3.169891834E0,6.172218645E0
3.463576094E0,-5.556732178E0,1.029511929E0,3.502494097E0,6.648656421E0
3.465962501E0,-5.882156372E0,1.216152072E0,3.806681633E0,7.111231574E0
3.468348907E0,-6.200700760E0,1.434198022E0,4.096213341E0,7.568657583E0
3.470735313E0,-6.516852379E0,1.678265929E0,4.345366001E0,8.010502303E0
3.473121719E0,-6.839883327E0,1.953440547E0,4.572684288E0,8.456321630E0
3.475508126E0,-7.177570820E0,2.260020971E0,4.766502857E0,8.907567971E0
3.477894584E0,-7.524529934E0,2.578565598E0,4.960620403E0,9.374182954E0
3.480280990E0,-7.874181271E0,2.884846687E0,5.166403294E0,9.849710355E0
3.482667396E0,-8.204689980E0,3.153141975E0,5.413163185E0,1.032286674E1
3.485053803E0,-8.475078583E0,3.354139090E0,5.709873199E0,1.075545713E1
3.487440209E0,-8.656932831E0,3.466601849E0,6.090631008E0,1.113802498E1
3.489826615E0,-8.726624489E0,3.483351469E0,6.555137634E0,1.145676839E1
3.492213021E0,-8.664112091E0,3.397209883E0,7.139285564E0,1.172933381E1
3.494599428E0,-8.467900276E0,3.227319479E0,7.840681553E0,1.198320547E1
3.496985834E0,-8.168797493E0,2.990130901E0,8.705088615E0,1.230644965E1
3.499372240E0,-7.795217991E0,2.714956284E0,9.691230774E0,1.273013610E1
3.501758646E0,-7.371389389E0,2.410768747E0,1.079013443E1,1.328819734E1
3.504145105E0,-6.906882763E0,2.075773716E0,1.195603752E1,1.396283278E1
3.506531511E0,-6.392126560E0,1.711765528E0,1.320359516E1,1.476903343E1
3.508917917E0,-5.831906796E0,1.347757339E0,1.451785278E1,1.570336385E1
3.511304323E0,-5.214259624E0,1.012762189E0,1.591107464E1,1.677428052E1
3.513690730E0,-4.553541660E0,7.348956466E-1,1.737877083E1,1.798044740E1
3.516077136E0,-3.847359657E0,5.458626747E-1,1.893021774E1,1.932493949E1
3.518463542E0,-3.100499868E0,4.668995142E-1,2.055584145E1,2.079359786E1
3.520849948E0,-2.327019930E0,4.932205677E-1,2.229632187E1,2.242285123E1
3.523236355E0,-1.532303810E0,6.176473498E-1,2.414208412E1,2.419854684E1
3.525622761E0,-7.348956466E-1,8.234301209E-1,2.606202698E1,2.608538593E1
3.528009167E0,9.571290575E-3,1.074975610E0,2.806840706E1,2.808898608E1
3.530395626E0,7.444669604E-1,1.366899967E0,3.018725204E1,3.022735239E1
3.532782032E0,1.491625786E0,1.671087503E0,3.243291473E1,3.251017439E1
3.535168438E0,2.190629244E0,1.970489502E0,3.475993729E1,3.488459439E1
3.537554844E0,2.781955481E0,2.248056889E0,3.713241959E1,3.730428421E1
3.539941251E0,3.308675528E0,2.525923491E0,3.949293900E1,3.971170928E1
3.542327657E0,3.799503326E0,2.815454960E0,4.180081558E1,4.206746006E1
3.544714063E0,4.189533234E0,3.126821041E0,4.397230530E1,4.428196960E1
3.547100469E0,4.472185612E0,3.492922783E0,4.592125702E1,4.627053922E1
3.549486876E0,4.666004181E0,3.919144392E0,4.763302231E1,4.802120471E1
3.551873282E0,4.802694321E0,4.388436794E0,4.908606339E1,4.951530944E1
3.554259688E0,4.919942379E0,4.879264355E0,5.032405090E1,5.079884992E1
3.556646094E0,5.056333542E0,5.355735302E0,5.138467026E1,5.190987138E1
3.559032553E0,5.228616714E0,5.781657696E0,5.231816864E1,5.289571597E1
3.561418959E0,5.547161102E0,6.138487339E0,5.322564697E1,5.386484492E1
3.563805365E0,5.973382473E0,6.394519329E0,5.408257675E1,5.478591319E1
3.566191771E0,6.495316982E0,6.535995007E0,5.490869904E1,5.567650854E1
3.568578178E0,7.089035988E0,6.574280262E0,5.566513062E1,5.649851643E1
3.570964584E0,7.725826263E0,6.519245148E0,5.632584763E1,5.722578142E1
3.573350990E0,8.372187614E0,6.399304867E0,5.686453247E1,5.783268696E1
3.575737396E0,8.997013092E0,6.241378784E0,5.722854233E1,5.826668955E1
3.578123803E0,9.578767776E0,6.073881149E0,5.743193054E1,5.854119464E1
3.580510209E0,1.011027431E1,5.925526142E0,5.744389343E1,5.862704495E1
3.582896615E0,1.058195877E1,5.822335720E0,5.725486374E1,5.851492858E1
3.585283073E0,1.098185921E1,5.769693375E0,5.684060287E1,5.817855901E1
3.587669480E0,1.130249786E1,5.788836002E0,5.615596008E1,5.757385633E1
3.590055886E0,1.153490067E1,5.879763603E0,5.521976471E1,5.671726340E1
3.592442292E0,1.166650581E1,6.047560215E0,5.402993393E1,5.560498272E1
3.594828698E0,1.169043446E1,6.286842346E0,5.264628601E1,5.429384933E1
3.597215105E0,1.159711361E1,6.607779503E0,5.110680389E1,5.282102989E1
3.599601511E0,1.139342499E1,7.002595425E0,4.943093109E1,5.120804062E1
3.601987917E0,1.108235836E1,7.457530975E0,4.768566513E1,4.952126911E1
3.604374323E0,1.067288589E1,7.962715626E0,4.586861420E1,4.776238166E1
3.606760730E0,1.018205833E1,8.501399994E0,4.400101852E1,4.595691183E1
3.609147136E0,9.638588905E0,9.054440498E0,4.210021973E1,4.412837851E1
3.611533594E0,9.064012527E0,9.609874725E0,4.017070770E1,4.228701660E1
3.613920001E0,8.494221687E0,1.014377308E1,3.825286102E1,4.047628084E1
3.616306407E0,7.945965767E0,1.063938713E1,3.634727478E1,3.869701945E1
3.618692813E0,7.428816795E0,1.108475113E1,3.449403381E1,3.698509694E1
3.621079219E0,6.952346325E0,1.147478104E1,3.270809174E1,3.535286388E1
3.623465626E0,6.516852379E0,1.179093266E1,3.099153900E1,3.379306064E1
3.625852032E0,6.112166405E0,1.204217911E1,2.938266563E1,3.233749674E1
3.628238438E0,5.733801365E0,1.222672558E1,2.786501884E1,3.096495716E1
3.630624844E0,5.350949764E0,1.233440208E1,2.646910477E1,2.968810613E1
3.633011251E0,4.984548569E0,1.237747288E1,2.518595314E1,2.850227701E1
3.635397657E0,4.620540619E0,1.235593796E1,2.403680038E1,2.741872300E1
3.637784063E0,4.259224415E0,1.226261806E1,2.301686096E1,2.642515247E1
3.640170469E0,3.895216227E0,1.210229874E1,2.212613106E1,2.551869941E1
3.642556928E0,3.526422262E0,1.187946701E1,2.134337997E1,2.467989585E1
3.644943334E0,3.165106058E0,1.160190010E1,2.065155411E1,2.389788002E1
3.647329740E0,2.820240498E0,1.127617645E1,2.003630066E1,2.316374875E1
3.649716146E0,2.487339020E0,1.091695404E1,1.947607994E1,2.246518263E1
3.652102553E0,2.178664923E0,1.052692413E1,1.895893288E1,2.179458301E1
3.654488959E0,1.888834357E0,1.011505985E1,1.847049713E1,2.114335346E1
3.656875365E0,1.616052628E0,9.688838005E0,1.800120544E1,2.050679413E1
3.659261771E0,1.362114310E0,9.243474007E0,1.756780434E1,1.989786210E1
3.661648178E0,1.132403374E0,8.776873589E0,1.717777443E1,1.932334810E1
3.664034584E0,9.242277741E-1,8.298009872E0,1.684487343E1,1.880055652E1
3.666420990E0,7.420741320E-1,7.804789066E0,1.657926941E1,1.833950873E1
3.668807448E0,5.889334679E-1,7.297211647E0,1.639233017E1,1.795284459E1
3.671193855E0,4.501497746E-1,6.772884369E0,1.627268982E1,1.763164857E1
3.673580261E0,3.233301640E-1,6.248557091E0,1.622483253E1,1.738948530E1
3.675966667E0,2.033899277E-1,5.733801365E0,1.622961807E1,1.721389986E1
3.678353073E0,9.810572863E-2,5.233402252E0,1.627986717E1,1.710064908E1
3.680739480E0,0.000000000E0,4.737788677E0,1.637318802E1,1.704487980E1
3.683125886E0,-9.092725813E-2,4.256831646E0,1.651436424E1,1.705441614E1
3.685512292E0,-1.962114573E-1,3.780360699E0,1.669412613E1,1.711792841E1
3.687898698E0,-3.185445070E-1,3.313461065E0,1.689751625E1,1.722226902E1
3.690285105E0,-4.645066857E-1,2.860918522E0,1.712513161E1,1.736867162E1
3.692671511E0,-6.320042610E-1,2.415554523E0,1.734288025E1,1.752169593E1
3.695057917E0,-8.258228898E-1,1.984846354E0,1.753669739E1,1.766797537E1
3.697444376E0,-1.051047325E0,1.572981834E0,1.768056679E1,1.778149078E1
3.699830782E0,-1.295115232E0,1.177866936E0,1.776670837E1,1.785274826E1
3.702217188E0,-1.561017632E0,8.042874932E-1,1.777867317E1,1.786518609E1
3.704603594E0,-1.840977907E0,4.525425732E-1,1.770210266E1,1.780332646E1
3.706990001E0,-2.130808592E0,1.292124242E-1,1.753191185E1,1.766139786E1
3.709376407E0,-2.415554523E0,-1.674975902E-1,1.726630974E1,1.743526344E1
3.711762813E0,-2.679064035E0,-4.453641176E-1,1.691665840E1,1.713327362E1
3.714149219E0,-2.915953398E0,-7.013961077E-1,1.648804283E1,1.675858876E1
3.716535626E0,-3.126821041E0,-9.361918569E-1,1.598525143E1,1.631507671E1
3.718922032E0,-3.311068296E0,-1.156331539E0,1.541306782E1,1.580705334E1
3.721308438E0,-3.471387386E0,-1.357328653E0,1.477867126E1,1.524145649E1
3.723694844E0,-3.600599766E0,-1.537089467E0,1.409641743E1,1.462996743E1
3.726081251E0,-3.713361740E0,-1.697408557E0,1.337827110E1,1.398743682E1
3.728467709E0,-3.806681633E0,-1.843370795E0,1.262901878E1,1.331844422E1
3.730854115E0,-3.888037682E0,-1.968096614E0,1.186271763E1,1.263781274E1
3.733240521E0,-3.952643871E0,-2.063809633E0,1.108953667E1,1.195242767E1
3.735626928E0,-4.007678986E0,-2.140379906E0,1.031844902E1,1.127444487E1
3.738013334E0,-4.055535316E0,-2.193022013E0,9.552447319E0,1.060688277E1
3.740399740E0,-4.091427803E0,-2.219342947E0,8.796015739E0,9.951640944E0
3.742786146E0,-4.115355968E0,-2.228914261E0,8.048856735E0,9.310655631E0
3.745172553E0,-4.132105827E0,-2.224128723E0,7.318747044E0,8.693969487E0
3.747558959E0,-4.146462440E0,-2.204986095E0,6.629314899E0,8.124218762E0
3.749945365E0,-4.156033993E0,-2.171486616E0,5.973382473E0,7.594028631E0
3.752331771E0,-4.163212299E0,-2.123630047E0,5.350949764E0,7.104562239E0
3.754718178E0,-4.172783375E0,-2.066202402E0,4.766502857E0,6.663397253E0
3.757104636E0,-4.182354927E0,-1.994417667E0,4.223331928E0,6.269475827E0
3.759491042E0,-4.194318771E0,-1.915155411E0,3.715754509E0,5.921736382E0
3.761877448E0,-4.201497555E0,-1.838585138E0,3.244069338E0,5.617558445E0
3.764263855E0,-4.199104786E0,-1.759621978E0,2.793919563E0,5.341791557E0
3.766650261E0,-4.175176620E0,-1.680658817E0,2.370090723E0,5.086653508E0
3.769036667E0,-4.129712582E0,-1.606481314E0,1.953440547E0,4.842647849E0
3.771423073E0,-4.067499161E0,-1.537089467E0,1.568196177E0,4.622383877E0
3.773809480E0,-3.981357813E0,-1.465304732E0,1.192223907E0,4.406781800E0
3.776195886E0,-3.871287823E0,-1.398006678E0,8.452646136E-1,4.201876289E0
3.778582292E0,-3.744468451E0,-1.335793257E0,5.003990531E-1,4.006967284E0
3.780968698E0,-3.598206997E0,-1.278365493E0,1.842473447E-1,3.822990846E0
3.783355105E0,-3.442673683E0,-1.223330617E0,-1.316052526E-1,3.655934878E0
3.785741511E0,-3.289532900E0,-1.180259824E0,-4.262215197E-1,3.520753433E0
3.788127969E0,-3.133999348E0,-1.149153113E0,-7.133602500E-1,3.413412901E0
3.790514376E0,-2.987738132E0,-1.130010486E0,-9.864411354E-1,3.343137592E0
3.792900782E0,-2.846561670E0,-1.115653515E0,-1.249651670E0,3.302911656E0
3.795287188E0,-2.710170746E0,-1.110867858E0,-1.505982757E0,3.293484011E0
3.797673594E0,-2.573779821E0,-1.108475089E0,-1.766800404E0,3.312799912E0
3.800060001E0,-2.434697151E0,-1.106082320E0,-2.027917147E0,3.356131146E0
3.802446407E0,-2.286342144E0,-1.101296663E0,-2.291127682E0,3.418988271E0
3.804832813E0,-2.130808592E0,-1.096511006E0,-2.549851656E0,3.499203496E0
3.807219219E0,-1.972882271E0,-1.094118118E0,-2.791526794E0,3.589147636E0
3.809605626E0,-1.807478428E0,-1.096511006E0,-3.016452074E0,3.683517038E0
3.811992032E0,-1.642373681E0,-1.108475089E0,-3.215355396E0,3.776853010E0
3.814378438E0,-1.472483277E0,-1.127617717E0,-3.390031576E0,3.864200151E0
3.816764844E0,-1.307079315E0,-1.151545882E0,-3.531208038E0,3.937504853E0
3.819151303E0,-1.137188911E0,-1.177866936E0,-3.660719633E0,4.010166751E0
3.821537709E0,-9.720842242E-1,-1.208973646E0,-3.758825302E0,4.066366027E0
3.823924115E0,-8.090731502E-1,-1.242473125E0,-3.842574120E0,4.118703035E0
3.826310521E0,-6.559324861E-1,-1.275972724E0,-3.904787540E0,4.160014370E0
3.828696928E0,-5.171487927E-1,-1.307079315E0,-3.955036640E0,4.197405631E0
3.831083334E0,-3.927220106E-1,-1.331007600E0,-3.974179268E0,4.209502662E0
3.833469740E0,-2.799602449E-1,-1.345364571E0,-3.988536358E0,4.218626061E0
3.835856146E0,-1.866401732E-1,-1.352542996E0,-3.981357813E0,4.208968656E0
3.838242553E0,-1.148554832E-1,-1.359721422E0,-3.964607954E0,4.192868989E0
3.840628959E0,-6.939185411E-2,-1.369292736E0,-3.928715706E0,4.161079779E0
3.843015365E0,-5.264209956E-2,-1.388435364E0,-3.885644913E0,4.126591855E0
3.845401771E0,-6.460621208E-2,-1.415055513E0,-3.833002806E0,4.086375726E0
3.847788178E0,-1.028913707E-1,-1.443769336E0,-3.766003847E0,4.034580710E0
3.850174636E0,-1.555334777E-1,-1.472483277E0,-3.691826344E0,3.977685183E0
3.852561042E0,-2.057827413E-1,-1.496411443E0,-3.610171080E0,3.913429310E0
3.854947448E0,-2.440679073E-1,-1.515554070E0,-3.526422262E0,3.846053465E0
3.857333855E0,-2.656033039E-1,-1.525125384E0,-3.437887907E0,3.770361496E0
3.859720261E0,-2.679961324E-1,-1.527518153E0,-3.351746321E0,3.693147307E0
3.862106667E0,-2.608176768E-1,-1.529910922E0,-3.270390272E0,3.619959367E0
3.864493073E0,-2.392822653E-1,-1.527518153E0,-3.191427231E0,3.546233986E0
3.866879480E0,-2.033899277E-1,-1.522732496E0,-3.119642496E0,3.477391410E0
3.869265886E0,-1.627119333E-1,-1.517946839E0,-3.054737091E0,3.414975326E0
3.871652292E0,-1.100698411E-1,-1.517946839E0,-2.994916677E0,3.359435054E0
3.874038698E0,-4.546362907E-2,-1.515554070E0,-2.944667339E0,3.312104591E0
3.876425105E0,2.392822690E-2,-1.513161182E0,-2.903989315E0,3.274657733E0
3.878811511E0,9.571290761E-2,-1.513161182E0,-2.868097067E0,3.244194586E0
3.881197917E0,1.651047617E-1,-1.513161182E0,-2.846561670E0,3.227976098E0
3.883584376E0,2.344966233E-1,-1.510768414E0,-2.834597588E0,3.220613816E0
3.885970782E0,2.994019389E-1,-1.505982757E0,-2.829811811E0,3.219543519E0
3.888357188E0,3.568296731E-1,-1.498804331E0,-2.834597588E0,3.226249420E0
3.890743594E0,3.999004960E-1,-1.484447360E0,-2.851347208E0,3.239395819E0
3.893130001E0,4.286143482E-1,-1.462911963E0,-2.870489836E0,3.250159007E0
3.895516407E0,4.381856322E-1,-1.429412484E0,-2.896811008E0,3.259868205E0
3.897902813E0,4.238287210E-1,-1.386042476E0,-2.923131943E0,3.262735797E0
3.900289219E0,3.831507266E-1,-1.333400369E0,-2.944667339E0,3.255123156E0
3.902675626E0,3.161516786E-1,-1.271187067E0,-2.968595505E0,3.244753876E0
3.905062032E0,2.249253243E-1,-1.197009563E0,-2.982952595E0,3.222022576E0
3.907448438E0,1.148554832E-1,-1.113260746E0,-2.987738132E0,3.190473385E0
3.909834844E0,-1.674975827E-2,-1.015154958E0,-2.982952595E0,3.151004019E0
3.912221251E0,-1.579262912E-1,-9.122636318E-1,-2.968595505E0,3.109618131E0
3.914607709E0,-2.970091105E-1,-8.066803217E-1,-2.942274570E0,3.065277671E0
3.916994115E0,-4.286143482E-1,-7.085745931E-1,-2.896811008E0,3.012856159E0
3.919380521E0,-5.434698462E-1,-6.152545214E-1,-2.848954439E0,2.964867450E0
3.921766928E0,-6.391827464E-1,-5.291129351E-1,-2.793919563E0,2.914532828E0
3.924153334E0,-7.157530785E-1,-4.573282301E-1,-2.734098911E0,2.862996409E0
3.926539740E0,-7.731808424E-1,-4.046861231E-1,-2.671885490E0,2.810791979E0
3.928926146E0,-8.042874932E-1,-3.664009571E-1,-2.600100994E0,2.746207059E0
3.931312553E0,-8.186444640E-1,-3.376871049E-1,-2.528316259E0,2.678916655E0
3.933698959E0,-8.282157183E-1,-3.137588799E-1,-2.449054003E0,2.604275604E0
3.936085365E0,-8.306085467E-1,-3.017947674E-1,-2.374876499E0,2.533974946E0
3.938471771E0,-8.306085467E-1,-3.017947674E-1,-2.298306227E0,2.462357032E0
3.940858178E0,-8.258228898E-1,-3.185445070E-1,-2.228914261E0,2.398231188E0
3.943244584E0,-8.210372925E-1,-3.520440459E-1,-2.161915302E0,2.339212479E0
3.945630990E0,-8.138588071E-1,-4.022932947E-1,-2.094916344E0,2.283173349E0
3.948017396E0,-8.090731502E-1,-4.668995142E-1,-2.023131609E0,2.228375199E0
3.950403855E0,-7.995018363E-1,-5.458626747E-1,-1.948654890E0,2.175873417E0
3.952790261E0,-7.851449251E-1,-6.272186637E-1,-1.872084618E0,2.124748602E0
3.955176667E0,-7.731808424E-1,-7.109674215E-1,-1.795514345E0,2.080181495E0
3.957563073E0,-7.612167001E-1,-7.995018363E-1,-1.718943954E0,2.042895584E0
3.959949480E0,-7.468597889E-1,-8.859425783E-1,-1.647159338E0,2.013908558E0
3.962335886E0,-7.325028181E-1,-9.696913958E-1,-1.577767372E0,1.991535001E0
3.964722292E0,-7.205387354E-1,-1.046261668E0,-1.520339727E0,1.981230031E0
3.967108698E0,-7.157530785E-1,-1.118046403E0,-1.467697620E0,1.979006451E0
3.969495105E0,-7.157530785E-1,-1.180259824E0,-1.424626827E0,1.983652519E0
3.971881511E0,-7.157530785E-1,-1.232901812E0,-1.383649707E0,1.986664506E0
3.974267917E0,-7.157530785E-1,-1.275972724E0,-1.347757339E0,1.989185438E0
3.976654323E0,-7.205387354E-1,-1.304686546E0,-1.316650629E0,1.988706095E0
3.979040782E0,-7.348956466E-1,-1.314257860E0,-1.290329576E0,1.983001701E0
3.981427136E0,-7.588238716E-1,-1.299900889E0,-1.266401410E0,1.967060884E0
3.983813542E0,-7.899305820E-1,-1.271187067E0,-1.254437327E0,1.952823569E0
