"Time (s)","Acceleration x (m/s^2)","Acceleration y (m/s^2)","Acceleration z (m/s^2)","Absolute acceleration (m/s^2)"
3.662198500E-2,1.172483116E-1,4.618147850E0,8.070392609E0,9.299046918E0
3.900870300E-2,1.244267747E-1,4.625326157E0,8.137690544E0,9.361150115E0
4.139537000E-2,1.268195957E-1,4.632504463E0,8.207082748E0,9.425093530E0
4.378203700E-2,1.244267747E-1,4.637290478E0,8.283653259E0,9.494148530E0
4.616875500E-2,1.148554832E-1,4.634897232E0,8.369794846E0,9.568120499E0
4.855542200E-2,1.028913707E-1,4.627718925E0,8.455936432E0,9.639980811E0
5.094208900E-2,8.614161611E-2,4.620540619E0,8.542078018E0,9.712049879E0
5.332880800E-2,5.982056633E-2,4.613361835E0,8.630612373E0,9.786427125E0
5.571547400E-2,3.110669367E-2,4.606183529E0,8.719446182E0,9.861370901E0
5.810214100E-2,-2.392822644E-3,4.599005222E0,8.791230202E0,9.921521215E0
6.048880800E-2,-3.589234129E-2,4.594219685E0,8.863015175E0,9.983044664E0
6.287552600E-2,-7.417750359E-2,4.594219685E0,8.925228119E0,1.003852847E1
6.526219300E-2,-1.124626622E-1,4.596612453E0,8.975478172E0,1.008467661E1
6.764891200E-2,-1.531406492E-1,4.601397991E0,9.023334503E0,1.012999907E1
7.003557800E-2,-1.914258152E-1,4.608576298E0,9.073583603E0,1.017868060E1
7.242224500E-2,-2.321037948E-1,4.618147850E0,9.121439934E0,1.022652572E1
7.480896400E-2,-2.703889608E-1,4.622933388E0,9.166903496E0,1.027018710E1
7.719563000E-2,-3.017947674E-1,4.620540619E0,9.214759827E0,1.031272391E1
7.958229700E-2,-3.257229924E-1,4.620540619E0,9.265308380E0,1.035864038E1
8.196901600E-2,-3.448655605E-1,4.618147850E0,9.308379173E0,1.039673721E1
8.435568300E-2,-3.664009571E-1,4.610969067E0,9.346664429E0,1.042858674E1
8.674234900E-2,-3.879363835E-1,4.599005222E0,9.380164146E0,1.045412948E1
8.912901600E-2,-4.070789516E-1,4.584648132E0,9.411270142E0,1.047648402E1
9.151573500E-2,-4.214358926E-1,4.572684288E0,9.430413246E0,1.048902969E1
9.390240100E-2,-4.357928336E-1,4.558327198E0,9.449555397E0,1.050058853E1
9.628906800E-2,-4.453641176E-1,4.543970108E0,9.471091270E0,1.051416109E1
9.867578700E-2,-4.453641176E-1,4.534399033E0,9.483055115E0,1.052081071E1
1.010624530E-1,-4.334000051E-1,4.529613495E0,9.490233421E0,1.052472158E1
1.034491200E-1,-4.142574072E-1,4.529613495E0,9.490233421E0,1.052395068E1
1.058358390E-1,-3.903291821E-1,4.529613495E0,9.473484039E0,1.050793296E1
1.082225050E-1,-3.640081584E-1,4.534399033E0,9.456734657E0,1.049395573E1
1.106091720E-1,-3.400799036E-1,4.543970108E0,9.435198784E0,1.047789553E1
1.129958910E-1,-3.209373355E-1,4.558327198E0,9.406484604E0,1.045769096E1
1.153825580E-1,-3.113660514E-1,4.572684288E0,9.370592117E0,1.043141347E1
1.177692240E-1,-3.161516786E-1,4.587040901E0,9.329915047E0,1.040135620E1
1.201559430E-1,-3.281157911E-1,4.601397991E0,9.279664993E0,1.036304520E1
1.225426100E-1,-3.472583890E-1,4.618147850E0,9.219545364E0,1.031735890E1
1.249292760E-1,-3.735794425E-1,4.634897232E0,9.150154114E0,1.026387618E1
1.273159950E-1,-4.046861231E-1,4.644468784E0,9.075976372E0,1.020334299E1
1.297026620E-1,-4.334000051E-1,4.651647091E0,9.006584167E0,1.014614284E1
1.320893280E-1,-4.549354017E-1,4.658825874E0,8.932407379E0,1.008461830E1
1.344760470E-1,-4.764707983E-1,4.663611412E0,8.851051331E0,1.001585770E1
1.368627140E-1,-4.932205677E-1,4.666004181E0,8.786444664E0,9.960746527E0
1.392493800E-1,-5.027918816E-1,4.668396950E0,8.717052460E0,9.901198581E0
1.416360990E-1,-5.099703074E-1,4.673182487E0,8.633005142E0,9.829927877E0
1.440227660E-1,-5.123631358E-1,4.685146809E0,8.549256325E0,9.762320437E0
1.464094330E-1,-5.099703074E-1,4.697110653E0,8.463114738E0,9.692637891E0
1.487961510E-1,-5.051847100E-1,4.713860512E0,8.388936996E0,9.635868225E0
1.511828180E-1,-4.956133962E-1,4.735395908E0,8.319544792E0,9.585636786E0
1.535694850E-1,-4.860421121E-1,4.756931305E0,8.259724617E0,9.543986752E0
1.559561510E-1,-4.788636267E-1,4.781158924E0,8.202297211E0,9.506128053E0
1.583428700E-1,-4.788636267E-1,4.805087090E0,8.156833649E0,9.479035156E0
1.607295370E-1,-4.812564552E-1,4.829015255E0,8.120641708E0,9.460222929E0
1.631162030E-1,-4.860421121E-1,4.852943420E0,8.101499557E0,9.456299057E0
1.655029220E-1,-4.956133962E-1,4.874478817E0,8.091927528E0,9.459675867E0
1.678895890E-1,-5.123631358E-1,4.886443138E0,8.108677864E0,9.481060027E0
1.702762550E-1,-5.338985324E-1,4.893621445E0,8.120641708E0,9.496178191E0
1.726629740E-1,-5.578267574E-1,4.898406982E0,8.147261620E0,9.522784968E0
1.750496410E-1,-5.841478109E-1,4.893621445E0,8.178368568E0,9.548532450E0
1.774363080E-1,-6.056832075E-1,4.879264355E0,8.214261055E0,9.573304418E0
1.798230260E-1,-6.248258352E-1,4.860121727E0,8.245368004E0,9.591521467E0
1.822096930E-1,-6.296114326E-1,4.838586330E0,8.283653259E0,9.613908651E0
1.845963600E-1,-6.272186637E-1,4.817050934E0,8.314759254E0,9.629776966E0
1.869830780E-1,-6.128616929E-1,4.795515537E0,8.343473434E0,9.642930969E0
1.893697450E-1,-5.673980713E-1,4.752145767E0,8.367402077E0,9.639411158E0
1.917564120E-1,-4.740779996E-1,4.685146809E0,8.374580383E0,9.607754533E0
1.941431300E-1,-3.807578981E-1,4.615755081E0,8.381758690E0,9.576223174E0
1.965297970E-1,-3.185445070E-1,4.563112736E0,8.400900841E0,9.565490232E0
1.989164640E-1,-2.799602449E-1,4.520041943E0,8.434400558E0,9.573310278E0
2.013031830E-1,-2.488535494E-1,4.488935471E0,8.465507507E0,9.585264060E0
2.036898490E-1,-2.033899277E-1,4.467400074E0,8.482256889E0,9.588937002E0
2.060765160E-1,-1.363908947E-1,4.450650215E0,8.487042427E0,9.584194227E0
2.084631830E-1,-4.546362907E-2,4.448257446E0,8.472685814E0,9.569507101E0
2.108499010E-1,5.982056633E-2,4.438685894E0,8.439186096E0,9.535479691E0
2.132365680E-1,1.507478207E-1,4.421936035E0,8.408080101E0,9.501160676E0
2.156232350E-1,2.057827413E-1,4.400400639E0,8.374580383E0,9.462529731E0
2.180099530E-1,2.081755698E-1,4.393222332E0,8.357830048E0,9.444419656E0
2.203966200E-1,1.674975902E-1,4.393222332E0,8.367402077E0,9.452083126E0
2.227832870E-1,9.810572863E-2,4.398007870E0,8.403293610E0,9.485116839E0
2.251700050E-1,9.571290575E-3,4.407579422E0,8.460721970E0,9.539950955E0
2.275566720E-1,-7.896314561E-2,4.417150497E0,8.534899712E0,9.610513346E0
2.299433390E-1,-1.603191197E-1,4.431507587E0,8.625826836E0,9.698909749E0
2.323300580E-1,-2.321037948E-1,4.443471432E0,8.714659691E0,9.784866073E0
2.347167240E-1,-2.874378264E-1,4.453042984E0,8.796015739E0,9.863169126E0
2.371033910E-1,-3.233301640E-1,4.460221291E0,8.870193481E0,9.933702671E0
2.394901100E-1,-3.400799036E-1,4.465006828E0,8.934800148E0,9.994127976E0
2.418767760E-1,-3.400799036E-1,4.472185612E0,8.985049248E0,1.004227108E1
2.442634430E-1,-3.329014480E-1,4.476971149E0,9.037691116E0,1.009128113E1
2.466501100E-1,-3.233301640E-1,4.484149456E0,9.080761909E0,1.013273781E1
2.490368280E-1,-3.233301640E-1,4.488935471E0,9.116654396E0,1.016702864E1
2.514234950E-1,-3.257229924E-1,4.493721008E0,9.142974854E0,1.019282165E1
2.538101620E-1,-3.329014480E-1,4.493721008E0,9.162117958E0,1.021022808E1
2.561968800E-1,-3.472583890E-1,4.488935471E0,9.164510727E0,1.021074860E1
2.585835470E-1,-3.664009571E-1,4.488935471E0,9.152546883E0,1.020068163E1
2.609702140E-1,-3.855435550E-1,4.491328239E0,9.128618240E0,1.018097953E1
2.633569330E-1,-4.022932947E-1,4.491328239E0,9.099904060E0,1.015589106E1
2.657435990E-1,-4.166502357E-1,4.496113777E0,9.059226990E0,1.012216529E1
2.681302660E-1,-4.334000051E-1,4.508078098E0,9.018548965E0,1.009181991E1
2.705169850E-1,-4.549354017E-1,4.529613495E0,8.970691681E0,1.005970546E1
2.729036510E-1,-4.740779996E-1,4.558327198E0,8.908478737E0,1.001818797E1
2.752903180E-1,-4.908277392E-1,4.603790760E0,8.853444099E0,9.990959596E0
2.776769850E-1,-5.123631358E-1,4.668396950E0,8.803194046E0,9.977608505E0
2.800637030E-1,-5.338985324E-1,4.733003139E0,8.755337715E0,9.967060994E0
2.824503700E-1,-5.458626747E-1,4.788337231E0,8.705088615E0,9.950110919E0
2.848370370E-1,-5.506483316E-1,4.838586330E0,8.654540062E0,9.930568712E0
2.872237550E-1,-5.434698462E-1,4.876871586E0,8.606683731E0,9.907282210E0
2.896104220E-1,-5.195416212E-1,4.907978535E0,8.568398476E0,9.888156008E0
2.919970890E-1,-4.860421121E-1,4.941477776E0,8.530113220E0,9.870018799E0
2.943838080E-1,-4.453641176E-1,4.970191956E0,8.479864120E0,9.839169313E0
2.967704740E-1,-3.855435550E-1,5.003691196E0,8.412865639E0,9.796013356E0
2.991571410E-1,-3.137588799E-1,5.039583683E0,8.326724052E0,9.738078957E0
3.015438600E-1,-2.297109663E-1,5.068297386E0,8.216653824E0,9.656801002E0
3.039305260E-1,-1.292124242E-1,5.092225552E0,8.084749222E0,9.555659417E0
3.063171930E-1,-1.914258115E-2,5.113760948E0,7.929215908E0,9.435220315E0
3.087038600E-1,1.052841991E-1,5.135296345E0,7.771289825E0,9.315326020E0
3.110905780E-1,2.536391914E-1,5.204688549E0,7.656434059E0,9.261430680E0
3.134772450E-1,4.214358926E-1,5.346164227E0,7.622934818E0,9.320311979E0
3.158639120E-1,5.793621540E-1,5.496912003E0,7.618149281E0,9.412114562E0
3.182506300E-1,7.061817646E-1,5.626124382E0,7.589435101E0,9.473726479E0
3.206372970E-1,8.114659786E-1,5.721837044E0,7.531708241E0,9.493393767E0
3.230239640E-1,9.026923180E-1,5.786443233E0,7.424031258E0,9.455898626E0
3.254106830E-1,9.816554785E-1,5.819942951E0,7.285247803E0,9.376044954E0
3.277973490E-1,1.053440213E0,5.822335720E0,7.132106781E0,9.266945379E0
3.301840160E-1,1.115653515E0,5.791228771E0,6.983452797E0,9.140657876E0
3.325707350E-1,1.177866936E0,5.736194134E0,6.854240417E0,9.015093197E0
3.349574010E-1,1.242473125E0,5.654838085E0,6.756134510E0,8.897543861E0
3.373440680E-1,1.321436286E0,5.554339409E0,6.693921566E0,8.798037625E0
3.397307350E-1,1.410269856E0,5.439484119E0,6.641279221E0,8.699622879E0
3.421174530E-1,1.501197100E0,5.305186749E0,6.610172749E0,8.607728094E0
3.445041200E-1,1.604088426E0,5.159224510E0,6.607779503E0,8.535423082E0
3.468907870E-1,1.728515267E0,5.003691196E0,6.614958286E0,8.472447329E0
3.492775050E-1,1.864906192E0,4.850550652E0,6.614958286E0,8.412097827E0
3.516641720E-1,2.003988981E0,4.701896667E0,6.622136593E0,8.365195584E0
3.540508390E-1,2.130808592E0,4.555934429E0,6.626922131E0,8.319433917E0
3.564375580E-1,2.245664120E0,4.398007870E0,6.624529362E0,8.262558310E0
3.588242240E-1,2.343769789E0,4.230510235E0,6.605386734E0,8.186672558E0
3.612108910E-1,2.429911375E0,4.060320854E0,6.564708710E0,8.092346704E0
3.635976100E-1,2.511267424E0,3.890430450E0,6.507281303E0,7.986652811E0
3.659842760E-1,2.580958366E0,3.720540047E0,6.439982891E0,7.872556381E0
3.683709430E-1,2.638386011E0,3.552743435E0,6.363412857E0,7.750876715E0
3.707576100E-1,2.679064035E0,3.399602890E0,6.291627884E0,7.636705137E0
3.731443280E-1,2.698206663E0,3.258426189E0,6.222236156E0,7.524219775E0
3.755309950E-1,2.695813894E0,3.138785124E0,6.164808273E0,7.424570402E0
3.779176620E-1,2.669492722E0,3.045166016E0,6.131309032E0,7.347936983E0
3.803043800E-1,2.626421928E0,2.985345364E0,6.112166405E0,7.291704687E0
3.826910470E-1,2.573779821E0,2.954238653E0,6.121737480E0,7.268255524E0
3.850777140E-1,2.504088879E0,2.944667339E0,6.128916264E0,7.246043156E0
3.874644330E-1,2.398804665E0,2.951845884E0,6.107380867E0,7.194981515E0
3.898510990E-1,2.274377823E0,2.975774050E0,6.071488380E0,7.133792598E0
3.922377660E-1,2.145165443E0,3.016452074E0,6.028417587E0,7.074074957E0
3.946244850E-1,1.989632010E0,3.071486950E0,5.999703884E0,7.027738919E0
3.970111510E-1,1.824228168E0,3.136392355E0,5.987739563E0,7.001270634E0
3.993978180E-1,1.668694735E0,3.196212769E0,5.994917870E0,6.995667119E0
4.017844850E-1,1.525125384E0,3.251247883E0,6.002096653E0,6.994410945E0
4.041712030E-1,1.398006678E0,3.301496983E0,5.987739563E0,6.979063696E0
4.065578700E-1,1.285543919E0,3.342175007E0,5.932704449E0,6.929627625E0
4.089445370E-1,1.180259824E0,3.378067255E0,5.846263885E0,6.854425800E0
4.113312550E-1,1.077368379E0,3.413959742E0,5.740979671E0,6.765699619E0
4.137179220E-1,9.792626500E-1,3.452244759E0,5.623731613E0,6.671079858E0
4.161045890E-1,8.835497499E-1,3.497708559E0,5.496912003E0,6.575003185E0
4.184912550E-1,8.018946648E-1,3.550350666E0,5.365306377E0,6.483404771E0
4.208779740E-1,7.492526174E-1,3.617349625E0,5.240580559E0,6.411730062E0
4.232646410E-1,7.612167001E-1,3.749253988E0,5.113760948E0,6.386462821E0
4.256513080E-1,8.428717852E-1,3.964607954E0,4.982155800E0,6.422649414E0
4.280380260E-1,9.194421172E-1,4.170390606E0,4.881657124E0,6.485993207E0
4.304246930E-1,9.816554785E-1,4.328616142E0,4.802694321E0,6.539605334E0
4.328113600E-1,1.029511929E0,4.431507587E0,4.733003139E0,6.565018890E0
4.351980780E-1,1.072582722E0,4.476971149E0,4.670789719E0,6.558199521E0
4.375847450E-1,1.115653515E0,4.465006828E0,4.601397991E0,6.507982192E0
4.399714120E-1,1.165902853E0,4.405186653E0,4.539184570E0,6.431888951E0
4.423580780E-1,1.218544960E0,4.321437836E0,4.476971149E0,6.340579426E0
4.447447970E-1,1.273579836E0,4.216153622E0,4.421936035E0,6.241111701E0
4.471314640E-1,1.323829174E0,4.098606110E0,4.376472473E0,6.140407725E0
4.495181300E-1,1.371685624E0,3.976572037E0,4.342973232E0,6.046161023E0
4.519048490E-1,1.419841170E0,3.856930971E0,4.326223373E0,5.967250132E0
4.542915160E-1,1.474876046E0,3.761218071E0,4.328616142E0,5.921058895E0
4.566781830E-1,1.541875124E0,3.713361740E0,4.359723091E0,5.930735177E0
4.590649010E-1,1.628016710E0,3.699004650E0,4.419543266E0,5.988775876E0
4.614515680E-1,1.735693693E0,3.706183195E0,4.491328239E0,6.076220522E0
4.638382350E-1,1.867298961E0,3.708575964E0,4.551148891E0,6.160624751E0
4.662249010E-1,2.013560295E0,3.703790426E0,4.601397991E0,6.240621127E0
4.686116200E-1,2.166700840E0,3.689433336E0,4.656432629E0,6.323675806E0
4.709982870E-1,2.324627161E0,3.667897940E0,4.725824833E0,6.418004915E0
4.733849530E-1,2.472982168E0,3.638885021E0,4.802694321E0,6.513293924E0
4.757716720E-1,2.619243383E0,3.600599766E0,4.872086048E0,6.600149774E0
4.781583390E-1,2.758027315E0,3.547957659E0,4.951049328E0,6.686374778E0
4.805450050E-1,2.877668381E0,3.485744476E0,5.025226593E0,6.759015622E0
4.829317240E-1,2.982952595E0,3.418745279E0,5.094618320E0,6.822093615E0
4.853183910E-1,3.073879719E0,3.356531858E0,5.164010525E0,6.883461872E0
4.877050580E-1,3.153141975E0,3.291925669E0,5.233402252E0,6.940286598E0
4.900917240E-1,3.217748165E0,3.232105255E0,5.314758301E0,7.003360867E0
4.924784430E-1,3.267997503E0,3.169891834E0,5.415555954E0,7.075045457E0
4.948651100E-1,3.306282759E0,3.122035265E0,5.516054630E0,7.148808891E0
4.972517760E-1,3.332603693E0,3.088535786E0,5.609374523E0,7.218752192E0
4.996384950E-1,3.354139090E0,3.071486950E0,5.693123341E0,7.286695718E0
5.020251620E-1,3.373281717E0,3.064308405E0,5.767300606E0,7.350562687E0
5.044118280E-1,3.387638569E0,3.078665495E0,5.827121258E0,7.410102459E0
5.067984950E-1,3.394817114E0,3.112463951E0,5.865406513E0,7.457560503E0
5.091852140E-1,3.392424345E0,3.165106058E0,5.879763603E0,7.489863772E0
5.115718800E-1,3.392424345E0,3.236890793E0,5.865406513E0,7.509260850E0
5.139585470E-1,3.399602890E0,3.320639610E0,5.819942951E0,7.513699700E0
5.163452660E-1,3.425923824E0,3.406781197E0,5.738586903E0,7.501632610E0
5.187319330E-1,3.476173162E0,3.490530014E0,5.614160061E0,7.469027569E0
5.211185990E-1,3.552743435E0,3.564707518E0,5.463412285E0,7.428189510E0
5.235053180E-1,3.655933857E0,3.617349625E0,5.290830135E0,7.378614653E0
5.258919850E-1,3.785146236E0,3.636492252E0,5.108975410E0,7.324823389E0
5.282786510E-1,3.955036640E0,3.622135162E0,4.939085007E0,7.290866798E0
5.306653180E-1,4.158426762E0,3.559921980E0,4.812265396E0,7.288583942E0
5.330520370E-1,4.333401680E0,3.483351469E0,4.778766155E0,7.331351413E0
5.354387030E-1,4.419543266E0,3.413959742E0,4.857728958E0,7.401689971E0
5.378253700E-1,4.383651257E0,3.358924866E0,5.027619362E0,7.468315141E0
5.402120890E-1,4.261617184E0,3.325425386E0,5.204688549E0,7.503906843E0
5.425987550E-1,4.103391647E0,3.294318676E0,5.312365532E0,7.477405038E0
5.449854220E-1,3.964607954E0,3.248854876E0,5.305186749E0,7.376867944E0
5.473720890E-1,3.873680830E0,3.186641455E0,5.202295303E0,7.226614931E0
5.497588080E-1,3.825824261E0,3.110071182E0,5.034798145E0,7.046890548E0
5.521454740E-1,3.780360699E0,3.006880760E0,4.843372345E0,6.840373863E0
5.545321410E-1,3.682255030E0,2.872882605E0,4.670789719E0,6.605205005E0
5.569188600E-1,3.507279873E0,2.724527597E0,4.555934429E0,6.362436739E0
5.593055260E-1,3.277568817E0,2.585743904E0,4.527220249E0,6.158266970E0
5.616921930E-1,3.035594702E0,2.472982168E0,4.584648132E0,6.029052537E0
5.640788600E-1,2.820240498E0,2.377269268E0,4.704289436E0,5.977918094E0
5.664655780E-1,2.657528639E0,2.276770830E0,4.838586330E0,5.971437143E0
5.688522450E-1,2.559422970E0,2.152343988E0,4.922335148E0,5.950849846E0
5.712389120E-1,2.504088879E0,1.996810555E0,4.941477776E0,5.888625995E0
5.736256300E-1,2.463410854E0,1.802692771E0,4.915156841E0,5.785919204E0
5.760122970E-1,2.427518606E0,1.580160260E0,4.869693279E0,5.666009677E0
5.783989640E-1,2.401197433E0,1.335793257E0,4.840979099E0,5.566432554E0
5.807856300E-1,2.470589399E0,9.816554785E-1,4.833800793E0,5.516619396E0
5.831723490E-1,2.750848770E0,4.214358926E-1,4.855336189E0,5.596344046E0
5.855590160E-1,2.987738132E0,-9.332008660E-2,4.872086048E0,5.715987250E0
5.879456830E-1,3.040380239E0,-4.214358926E-1,4.886443138E0,5.770515294E0
5.903324010E-1,3.037987471E0,-6.224330068E-1,4.912764072E0,5.809650725E0
5.927190680E-1,3.105285645E0,-7.995018363E-1,4.931906700E0,5.882661457E0
5.951057350E-1,3.236890793E0,-9.577272534E-1,4.924727917E0,5.970565178E0
5.974924530E-1,3.392424345E0,-1.106082320E0,4.898406982E0,6.060227059E0
5.998791200E-1,3.555136204E0,-1.345364571E0,4.776372910E0,6.104321209E0
6.022657870E-1,3.773182154E0,-1.692622900E0,4.297509670E0,5.964098022E0
6.046524530E-1,4.031607151E0,-2.063809633E0,3.914358854E0,5.986265252E0
6.070391720E-1,4.287938118E0,-2.482553482E0,3.926322937E0,6.321827022E0
6.094258390E-1,4.472185612E0,-2.896811008E0,4.153641224E0,6.756085670E0
6.118125050E-1,4.412364960E0,-3.277568817E0,4.555934429E0,7.139184856E0
6.141992240E-1,4.120141506E0,-3.626920938E0,4.963013172E0,7.400109545E0
6.165858910E-1,3.732504129E0,-3.926322937E0,5.321936607E0,7.594116679E0
6.189725580E-1,3.339782238E0,-4.146462440E0,5.640480995E0,7.756437457E0
6.213592240E-1,2.994916677E0,-4.259224415E0,5.980561256E0,7.929541693E0
6.237459430E-1,2.702992201E0,-4.268795490E0,6.365805626E0,8.127254336E0
6.261326100E-1,2.425125837E0,-4.230510235E0,6.665207386E0,8.258537502E0
6.285192760E-1,2.149951220E0,-4.211368084E0,6.830312252E0,8.307290584E0
6.309059950E-1,1.912762642E0,-4.213760853E0,6.906882763E0,8.313812059E0
6.332926620E-1,1.728515267E0,-4.228117466E0,6.930810928E0,8.300655544E0
6.356793280E-1,1.594517231E0,-4.259224415E0,6.923632145E0,8.283728623E0
6.380659950E-1,1.477268934E0,-4.326223373E0,6.916453838E0,8.290709612E0
6.404527140E-1,1.364507079E0,-4.417150497E0,6.937989235E0,8.337193335E0
6.428393800E-1,1.271187067E0,-4.522434711E0,6.985845566E0,8.418454166E0
6.452260470E-1,1.206580877E0,-4.632504463E0,7.004988194E0,8.484444272E0
6.476127140E-1,1.185045362E0,-4.764110088E0,6.981060028E0,8.534417177E0
6.499994330E-1,1.201795220E0,-4.941477776E0,6.894918442E0,8.567520918E0
6.523860990E-1,1.261615753E0,-5.164010525E0,6.768098831E0,8.606151335E0
6.547727660E-1,1.350150228E0,-5.425127029E0,6.607779503E0,8.655498766E0
6.571594850E-1,1.455733418E0,-5.721837044E0,6.435197353E0,8.733289410E0
6.595461510E-1,1.570588946E0,-6.054738522E0,6.267699718E0,8.854979840E0
6.619328180E-1,1.673480392E0,-6.387341022E0,6.128916264E0,9.009010852E0
6.643194850E-1,1.771586061E0,-6.677171707E0,6.040381432E0,9.176565099E0
6.667062030E-1,1.855334878E0,-6.918846607E0,5.980561256E0,9.331656810E0
6.690928700E-1,1.927119493E0,-7.074679375E0,5.980561256E0,9.462134576E0
6.714795370E-1,2.001596212E0,-7.112964630E0,6.042774677E0,9.545458555E0
6.738662030E-1,2.051845312E0,-7.065107822E0,6.088238239E0,9.549474466E0
6.762529220E-1,2.075773716E0,-6.978667259E0,6.131309032E0,9.518591476E0
6.786395890E-1,2.121237278E0,-6.849454880E0,6.296413898E0,9.542510556E0
6.810262550E-1,2.209771633E0,-6.665207386E0,6.569494724E0,9.615942029E0
6.834129740E-1,2.353341103E0,-6.416054726E0,6.906882763E0,9.716429493E0
6.857996410E-1,2.535494804E0,-6.148058891E0,7.297211647E0,9.873026884E0
6.881863080E-1,2.707777977E0,-5.913562298E0,7.711469173E0,1.008806411E1
6.905729740E-1,2.820240498E0,-5.745765209E0,7.900502205E0,1.016786651E1
6.929596930E-1,2.877668381E0,-5.630909920E0,7.843074322E0,1.007481695E1
6.953463600E-1,2.903989315E0,-5.563910961E0,7.651648521E0,9.896362171E0
6.977330260E-1,2.925524712E0,-5.563910961E0,7.419245720E0,9.724248407E0
7.001197450E-1,2.939881802E0,-5.630909920E0,7.232605457E0,9.626039333E0
7.025064120E-1,2.937488794E0,-5.764907837E0,7.141678333E0,9.636730369E0
7.048930780E-1,2.901596546E0,-5.954239845E0,7.187141895E0,9.773803931E0
7.072797450E-1,2.829811811E0,-6.176772594E0,7.373782158E0,1.002661548E1
7.096664640E-1,2.750848770E0,-6.401698112E0,7.656434059E0,1.035228913E1
7.120531300E-1,2.714956284E0,-6.579065800E0,7.984251022E0,1.069595058E1
7.144397970E-1,2.686242580E0,-6.736992359E0,8.266902924E0,1.099748377E1
7.168265160E-1,2.647957325E0,-6.890132904E0,8.453543663E0,1.122265610E1
7.192131830E-1,2.602493763E0,-7.043572426E0,8.566005707E0,1.139128351E1
7.215998490E-1,2.552244425E0,-7.194320202E0,8.628219604E0,1.152034584E1
7.239865680E-1,2.494517565E0,-7.354639530E0,8.680861473E0,1.164777646E1
7.263732350E-1,2.429911375E0,-7.529315472E0,8.743373871E0,1.179159223E1
7.287599010E-1,2.365305185E0,-7.718647480E0,8.843872070E0,1.197440022E1
7.311465680E-1,2.317448616E0,-7.929215908E0,9.030512810E0,1.223900301E1
7.335332870E-1,2.298306227E0,-8.168797493E0,9.310771942E0,1.259769575E1
7.359199530E-1,2.334198475E0,-8.443971634E0,9.696016312E0,1.306758860E1
7.383066200E-1,2.427518606E0,-8.760123253E0,1.016291618E1,1.363515571E1
7.406932870E-1,2.571387053E0,-9.107083321E0,1.068485069E1,1.427294757E1
7.430800050E-1,2.758027315E0,-9.468698502E0,1.124507046E1,1.495709115E1
7.454666720E-1,2.966202736E0,-9.827920914E0,1.180528927E1,1.564452757E1
7.478533390E-1,3.177070379E0,-1.017009449E1,1.234158134E1,1.630457691E1
7.502400580E-1,3.370888948E0,-1.048624611E1,1.282523060E1,1.690593948E1
7.526267240E-1,3.540779352E0,-1.076381397E1,1.323230934E1,1.742098792E1
7.550133910E-1,3.667897940E0,-1.099143124E1,1.354337597E1,1.782380623E1
7.574000580E-1,3.761218071E0,-1.116610718E1,1.378056431E1,1.813098628E1
7.597867760E-1,3.811467409E0,-1.128814125E1,1.393370533E1,1.833296378E1
7.621734430E-1,3.825824261E0,-1.136231804E1,1.402463245E1,1.845073218E1
7.645601100E-1,3.811467409E0,-1.138863945E1,1.403181076E1,1.846943707E1
7.669468280E-1,3.768396616E0,-1.136949635E1,1.397199059E1,1.840333614E1
7.693334950E-1,3.699004650E0,-1.132642555E1,1.384517097E1,1.826634365E1
7.717201620E-1,3.622135162E0,-1.126181984E1,1.364866066E1,1.806195967E1
7.741068280E-1,3.528815269E0,-1.118524933E1,1.339502144E1,1.780418319E1
7.764934950E-1,3.413959742E0,-1.108235836E1,1.311476135E1,1.750630610E1
7.788802140E-1,3.279961586E0,-1.096271706E1,1.279173088E1,1.716297446E1
7.812668800E-1,3.131606579E0,-1.083799076E1,1.244925785E1,1.680038763E1
7.836535470E-1,2.961417198E0,-1.071356392E1,1.208076286E1,1.641631125E1
7.860402660E-1,2.777169704E0,-1.058674431E1,1.171436214E1,1.603178428E1
7.884269330E-1,2.588136673E0,-1.046471119E1,1.135035419E1,1.565372710E1
7.908135990E-1,2.396411896E0,-1.034716320E1,1.100100231E1,1.529145605E1
7.932002660E-1,2.204986095E0,-1.024187946E1,1.067049313E1,1.495384506E1
7.955869850E-1,2.008774519E0,-1.014377308E1,1.037109184E1,1.464550625E1
7.979736510E-1,1.819442511E0,-1.005763149E1,1.010309505E1,1.437145963E1
8.003603180E-1,1.639980793E0,-9.981060982E0,9.880562782E0,1.413989520E1
8.027470370E-1,1.465304732E0,-9.921240807E0,9.693623543E0,1.394792008E1
8.051337030E-1,1.299900889E0,-9.875777245E0,9.535696983E0,1.378949729E1
8.075203700E-1,1.161117196E0,-9.842277527E0,9.408877373E0,1.366548914E1
8.099070370E-1,1.053440213E0,-9.820742607E0,9.303593636E0,1.356884579E1
8.122937550E-1,9.816554785E-1,-9.813264847E0,9.221938133E0,1.350214640E1
8.146804220E-1,9.361918569E-1,-9.827920914E0,9.159725189E0,1.346718420E1
8.170670890E-1,9.074779749E-1,-9.859027863E0,9.104690552E0,1.345062589E1
8.194538080E-1,8.907282352E-1,-9.906884193E0,9.047262192E0,1.344591776E1
8.218404740E-1,8.835497499E-1,-9.957133293E0,8.985049248E0,1.344084348E1
8.242271410E-1,8.859425783E-1,-9.997811317E0,8.932407379E0,1.343610907E1
8.266138080E-1,9.050851464E-1,-1.006241703E1,8.891729355E0,1.345861310E1
8.290005260E-1,9.385846853E-1,-1.015334511E1,8.853444099E0,1.350388205E1
8.313871930E-1,9.984052777E-1,-1.026341438E1,8.824729919E0,1.357241121E1
8.337738600E-1,1.091725349E0,-1.038574791E1,8.786444664E0,1.364760908E1
8.361605780E-1,1.220937729E0,-1.050778198E1,8.752944946E0,1.373019360E1
8.385472450E-1,1.381256819E0,-1.061067295E1,8.736195564E0,1.381359344E1
8.409339120E-1,1.572981834E0,-1.070399284E1,8.721838951E0,1.389676974E1
8.433205780E-1,1.793121457E0,-1.078295612E1,8.690432549E0,1.396463552E1
8.457072970E-1,2.047059774E0,-1.086670494E1,8.642576218E0,1.403459489E1
8.480939640E-1,2.329412937E0,-1.095314598E1,8.587541580E0,1.411181923E1
8.504806300E-1,2.628814697E0,-1.103450203E1,8.546863556E0,1.420280882E1
8.528672970E-1,2.937488794E0,-1.111346436E1,8.518149376E0,1.430722891E1
8.552540160E-1,3.253640652E0,-1.118285656E1,8.477471352E0,1.440520666E1
8.576406830E-1,3.583850145E0,-1.125464153E1,8.434400558E0,1.451378830E1
8.600273490E-1,3.926322937E0,-1.133121204E1,8.393722534E0,1.463786037E1
8.624140160E-1,4.283152580E0,-1.142453194E1,8.369794846E0,1.479590456E1
8.648007350E-1,4.656432629E0,-1.153729343E1,8.376973152E0,1.499883942E1
8.671874010E-1,5.049154758E0,-1.166172028E1,8.408080101E0,1.523763415E1
8.695740680E-1,5.453841209E0,-1.178853989E1,8.465507507E0,1.550415667E1
8.719607870E-1,5.860620975E0,-1.191057396E1,8.554041862E0,1.579177895E1
8.743474530E-1,6.272485256E0,-1.202064323E1,8.673683167E0,1.609573592E1
8.767341200E-1,6.689135551E0,-1.211904812E1,8.836693764E0,1.642263738E1
8.791207870E-1,7.105785847E0,-1.219801140E1,9.016156197E0,1.675036558E1
8.815075050E-1,7.505387306E0,-1.226501083E1,9.202795982E0,1.707198826E1
8.838941720E-1,7.893323898E0,-1.232483101E1,9.392127991E0,1.739017222E1
8.862808390E-1,8.262117386E0,-1.238465214E1,9.569196701E0,1.769778850E1
8.886675580E-1,8.613862038E0,-1.244207954E1,9.751050949E0,1.800241532E1
8.910542240E-1,8.953942299E0,-1.248515034E1,9.930811882E0,1.829407244E1
8.934408910E-1,9.291629791E0,-1.251386452E1,1.009830952E1,1.857167317E1
8.958275580E-1,9.638588905E0,-1.252104282E1,1.025623608E1,1.883797462E1
8.982142760E-1,1.000259686E1,-1.249711418E1,1.040249729E1,1.909035769E1
9.006009430E-1,1.039292622E1,-1.243250847E1,1.051735306E1,1.931825296E1
9.029876100E-1,1.079731274E1,-1.233200932E1,1.059392357E1,1.951644519E1
9.053742760E-1,1.120439243E1,-1.219561863E1,1.062263680E1,1.967516038E1
9.077609950E-1,1.160429287E1,-1.203500080E1,1.061306572E1,1.980247513E1
9.101476620E-1,1.198475170E1,-1.184596729E1,1.056520939E1,1.988931532E1
9.125343280E-1,1.234636688E1,-1.163779163E1,1.048863888E1,1.994699263E1
9.149209950E-1,1.268883896E1,-1.141735363E1,1.038335514E1,1.997940595E1
9.173077140E-1,1.302144146E1,-1.119721317E1,1.025862885E1,2.000437418E1
9.196943800E-1,1.333998585E1,-1.097468090E1,1.011745262E1,2.001903321E1
9.220810470E-1,1.362951756E1,-1.074706364E1,9.961918831E0,2.001256986E1
9.244677140E-1,1.390977669E1,-1.051256752E1,9.810872078E0,2.000622839E1
9.268544330E-1,1.419213009E1,-1.026819992E1,9.657731056E0,2.000310614E1
9.292410990E-1,1.447238922E1,-1.001216793E1,9.487840652E0,1.999281563E1
9.316277660E-1,1.477149200E1,-9.751050949E0,9.317950249E0,2.000260402E1
9.340144850E-1,1.509721565E1,-9.490233421E0,9.152546883E0,2.004394086E1
9.364011510E-1,1.543490219E1,-9.221938133E0,8.980263710E0,2.009789752E1
9.387878180E-1,1.576989746E1,-8.934800148E0,8.798408508E0,2.014776196E1
9.411744850E-1,1.610279846E1,-8.647361755E0,8.609076500E0,2.020379127E1
9.435612030E-1,1.642104530E1,-8.365009308E0,8.417651176E0,2.026032973E1
9.459478700E-1,1.672044563E1,-8.103892326E0,8.226224899E0,2.032036292E1
9.483345370E-1,1.700040627E1,-7.864609718E0,8.048856735E0,2.038749602E1
9.507212030E-1,1.726391602E1,-7.646862984E0,7.869395256E0,2.045592069E1
9.531079220E-1,1.751516342E1,-7.452745438E0,7.709076405E0,2.053665560E1
9.554945890E-1,1.775474358E1,-7.287640572E0,7.553243637E0,2.062503610E1
9.578812550E-1,1.797727585E1,-7.134500027E0,7.409674644E0,2.071199691E1
9.602679740E-1,1.819023705E1,-6.995417118E0,7.261319637E0,2.079777265E1
9.626546410E-1,1.838435555E1,-6.859025955E0,7.108178616E0,2.087000166E1
9.650413080E-1,1.855663872E1,-6.732206345E0,6.957131863E0,2.093019652E1
9.674279740E-1,1.870738602E1,-6.595815659E0,6.806384087E0,2.097136000E1
9.698146930E-1,1.883450508E1,-6.454638958E0,6.665207386E0,2.099585519E1
9.722013600E-1,1.893978882E1,-6.305984974E0,6.524031162E0,2.100104830E1
9.745880260E-1,1.902114487E1,-6.162415504E0,6.375376701E0,2.098629898E1
9.769746930E-1,1.908575249E1,-6.030810356E0,6.215057850E0,2.095861555E1
9.793614120E-1,1.912882233E1,-5.908776283E0,6.042774677E0,2.091269008E1
9.817480780E-1,1.915753555E1,-5.798407555E0,5.863013744E0,2.085683650E1
9.841347450E-1,1.917667961E1,-5.700301647E0,5.676373482E0,2.079566531E1
9.865214120E-1,1.919342804E1,-5.611767292E0,5.465805054E0,2.073052428E1
9.889081300E-1,1.921257210E1,-5.535196781E0,5.238187790E0,2.066881567E1
9.912947970E-1,1.923410606E1,-5.444269657E0,4.986941338E0,2.060243898E1
9.936814640E-1,1.924128532E1,-5.324329376E0,4.718646049E0,2.051441359E1
9.960681830E-1,1.922932053E1,-5.161617756E0,4.445864677E0,2.040036221E1
9.984548490E-1,1.920778465E1,-4.970191956E0,4.170390606E0,2.027397241E1
1.000841516E0,1.918385696E1,-4.761716843E0,3.840181351E0,2.013557320E1
1.003228183E0,1.914557266E1,-4.546362877E0,3.349353552E0,1.996097536E1
1.005614901E0,1.907139397E1,-4.323830605E0,2.870489836E0,1.976495107E1
1.008001568E0,1.900200272E1,-4.112963200E0,2.494517565E0,1.960140789E1
1.010388235E0,1.893500328E1,-3.931108475E0,2.152343988E0,1.945817432E1
1.012774901E0,1.884407616E1,-3.766003847E0,1.709372640E0,1.929258785E1
1.015161620E0,1.874327850E1,-3.638885021E0,9.816554785E-1,1.911846282E1
1.017548287E0,1.859971046E1,-3.512065411E0,-2.874378264E-1,1.893056928E1
1.019934953E0,1.837957001E1,-3.311068296E0,-1.141974568E0,1.871031461E1
1.022321620E0,1.810888100E1,-3.071486950E0,-1.505982757E0,1.842915047E1
1.024708339E0,1.780499268E1,-2.853740215E0,-1.762014747E0,1.811812058E1
1.027095005E0,1.749123383E1,-2.710170746E0,-2.255235434E0,1.784304831E1
1.029481672E0,1.721366692E1,-2.679064035E0,-3.076272726E0,1.769042585E1
1.031868391E0,1.699562073E1,-2.755634308E0,-4.050749779E0,1.768765723E1
1.034255058E0,1.674916077E1,-2.827419043E0,-5.049154758E0,1.772068420E1
1.036641724E0,1.643540192E1,-2.858525753E0,-5.796014786E0,1.766033389E1
1.039028391E0,1.606212044E1,-2.829811811E0,-6.200700760E0,1.744844514E1
1.041415110E0,1.568375587E1,-2.738884687E0,-6.255735874E0,1.710601996E1
1.043801776E0,1.533649731E1,-2.595315218E0,-6.143272877E0,1.672374397E1
1.046188443E0,1.504935932E1,-2.465803623E0,-6.143272877E0,1.644090037E1
1.048575110E0,1.481695557E1,-2.396411896E0,-6.442375660E0,1.633368196E1
1.050961828E0,1.466860104E1,-2.415554523E0,-6.856633186E0,1.637119967E1
1.053348495E0,1.459442329E1,-2.496910334E0,-7.084250450E0,1.641396835E1
1.055735162E0,1.455613804E1,-2.607279301E0,-7.103393078E0,1.640540317E1
1.058121828E0,1.454417419E1,-2.738884687E0,-6.961917400E0,1.635551241E1
1.060508547E0,1.453460312E1,-2.908775091E0,-6.787241459E0,1.630283126E1
1.062895214E0,1.451785278E1,-3.085843801E0,-6.591030121E0,1.623983249E1
1.065281880E0,1.445563984E1,-3.220141172E0,-6.423233509E0,1.614288577E1
1.067668547E0,1.435753441E1,-3.303889751E0,-6.313163280E0,1.602842826E1
1.070055266E0,1.424716473E1,-3.351746321E0,-6.183950901E0,1.588890037E1
1.072441933E0,1.412034512E1,-3.373281717E0,-6.057131290E0,1.573060759E1
1.074828599E0,1.398395443E1,-3.392424345E0,-5.913562298E0,1.555730515E1
1.077215266E0,1.384038544E1,-3.428316593E0,-5.695516109E0,1.535410458E1
1.079601985E0,1.368455315E1,-3.480958700E0,-5.396413326E0,1.511639326E1
1.081988651E0,1.351226902E1,-3.567100286E0,-5.027619362E0,1.485202259E1
1.084375318E0,1.335195065E1,-3.696611881E0,-4.532006264E0,1.457664592E1
1.086761985E0,1.318415356E1,-3.837788343E0,-3.804288864E0,1.424861882E1
1.089148703E0,1.291376495E1,-3.990929127E0,-3.588635683E0,1.398467542E1
1.091535370E0,1.256889915E1,-4.170390606E0,-3.687040567E0,1.374640505E1
1.093922037E0,1.224108219E1,-4.405186653E0,-3.746861219E0,1.353841688E1
1.096308703E0,1.192971611E1,-4.654039860E0,-3.663112402E0,1.331903172E1
1.098695422E0,1.165214920E1,-4.876871586E0,-3.428316593E0,1.308853743E1
1.101082089E0,1.141256714E1,-5.065904617E0,-3.085843801E0,1.286205700E1
1.103468755E0,1.124746323E1,-5.204688549E0,-2.667099953E0,1.267705147E1
1.105855422E0,1.114696407E1,-5.312365532E0,-2.171486616E0,1.253759904E1
1.108242141E0,1.106321526E1,-5.394020557E0,-1.663909078E0,1.242009593E1
1.110628808E0,1.092413235E1,-5.413163185E0,-1.292722464E0,1.226010337E1
1.113015474E0,1.072074318E1,-5.389235020E0,-1.268794179E0,1.206598637E1
1.115402141E0,1.048146057E1,-5.360520840E0,-1.450947881E0,1.186176417E1
1.117788860E0,1.021555805E1,-5.307579517E0,-1.685444474E0,1.163480768E1
1.120175526E0,9.930811882E0,-5.211866856E0,-1.869691849E0,1.137015076E1
1.122562193E0,9.660123825E0,-5.070690155E0,-1.912762642E0,1.107648644E1
1.124948860E0,9.428020477E0,-4.907978535E0,-1.852941990E0,1.078931033E1
1.127335578E0,9.243474007E0,-4.776372910E0,-1.730908036E0,1.054758705E1
1.129722245E0,9.126225471E0,-4.718646049E0,-1.572981834E0,1.039364632E1
1.132108912E0,9.087940216E0,-4.752145767E0,-1.374078393E0,1.034705940E1
1.134495578E0,9.138189316E0,-4.848157883E0,-1.127617717E0,1.040589547E1
1.136882297E0,9.267701149E0,-4.955834866E0,-8.763712645E-1,1.054602344E1
1.139268964E0,9.456734657E0,-5.039583683E0,-5.434698462E-1,1.072951973E1
1.141655630E0,9.674481392E0,-5.061119080E0,-1.411765367E-1,1.091926954E1
1.144042297E0,9.868598938E0,-5.027619362E0,3.185445070E-1,1.108005740E1
1.146429016E0,9.952347755E0,-4.936692238E0,7.492526174E-1,1.113469962E1
1.148815683E0,9.823135376E0,-4.812265396E0,1.077368379E0,1.099147895E1
1.151202349E0,9.456734657E0,-4.689932346E0,1.299900889E0,1.063555537E1
1.153589016E0,8.977870941E0,-4.555934429E0,1.422233939E0,1.016766711E1
1.155975735E0,8.570791245E0,-4.414757729E0,1.522732496E0,9.760494998E0
1.158362401E0,8.336295128E0,-4.340580463E0,1.642373681E0,9.541061080E0
1.160749068E0,8.278866768E0,-4.304687977E0,1.718943954E0,9.488136901E0
1.163135735E0,8.333902359E0,-4.304687977E0,1.852941990E0,9.561258344E0
1.165522453E0,8.460721970E0,-4.314259052E0,1.996810555E0,9.704838989E0
1.167909120E0,8.633005142E0,-4.314259052E0,2.145165443E0,9.886523339E0
1.170295787E0,8.805587769E0,-4.283152580E0,2.264806747E0,1.005052842E1
1.172682453E0,8.946763992E0,-4.220939159E0,2.312663078E0,1.015919898E1
1.175069172E0,9.047262192E0,-4.141676903E0,2.307877541E0,1.021433989E1
1.177455839E0,9.090332985E0,-4.077070713E0,2.250449657E0,1.021377418E1
1.179842505E0,9.059226990E0,-4.050749779E0,2.195414782E0,1.016356303E1
1.182229172E0,8.958727837E0,-4.069892406E0,2.126022816E0,1.006691619E1
1.184615891E0,8.762516975E0,-4.100998878E0,1.970489502E0,9.873334007E0
1.187002558E0,8.491828918E0,-4.091427803E0,1.752443433E0,9.587596040E0
1.189389224E0,8.192725182E0,-4.048357010E0,1.532303810E0,9.265953558E0
1.191775891E0,7.938787460E0,-4.010071754E0,1.371685624E0,8.999252373E0
1.194162610E0,7.682755470E0,-3.971786499E0,1.230509043E0,8.735786863E0
1.196549276E0,7.368996620E0,-3.916751623E0,1.110867858E0,8.418852764E0
1.198935943E0,7.050751209E0,-3.854538202E0,1.074975610E0,8.107165345E0
1.201322610E0,6.815955162E0,-3.809074640E0,1.108475089E0,7.886381389E0
1.203709328E0,6.650850773E0,-3.758825302E0,1.201795220E0,7.733491799E0
1.206095995E0,6.483353138E0,-3.694219112E0,1.338186026E0,7.581020024E0
1.208482662E0,6.325127602E0,-3.634099483E0,1.584945917E0,7.464983040E0
1.210869328E0,6.227021694E0,-3.579064369E0,1.946262121E0,7.441333025E0
1.213256047E0,6.277271271E0,-3.478565931E0,2.499303341E0,7.599412657E0
1.215642714E0,6.377769470E0,-3.339782238E0,3.227319479E0,7.889593135E0
1.218029380E0,6.241378784E0,-3.172284603E0,3.840181351E0,7.985310986E0
1.220416047E0,5.865406513E0,-3.011666298E0,4.402793884E0,7.928286160E0
1.222802766E0,5.480162144E0,-2.906382322E0,4.749752998E0,7.812770883E0
1.225189433E0,5.144867897E0,-2.844168901E0,4.759324074E0,7.563737704E0
1.227576099E0,4.754538536E0,-2.767598391E0,4.591826439E0,7.165898938E0
1.229962766E0,4.314259052E0,-2.676671267E0,4.383651257E0,6.707741690E0
1.232349485E0,3.868895054E0,-2.585743904E0,4.196712017E0,6.266323661E0
1.234736151E0,3.442673683E0,-2.506481647E0,4.041178226E0,5.870738778E0
1.237122818E0,3.014059305E0,-2.422732830E0,3.859323740E0,5.463384262E0
1.239509485E0,2.588136673E0,-2.331805706E0,3.646063566E0,5.042771938E0
1.241896203E0,2.130808592E0,-2.209771633E0,3.545564890E0,4.689825830E0
1.244282870E0,1.735693693E0,-2.087737799E0,3.330210924E0,4.296694836E0
1.246669537E0,1.410269856E0,-2.003988981E0,2.937488794E0,3.825398453E0
1.249056203E0,1.132403374E0,-1.951047778E0,2.487339020E0,3.357942857E0
1.251442922E0,9.050851464E-1,-1.905584097E0,2.075773716E0,2.959605783E0
1.253829589E0,7.277171612E-1,-1.855334878E0,1.795514345E0,2.682482347E0
1.256216255E0,6.104688644E-1,-1.797907114E0,1.651944876E0,2.516756662E0
1.258602922E0,6.056832075E-1,-1.754836321E0,1.587338686E0,2.442528764E0
1.260989641E0,7.157530785E-1,-1.730908036E0,1.572981834E0,2.445938869E0
1.263376308E0,8.955138922E-1,-1.704586983E0,1.582553029E0,2.492395635E0
1.265762974E0,1.101296663E0,-1.673480392E0,1.580160260E0,2.551528446E0
1.268149641E0,1.302293777E0,-1.628016710E0,1.556231976E0,2.601589025E0
1.270536360E0,1.472483277E0,-1.565803289E0,1.505982757E0,2.624486808E0
1.272923026E0,1.601695657E0,-1.477268934E0,1.448554993E0,2.616498433E0
1.275309693E0,1.692622900E0,-1.362114310E0,1.354935765E0,2.560503584E0
1.277696360E0,1.740479350E0,-1.232901812E0,1.237687469E0,2.466005984E0
1.280083078E0,1.738086581E0,-1.094118118E0,1.086939692E0,2.323677541E0
1.282469745E0,1.695015788E0,-9.218349457E-1,9.385846853E-1,2.145646616E0
1.284856412E0,1.632802367E0,-7.348956466E-1,7.827520967E-1,1.954179118E0
1.287243078E0,1.582553029E0,-5.458626747E-1,5.793621540E-1,1.771468502E0
1.289629797E0,1.541875124E0,-3.711866140E-1,3.400799036E-1,1.621978034E0
1.292016464E0,1.517946839E0,-2.201396823E-1,5.264209956E-2,1.534729708E0
1.294403130E0,1.517946839E0,-9.092725813E-2,-2.392822653E-1,1.539378568E0
1.296789797E0,1.525125384E0,5.024927482E-2,-5.243272781E-1,1.613521466E0
1.299176464E0,1.534696579E0,2.105683982E-1,-7.947162390E-1,1.741036054E0
1.301563183E0,1.553839207E0,3.975076675E-1,-1.039083242E0,1.911052749E0
1.303949849E0,1.613659739E0,5.865406394E-1,-1.211366415E0,2.101270156E0
1.306336516E0,1.730908036E0,7.540382147E-1,-1.352542996E0,2.322496247E0
1.308723183E0,1.872084618E0,8.476574421E-1,-1.482054472E0,2.533714548E0
1.311109901E0,2.011167526E0,8.066803217E-1,-1.663909078E0,2.732054425E0
1.313496568E0,2.159522533E0,7.181459069E-1,-1.862513304E0,2.940786786E0
1.315883235E0,2.260020971E0,6.176473498E-1,-2.130808592E0,3.166943052E0
1.318269901E0,2.257628202E0,5.458626747E-1,-2.451446772E0,3.377046407E0
1.320656620E0,2.343769789E0,5.578267574E-1,-2.681456804E0,3.604807638E0
1.323043287E0,2.350948334E0,6.367899179E-1,-3.047558784E0,3.901291326E0
1.325429953E0,2.281556368E0,8.644071817E-1,-3.275176048E0,4.084051589E0
1.327816620E0,2.159522533E0,1.161117196E0,-3.488137245E0,4.263664170E0
1.330203339E0,1.939083695E0,1.474876046E0,-3.629313707E0,4.371180952E0
1.332590005E0,1.795514345E0,1.759621978E0,-3.823431492E0,4.575890038E0
1.334976672E0,1.754836321E0,1.996810555E0,-4.081856251E0,4.871165503E0
1.337363339E0,1.800299883E0,2.209771633E0,-4.335794449E0,5.188765156E0
1.339750005E0,1.977667928E0,2.429911375E0,-4.469792843E0,5.458451042E0
1.342136724E0,2.398804665E0,2.561815739E0,-4.376472473E0,5.609872994E0
1.344523391E0,2.961417198E0,2.602493763E0,-4.342973232E0,5.865524879E0
1.346910058E0,3.394817114E0,2.676671267E0,-4.405186653E0,6.172116473E0
1.349296724E0,3.737289906E0,2.851347208E0,-4.386044025E0,6.429222265E0
1.351683391E0,4.153641224E0,3.006880760E0,-4.151247978E0,6.597494001E0
1.354070110E0,4.613361835E0,3.066701412E0,-3.809074640E0,6.722857621E0
1.356456776E0,5.015655518E0,3.095714331E0,-3.571886063E0,6.891924081E0
1.358843443E0,5.425127029E0,3.107678413E0,-3.445066452E0,7.138497830E0
1.361230110E0,5.920740604E0,3.073879719E0,-3.334996462E0,7.458291174E0
1.363616828E0,6.507281303E0,3.018844843E0,-3.210569859E0,7.859128003E0
1.366003495E0,7.203891754E0,2.954238653E0,-2.956631422E0,8.328580419E0
1.368390162E0,7.974679470E0,2.899203777E0,-2.496910334E0,8.845080916E0
1.370776828E0,8.798408508E0,2.836990356E0,-1.927119493E0,9.443214289E0
1.373163547E0,9.823135376E0,2.695813894E0,-1.307079315E0,1.026985187E1
1.375550214E0,1.143649578E1,2.307877541E0,-7.492526174E-1,1.169106984E1
1.377936880E0,1.309801197E1,1.893620014E0,-3.305086195E-1,1.323831373E1
1.380323547E0,1.453460312E1,1.570588946E0,3.349951655E-2,1.461925305E1
1.382710266E0,1.560957813E1,1.388435364E0,4.262215197E-1,1.567700057E1
1.385096933E0,1.637558174E1,1.299900889E0,9.026923180E-1,1.645187749E1
1.387483599E0,1.695972824E1,1.228116274E0,1.486840129E0,1.706901711E1
1.389870266E0,1.744337845E1,1.141974568E0,2.109273195E0,1.760751519E1
1.392256985E0,1.787677765E1,1.005583763E0,2.640778780E0,1.809873173E1
1.394643651E0,1.831974983E1,7.899305820E-1,2.994916677E0,1.857974031E1
1.397030318E0,1.870499420E1,5.386841893E-1,3.210569859E0,1.898617254E1
1.399416985E0,1.900678825E1,2.751746178E-1,3.337389469E0,1.929953080E1
1.401803703E0,1.920539284E1,2.632104978E-2,3.421138287E0,1.950774190E1
1.404190370E0,1.927239227E1,-2.225325108E-1,3.488137245E0,1.958677426E1
1.406577037E0,1.919103622E1,-4.692923427E-1,3.564707518E0,1.952493909E1
1.408963703E0,1.895653915E1,-7.181459069E-1,3.651148319E0,1.931830723E1
1.411350370E0,1.860928154E1,-1.003190875E0,3.737289906E0,1.900734298E1
1.413737089E0,1.823809433E1,-1.354935765E0,3.794717550E0,1.867789648E1
1.416123755E0,1.787199211E1,-1.757229090E0,3.825824261E0,1.836117881E1
1.418510422E0,1.752952003E1,-2.207378864E0,3.861716747E0,1.808506152E1
1.420897089E0,1.725913048E1,-2.729313374E0,3.895216227E0,1.790249831E1
1.423283808E0,1.707219124E1,-3.315854073E0,3.943072557E0,1.783262244E1
1.425670474E0,1.696451378E1,-3.947858334E0,3.976572037E0,1.786598551E1
1.428057141E0,1.693101501E1,-4.632504463E0,3.983750582E0,1.799971210E1
1.430443808E0,1.714427567E1,-5.554339409E0,4.036392689E0,1.846806271E1
1.432830526E0,1.760369682E1,-6.784848690E0,4.100998878E0,1.930654048E1
1.435217193E0,1.796052742E1,-7.936394691E0,4.002892971E0,2.003971202E1
1.437603860E0,1.797727585E1,-8.815158844E0,3.751646757E0,2.037067318E1
1.439990526E0,1.763241005E1,-9.380164146E0,3.428316593E0,2.026432131E1
1.442377193E0,1.706022644E1,-9.715159416E0,3.078665495E0,1.987243895E1
1.444763912E0,1.641147232E1,-9.947562218E0,2.693420887E0,1.937898176E1
1.447150578E0,1.575075531E1,-1.017727280E1,2.185843468E0,1.887964740E1
1.449537245E0,1.507807255E1,-1.052453136E1,1.448554993E0,1.844484599E1
1.451923912E0,1.442931843E1,-1.112303638E1,4.238287210E-1,1.822379761E1
1.454310630E0,1.391456318E1,-1.196560860E1,-6.798607111E-1,1.836445121E1
1.456697297E0,1.356012630E1,-1.294247818E1,-1.639980793E0,1.881686222E1
1.459083964E0,1.333520031E1,-1.391456318E1,-2.341377020E0,1.941454821E1
1.461470630E0,1.319163132E1,-1.477149200E1,-2.901596546E0,2.001587808E1
1.463857297E0,1.311236858E1,-1.545643806E1,-3.404388428E0,2.055299365E1
1.466244016E0,1.304297733E1,-1.592782402E1,-3.770789385E0,2.092925437E1
1.468630683E0,1.293769264E1,-1.622004700E1,-3.957429647E0,2.112190959E1
1.471017349E0,1.275823116E1,-1.638275909E1,-4.057928085E0,2.115736369E1
1.473404016E0,1.250907898E1,-1.643779373E1,-4.151247978E0,2.106919504E1
1.475790735E0,1.222433281E1,-1.641386604E1,-4.228117466E0,2.089799723E1
1.478177401E0,1.192493057E1,-1.632772446E1,-4.299902439E0,2.067093893E1
1.480564068E0,1.158514977E1,-1.619611931E1,-4.376472473E0,2.038831742E1
1.482950735E0,1.118764210E1,-1.607169151E1,-4.505684853E0,2.009387468E1
1.485337453E0,1.079731274E1,-1.592782402E1,-4.687539577E0,1.980531665E1
1.487724120E0,1.046471119E1,-1.581057549E1,-4.912764072E0,1.958621271E1
1.490110787E0,1.022273636E1,-1.568614864E1,-5.120939732E0,1.941091501E1
1.492497453E0,1.007198906E1,-1.557847214E1,-5.247759342E0,1.927881573E1
1.494884120E0,1.001456070E1,-1.547797298E1,-5.195116997E0,1.915328469E1
1.497270839E0,1.007916737E1,-1.536999702E1,-4.994120121E0,1.904646054E1
1.499657505E0,1.027537823E1,-1.523839188E1,-4.706682205E0,1.897221237E1
1.502044172E0,1.057717323E1,-1.509003735E1,-4.417150497E0,1.894985592E1
1.504430839E0,1.094836044E1,-1.490100384E1,-4.146462440E0,1.894992513E1
1.506817558E0,1.135513973E1,-1.465424442E1,-3.897608995E0,1.894406065E1
1.509204224E0,1.176700401E1,-1.433839130E1,-3.679862022E0,1.891013572E1
1.511590891E0,1.214776230E1,-1.395045471E1,-3.464209080E0,1.881977843E1
1.513977558E0,1.249711418E1,-1.350269794E1,-3.248854876E0,1.868303435E1
1.516364224E0,1.279173088E1,-1.302622700E1,-3.040380239E0,1.850823819E1
1.518750943E0,1.300947762E1,-1.251386452E1,-2.848954439E0,1.827456851E1
1.521137610E0,1.314347553E1,-1.197996521E1,-2.671885490E0,1.798358940E1
1.523524276E0,1.320120239E1,-1.143171024E1,-2.492124796E0,1.763991014E1
1.525910943E0,1.319402409E1,-1.085713387E1,-2.324627161E0,1.724423146E1
1.528297662E0,1.311954784E1,-1.027777100E1,-2.166700840E0,1.680624006E1
1.530684328E0,1.298315620E1,-9.729516029E0,-2.044667006E0,1.635256831E1
1.533070995E0,1.277019501E1,-9.209974289E0,-1.955833435E0,1.586590027E1
1.535457662E0,1.248515034E1,-8.717052460E0,-1.888834357E0,1.534384821E1
1.537844328E0,1.214058399E1,-8.264510155E0,-1.833799481E0,1.480063270E1
1.540231047E0,1.173829079E1,-7.862216949E0,-1.783550143E0,1.424018880E1
1.542617714E0,1.127856922E1,-7.514958382E0,-1.718943954E0,1.366146008E1
1.545004380E0,1.078056335E1,-7.220641613E0,-1.628016710E0,1.307702757E1
1.547391047E0,1.026819992E1,-6.969096184E0,-1.525125384E0,1.250320913E1
1.549777714E0,9.755837440E0,-6.768098831E0,-1.407876968E0,1.195682414E1
1.552164433E0,9.245866776E0,-6.614958286E0,-1.290329576E0,1.144153294E1
1.554551099E0,8.736195564E0,-6.516852379E0,-1.161117196E0,1.096077876E1
1.556937766E0,8.223832130E0,-6.464210510E0,-1.022333503E0,1.051011885E1
1.559324433E0,7.713861942E0,-6.457031727E0,-8.500502706E-1,1.009551932E1
1.561711151E0,7.206284523E0,-6.488138676E0,-6.415755749E-1,9.717926699E0
1.564097818E0,6.710670948E0,-6.559923172E0,-3.855435550E-1,9.392248955E0
1.566484485E0,6.234200478E0,-6.595815659E0,-5.024927482E-2,9.075933274E0
1.568871151E0,5.851049423E0,-6.552744865E0,3.831507266E-1,8.793181967E0
1.571257818E0,5.547161102E0,-6.509674072E0,7.803592682E-1,8.588120482E0
1.573644537E0,5.269294739E0,-6.473781586E0,1.132403374E0,8.423636534E0
1.576031203E0,5.015655518E0,-6.451947212E0,1.472483277E0,8.303772041E0
1.578417870E0,4.802694321E0,-6.447161674E0,1.802692771E0,8.239021035E0
1.580804537E0,4.634897232E0,-6.459424496E0,2.123630047E0,8.228987893E0
1.583191255E0,4.536791801E0,-6.502495766E0,2.425125837E0,8.291330795E0
1.585577922E0,4.520041943E0,-6.555137634E0,2.686242580E0,8.403362884E0
1.587964589E0,4.596612453E0,-6.610172749E0,2.899203777E0,8.557371814E0
1.590351255E0,4.790730000E0,-6.686742783E0,3.049951553E0,8.773017009E0
1.592737922E0,5.094618320E0,-6.768098831E0,3.148356438E0,9.037391542E0
1.595124641E0,5.496912003E0,-6.842276573E0,3.191427231E0,9.339057663E0
1.597511308E0,5.973382473E0,-6.916453838E0,3.184248686E0,9.677710037E0
1.599897974E0,6.483353138E0,-6.952346325E0,3.136392355E0,1.001029192E1
1.602284641E0,6.949953556E0,-6.921239376E0,3.049951553E0,1.027168990E1
1.604671308E0,7.313961506E0,-6.818347931E0,2.918346405E0,1.041636439E1
1.607058026E0,7.548458099E0,-6.655636311E0,2.741277456E0,1.043030759E1
1.609444693E0,7.682755470E0,-6.432804585E0,2.545065880E0,1.033842671E1
1.611831360E0,7.768897057E0,-6.174379826E0,2.382055044E0,1.020553350E1
1.614218026E0,7.859824181E0,-5.892026424E0,2.319841623E0,1.009328870E1
1.616604693E0,7.977072716E0,-5.563910961E0,2.389233351E0,1.001495034E1
1.618991412E0,8.118248940E0,-5.183153152E0,2.571387053E0,9.969105969E0
1.621378078E0,8.257331848E0,-4.754538536E0,2.822633505E0,9.937626771E0
1.623764745E0,8.410472870E0,-4.283152580E0,3.078665495E0,9.927720340E0
1.626151412E0,8.582756042E0,-3.806681633E0,3.284747362E0,9.947064470E0
1.628538130E0,8.755337715E0,-3.330210924E0,3.418745279E0,9.971662980E0
1.630924797E0,8.963513374E0,-2.872882605E0,3.468994617E0,1.003154774E1
1.633311464E0,9.229117393E0,-2.456232548E0,3.430709362E0,1.014787923E1
1.635698130E0,9.542876244E0,-2.082952023E0,3.294318676E0,1.030813813E1
1.638084797E0,9.875777245E0,-1.764407635E0,3.064308405E0,1.048971384E1
1.640471516E0,1.020837975E1,-1.508375525E0,2.765205622E0,1.068328488E1
1.642858183E0,1.053888798E1,-1.316650629E0,2.422732830E0,1.089363865E1
1.645244849E0,1.086431217E1,-1.180259824E0,2.061416626E0,1.112095907E1
1.647631516E0,1.111585712E1,-1.089332461E0,1.647159338E0,1.128990960E1
1.650018183E0,1.129531956E1,-1.041476011E0,1.185045362E0,1.140496597E1
1.652404901E0,1.131685448E1,-9.960124493E-1,7.013961077E-1,1.138223144E1
1.654791568E0,1.113978577E1,-9.361918569E-1,2.009970993E-1,1.118086231E1
1.657178235E0,1.085234833E1,-8.907282352E-1,-2.970091105E-1,1.089289105E1
1.659564901E0,1.048385334E1,-8.620143533E-1,-7.923234105E-1,1.054902962E1
1.661951620E0,1.004088211E1,-8.524430394E-1,-1.283151150E0,1.015836845E1
1.664338287E0,9.550054550E0,-8.620143533E-1,-1.745265007E0,9.746412704E0
1.666724953E0,9.035298347E0,-9.026923180E-1,-2.200200319E0,9.343037573E0
1.669111620E0,8.510971069E0,-9.553344250E-1,-2.614457846E0,8.954590009E0
1.671498287E0,8.010572433E0,-1.027119160E0,-2.968595505E0,8.604464176E0
1.673884953E0,7.560422421E0,-1.120439172E0,-3.265604734E0,8.311410554E0
1.676271672E0,7.158428192E0,-1.235294700E0,-3.497708559E0,8.062444564E0
1.678658339E0,6.803991318E0,-1.364507079E0,-3.684647799E0,7.857022771E0
1.681045005E0,6.464210510E0,-1.501197100E0,-3.823431492E0,7.658866667E0
1.683431672E0,6.116951942E0,-1.625623941E0,-3.919144392E0,7.444423888E0
1.685818391E0,5.781657696E0,-1.747657895E0,-4.005286217E0,7.247357553E0
1.688205058E0,5.475376606E0,-1.874477386E0,-4.089034557E0,7.086156791E0
1.690591724E0,5.207081318E0,-2.008774519E0,-4.175176620E0,6.970005074E0
1.692978391E0,4.958227634E0,-2.142772675E0,-4.256831646E0,6.877216855E0
1.695365058E0,4.716253281E0,-2.276770830E0,-4.333401680E0,6.797433379E0
1.697751776E0,4.510470867E0,-2.405983210E0,-4.431507587E0,6.765453580E0
1.700138443E0,4.340580463E0,-2.537887573E0,-4.515256405E0,6.757888168E0
1.702525110E0,4.191926003E0,-2.652743101E0,-4.565505505E0,6.741893657E0
1.704911776E0,4.065106392E0,-2.750848770E0,-4.594219685E0,6.723028592E0
1.707298495E0,3.947858334E0,-2.834597588E0,-4.601397991E0,6.692786593E0
1.709685162E0,3.840181351E0,-2.892025232E0,-4.567898273E0,6.631477768E0
1.712071828E0,3.758825302E0,-2.927917719E0,-4.512863636E0,6.562576325E0
1.714458495E0,3.722932816E0,-2.956631422E0,-4.448257446E0,6.510675266E0
1.716845162E0,3.746861219E0,-2.978166819E0,-4.383651257E0,6.490365547E0
1.719231828E0,3.828217030E0,-3.009273529E0,-4.287938118E0,6.488249849E0
1.721618547E0,3.969393730E0,-3.049951553E0,-4.151247978E0,6.503164679E0
1.724005214E0,4.196712017E0,-3.110071182E0,-3.964607954E0,6.557671137E0
1.726391880E0,4.541577339E0,-3.198605776E0,-3.694219112E0,6.671151212E0
1.728778547E0,5.003691196E0,-3.325425386E0,-3.318246841E0,6.863391413E0
1.731165266E0,5.587839127E0,-3.519243956E0,-2.815454960E0,7.178844667E0
1.733551933E0,6.243771553E0,-3.785146236E0,-2.197807550E0,7.625114640E0
1.735938599E0,6.892525673E0,-4.100998878E0,-1.513161182E0,8.161786491E0
1.738325266E0,7.450352192E0,-4.445864677E0,-7.995018363E-1,8.712787367E0
1.740711933E0,7.838288784E0,-4.802694321E0,-9.571290761E-2,9.193139005E0
1.743098599E0,8.022536278E0,-5.209474087E0,6.607181430E-1,9.588339640E0
1.745485318E0,7.998608112E0,-5.724229813E0,1.553839207E0,9.957858955E0
1.747871985E0,7.802396297E0,-6.329913139E0,2.496910334E0,1.035276531E1
1.750258651E0,7.469494820E0,-6.964310169E0,3.287140131E0,1.072847889E1
1.752645318E0,7.012166977E0,-7.546065331E0,3.780360699E0,1.097290822E1
1.755032037E0,6.457031727E0,-7.972286701E0,3.902394533E0,1.097630617E1
1.757418703E0,5.848656654E0,-8.202297211E0,3.655933857E0,1.071682400E1
1.759805370E0,5.242973328E0,-8.242975235E0,3.119642496E0,1.025512454E1
1.762192037E0,4.680361271E0,-8.144868851E0,2.415554523E0,9.699462556E0
1.764578703E0,4.201497555E0,-7.960322857E0,1.687837243E0,9.157953715E0
1.766965422E0,3.835395575E0,-7.742575645E0,1.074975610E0,8.707083863E0
1.769352089E0,3.555136204E0,-7.514958382E0,6.367899179E-1,8.337811122E0
1.771738755E0,3.334996462E0,-7.290033340E0,3.687937856E-1,8.025135286E0
1.774125422E0,3.153141975E0,-7.067500591E0,2.368894368E-1,7.742608445E0
1.776512089E0,2.999702215E0,-6.839883327E0,2.129612118E-1,7.471784913E0
1.778898808E0,2.860918522E0,-6.624529362E0,2.656033039E-1,7.220788680E0
1.781285474E0,2.729313374E0,-6.420840263E0,3.640081584E-1,6.986332594E0
1.783672141E0,2.592922449E0,-6.227021694E0,4.908277392E-1,6.763132253E0
1.786058808E0,2.461018085E0,-6.049952984E0,6.128616929E-1,6.560041203E0
1.788445474E0,2.331805706E0,-5.892026424E0,7.157530785E-1,6.376958186E0
1.790832193E0,2.212164640E0,-5.752943993E0,8.090731502E-1,6.216481026E0
1.793218860E0,2.104487419E0,-5.640480995E0,8.835497499E-1,6.084780466E0
1.795605526E0,2.013560295E0,-5.556732178E0,9.385846853E-1,5.984366196E0
1.797992193E0,1.931905150E0,-5.513661385E0,9.625129104E-1,5.921076800E0
1.800378860E0,1.867298961E0,-5.504090309E0,9.672985673E-1,5.892154280E0
1.802765578E0,1.819442511E0,-5.528018475E0,9.529415965E-1,5.897241473E0
1.805152245E0,1.785943031E0,-5.583053589E0,9.337990284E-1,5.935660074E0
1.807538912E0,1.771586061E0,-5.673980713E0,9.170492887E-1,6.014445419E0
1.809925578E0,1.800299883E0,-5.784050465E0,9.050851464E-1,6.124989679E0
1.812312245E0,1.886441588E0,-5.882156372E0,9.098708034E-1,6.243900250E0
1.814698964E0,2.037488461E0,-5.985346794E0,9.194421172E-1,6.389139948E0
1.817085630E0,2.231307030E0,-6.093023777E0,9.218349457E-1,6.553888119E0
1.819472297E0,2.451446772E0,-6.205486298E0,9.170492887E-1,6.734881652E0
1.821858964E0,2.686242580E0,-6.317949295E0,9.122636318E-1,6.925648521E0
1.824245630E0,2.923131943E0,-6.432804585E0,9.170492887E-1,7.125072251E0
1.826632297E0,3.160320520E0,-6.550352097E0,9.170492887E-1,7.330465045E0
1.829019016E0,3.406781197E0,-6.667600155E0,8.979067206E-1,7.541172749E0
1.831405683E0,3.675076485E0,-6.796812534E0,8.353942037E-1,7.771790738E0
1.833792349E0,3.952643871E0,-6.918846607E0,7.468597889E-1,8.003226318E0
1.836179016E0,4.230510235E0,-7.034001350E0,6.631109715E-1,8.234932180E0
1.838565735E0,4.500899315E0,-7.136892796E0,5.817549825E-1,8.457645788E0
1.840952401E0,4.759324074E0,-7.232605457E0,5.243272781E-1,8.673907218E0
1.843339068E0,5.015655518E0,-7.335496902E0,4.740779996E-1,8.898936174E0
1.845725735E0,5.278865814E0,-7.433602810E0,3.999004960E-1,9.126050374E0
1.848112401E0,5.535196781E0,-7.512565613E0,3.089732230E-1,9.336621977E0
1.850499068E0,5.764907837E0,-7.572386265E0,2.321037948E-1,9.519930057E0
1.852885787E0,5.968596935E0,-7.615756035E0,1.794617027E-1,9.677607962E0
1.855272453E0,6.150451660E0,-7.651648521E0,1.483550072E-1,9.818237618E0
1.857659120E0,6.305984974E0,-7.680362701E0,1.435693651E-1,9.938512458E0
1.860045787E0,6.432804585E0,-7.716254711E0,1.770688742E-1,1.004753278E1
1.862432453E0,6.533602238E0,-7.764111042E0,2.321037948E-1,1.015003698E1
1.864819172E0,6.631708145E0,-7.823931694E0,3.209373355E-1,1.026140638E1
1.867205839E0,6.720242500E0,-7.888537884E0,4.022932947E-1,1.037075355E1
1.869592505E0,6.799205780E0,-7.950751305E0,4.740779996E-1,1.047226793E1
1.871979172E0,6.870990276E0,-8.001000404E0,5.243272781E-1,1.055942394E1
1.874365839E0,6.916453838E0,-8.056035995E0,5.458626747E-1,1.063179269E1
1.876752558E0,6.921239376E0,-8.106285095E0,5.458626747E-1,1.067302106E1
1.879139224E0,6.897311211E0,-8.130212784E0,5.338985324E-1,1.067512574E1
1.881525891E0,6.851847649E0,-8.147261620E0,5.386841893E-1,1.065907448E1
1.883912558E0,6.794419765E0,-8.166404724E0,5.578267574E-1,1.063792634E1
1.886299224E0,6.715456963E0,-8.171190262E0,5.434698462E-1,1.059061245E1
1.888685943E0,6.622136593E0,-8.159226418E0,5.027918816E-1,1.052038348E1
1.891072610E0,6.528816700E0,-8.113463402E0,4.381856322E-1,1.042332685E1
1.893459276E0,6.425626278E0,-8.048856735E0,3.185445070E-1,1.030408843E1
1.895845943E0,6.313163280E0,-7.991429329E0,1.770688742E-1,1.018579043E1
1.898232610E0,6.191129684E0,-7.950751305E0,3.828516230E-2,1.007700346E1
1.900619328E0,6.049952984E0,-7.924430370E0,-1.004985496E-1,9.970387543E0
1.903005995E0,5.892026424E0,-7.905287743E0,-2.273181528E-1,9.862110485E0
1.905392662E0,5.717051506E0,-7.869395256E0,-3.400799036E-1,9.732816343E0
1.907779328E0,5.523232937E0,-7.811967850E0,-4.525425732E-1,9.577981966E0
1.910165995E0,5.326722145E0,-7.721040249E0,-5.434698462E-1,9.395945445E0
1.912552662E0,5.130510807E0,-7.579864025E0,-6.032904387E-1,9.172809773E0
1.914939380E0,4.946263313E0,-7.388139248E0,-6.487540603E-1,8.914651095E0
1.917326047E0,4.812265396E0,-7.199106216E0,-6.559324861E-1,8.684196911E0
1.919712714E0,4.754538536E0,-7.045965195E0,-5.817549825E-1,8.519958983E0
1.922099380E0,4.747360229E0,-6.940382004E0,-4.214358926E-1,8.419260046E0
1.924486047E0,4.764110088E0,-6.911668301E0,-1.579262912E-1,8.396001688E0
1.926872766E0,4.773980141E0,-6.921239376E0,1.507478207E-1,8.409349903E0
1.929259433E0,4.768895626E0,-6.949953556E0,4.645066857E-1,8.441563030E0
1.931646099E0,4.764110088E0,-7.024429798E0,7.779664397E-1,8.523179612E0
1.934032766E0,4.747360229E0,-7.146463871E0,1.000798106E0,8.637764286E0
1.936419433E0,4.709074974E0,-7.297211647E0,1.031904817E0,8.745828290E0
1.938806151E0,4.644468784E0,-7.443173885E0,6.702894568E-1,8.798932647E0
1.941192818E0,4.570291042E0,-7.567600727E0,-1.914258152E-1,8.842668422E0
1.943579485E0,4.601397991E0,-7.694719315E0,-1.491625786E0,9.088812700E0
1.945966151E0,4.752145767E0,-7.828717709E0,-2.825026274E0,9.583970148E0
1.948352818E0,4.744967461E0,-7.984251022E0,-3.177070379E0,9.816147757E0
1.950739537E0,4.649254322E0,-8.101499557E0,-2.549851656E0,9.682541211E0
1.953126203E0,4.510470867E0,-8.178368568E0,-1.522732496E0,9.463021406E0
1.955512870E0,4.347758770E0,-8.221439362E0,-4.381856322E-1,9.310589570E0
1.957899537E0,4.170390606E0,-8.298009872E0,5.650052428E-1,9.304211765E0
1.960286203E0,4.000500202E0,-8.415258408E0,1.465304732E0,9.432268756E0
1.962672870E0,3.864109516E0,-8.604290962E0,2.252842426E0,9.697446278E0
1.965059589E0,3.782753468E0,-8.889336586E0,2.915953398E0,1.009119978E1
1.967446255E0,3.739682674E0,-9.219545364E0,3.404388428E0,1.051546974E1
1.969832922E0,3.703790426E0,-9.506983757E0,3.708575964E0,1.085607385E1
1.972219589E0,3.648755312E0,-9.650552750E0,3.835395575E0,1.100712691E1
1.974606255E0,3.567100286E0,-9.617053032E0,3.787539244E0,1.093422914E1
1.976992974E0,3.464209080E0,-9.408877373E0,3.564707518E0,1.064118685E1
1.979379641E0,3.325425386E0,-9.087940216E0,3.212962627E0,1.019667790E1
1.981766308E0,3.153141975E0,-8.692825317E0,2.805883646E0,9.663358596E0
1.984152974E0,2.951845884E0,-8.250153542E0,2.358126640E0,9.074094381E0
1.986539641E0,2.736491680E0,-7.754539967E0,1.864906192E0,8.432031304E0
1.988926360E0,2.516052961E0,-7.225427151E0,1.345364571E0,7.768354127E0
1.991313026E0,2.298306227E0,-6.696314335E0,8.353942037E-1,7.128865314E0
1.993699693E0,2.082952023E0,-6.188736439E0,3.568296731E-1,6.539608188E0
1.996086360E0,1.872084618E0,-5.705087185E0,-6.699903309E-2,6.004765564E0
1.998473026E0,1.673480392E0,-5.266901970E0,-4.573282301E-1,5.545263032E0
2.000859745E0,1.489233017E0,-4.876871586E0,-7.827520967E-1,5.158913867E0
2.003246412E0,1.331007600E0,-4.541577339E0,-1.060618639E0,4.849991532E0
2.005633078E0,1.199402332E0,-4.283152580E0,-1.311864972E0,4.637343171E0
2.008019745E0,1.089332461E0,-4.093820572E0,-1.553839207E0,4.512253136E0
2.010406412E0,1.012762189E0,-3.974179268E0,-1.826620936E0,4.489580398E0
2.012793078E0,9.601200819E-1,-3.909573078E0,-2.104487419E0,4.542626941E0
2.015179797E0,9.337990284E-1,-3.888037682E0,-2.389233351E0,4.658031091E0
2.017566464E0,9.194421172E-1,-3.900001764E0,-2.659921408E0,4.809425066E0
2.019953130E0,8.955138922E-1,-3.926322937E0,-2.889632463E0,4.956604958E0
2.022339797E0,8.572286963E-1,-3.957429647E0,-3.083451033E0,5.089573727E0
2.024726464E0,8.042874932E-1,-3.998107433E0,-3.244069338E0,5.211115743E0
2.027113183E0,7.372884750E-1,-4.036392689E0,-3.378067255E0,5.314828183E0
2.029499849E0,6.583253145E-1,-4.067499161E0,-3.483351469E0,5.395523987E0
2.031886516E0,5.745765567E-1,-4.096213341E0,-3.552743435E0,5.452622109E0
2.034273183E0,4.812564552E-1,-4.110570431E0,-3.583850145E0,5.474703545E0
2.036659849E0,3.903291821E-1,-4.120141506E0,-3.564707518E0,5.462148166E0
2.039046516E0,3.161516786E-1,-4.129712582E0,-3.514458179E0,5.431932822E0
2.041433235E0,2.536391914E-1,-4.148855209E0,-3.425923824E0,5.386491106E0
2.043819901E0,2.057827413E-1,-4.184747696E0,-3.313461065E0,5.341674274E0
2.046206568E0,1.603191197E-1,-4.256831646E0,-3.165106058E0,5.306996725E0
2.048593235E0,1.196411327E-1,-4.350151539E0,-3.002095222E0,5.286842927E0
2.050979901E0,8.374879509E-2,-4.472185612E0,-2.844168901E0,5.300637202E0
2.053366620E0,4.067798331E-2,-4.618147850E0,-2.691028118E0,5.345145143E0
2.055753287E0,-2.632104978E-2,-4.833800793E0,-2.561815739E0,5.470760713E0
2.058139953E0,-1.220339537E-1,-5.120939732E0,-2.441875458E0,5.674651687E0
2.060526620E0,-2.201396823E-1,-5.413163185E0,-2.331805706E0,5.898145047E0
2.062913287E0,-3.257229924E-1,-5.669195175E0,-2.240878344E0,6.104703527E0
2.065299953E0,-4.501497746E-1,-5.920740604E0,-2.161915302E0,6.319151992E0
2.067686672E0,-6.008976102E-1,-6.179165363E0,-2.092523336E0,6.551474371E0
2.070073339E0,-7.827520967E-1,-6.464210510E0,-2.011167526E0,6.814947776E0
2.072460005E0,-1.000798106E0,-6.796812534E0,-1.898405671E0,7.127566315E0
2.074846672E0,-1.249651670E0,-7.172784805E0,-1.757229090E0,7.489881523E0
2.077233339E0,-1.525125384E0,-7.587042332E0,-1.587338686E0,7.899928030E0
2.079620058E0,-1.850549221E0,-8.087141991E0,-1.419841170E0,8.416789587E0
2.082006724E0,-2.233700037E0,-8.702695847E0,-1.264008522E0,9.073260075E0
2.084393391E0,-2.633600473E0,-9.425627708E0,-1.139581800E0,9.852763868E0
2.086780058E0,-3.009273529E0,-1.021795082E1,-1.070189953E0,1.070549171E1
2.089166724E0,-3.334996462E0,-1.104407310E1,-1.065404296E0,1.158571700E1
2.091553391E0,-3.602992773E0,-1.189621735E1,-1.146760225E0,1.248265209E1
2.093940110E0,-3.811467409E0,-1.277498055E1,-1.280758262E0,1.339282470E1
2.096326776E0,-3.967000723E0,-1.366301727E1,-1.441376567E0,1.430009448E1
2.098713443E0,-4.065106392E0,-1.453460312E1,-1.594517231E0,1.517637187E1
2.101100110E0,-4.122534275E0,-1.536760426E1,-1.740479350E0,1.600586823E1
2.103486776E0,-4.148855209E0,-1.612433434E1,-1.872084618E0,1.675445786E1
2.105873495E0,-4.146462440E0,-1.675394630E1,-1.965703845E0,1.737100628E1
2.108260162E0,-4.110570431E0,-1.724238014E1,-2.011167526E0,1.783931773E1
2.110646828E0,-4.036392689E0,-1.757019806E1,-2.011167526E0,1.813971115E1
2.113033495E0,-3.928715706E0,-1.778345871E1,-2.056631088E0,1.832800977E1
2.115420162E0,-3.799503326E0,-1.793181229E1,-2.066202402E0,1.844601067E1
2.117806828E0,-3.660719633E0,-1.803231239E1,-1.958226204E0,1.850404843E1
2.120193547E0,-3.500101328E0,-1.812802505E1,-1.740479350E0,1.854468307E1
2.122580214E0,-3.342175007E0,-1.832692719E1,-1.402792215E0,1.868192227E1
2.124966880E0,-3.244069338E0,-1.873370743E1,-1.074975610E0,1.904288194E1
2.127353547E0,-3.246462107E0,-1.933460426E1,-8.907282352E-1,1.962548942E1
2.129740214E0,-3.303889751E0,-2.002672958E1,-6.798607111E-1,2.030881079E1
2.132126933E0,-3.392424345E0,-2.078555298E1,-3.903291821E-1,2.106419029E1
2.134513599E0,-3.497708559E0,-2.158266258E1,-1.555334777E-1,2.186480002E1
2.136900266E0,-3.626920938E0,-2.241357040E1,-1.914258115E-2,2.270513290E1
2.139286933E0,-3.782753468E0,-2.323460770E1,2.871387079E-2,2.354054042E1
2.141673599E0,-3.971786499E0,-2.400330162E1,2.392822644E-3,2.432968521E1
2.144060266E0,-4.211368084E0,-2.464248466E1,-1.076770201E-1,2.499998532E1
2.146446985E0,-4.558327198E0,-2.499213600E1,-3.017947674E-1,2.540622540E1
2.148833651E0,-5.018048286E0,-2.498256302E1,-5.243272781E-1,2.548694141E1
2.151220318E0,-5.549553871E0,-2.465444756E1,-7.301099896E-1,2.528185897E1
2.153606985E0,-6.119344711E0,-2.405594254E1,-8.787640929E-1,2.483761215E1
2.155993651E0,-6.696314335E0,-2.323460770E1,-9.481559992E-1,2.419889709E1
2.158380318E0,-7.220641613E0,-2.221975136E1,-9.218349457E-1,2.338171926E1
2.160767037E0,-7.658827305E0,-2.107059860E1,-8.306085467E-1,2.243474251E1
2.163153703E0,-8.022536278E0,-1.985175323E1,-6.750751138E-1,2.142215958E1
2.165540370E0,-8.319544792E0,-1.859971046E1,-4.956133962E-1,2.038160169E1
2.167927037E0,-8.546863556E0,-1.734048653E1,-2.727817893E-1,1.933431559E1
2.170313703E0,-8.690432549E0,-1.609562111E1,-1.674975827E-2,1.829188119E1
2.172700422E0,-8.757730484E0,-1.489382553E1,2.608176768E-1,1.727981215E1
2.175087089E0,-8.769695282E0,-1.375424385E1,5.482555032E-1,1.632137750E1
2.177473755E0,-8.745766640E0,-1.268644619E1,8.452646136E-1,1.543207126E1
2.179860422E0,-8.695218086E0,-1.169282722E1,1.130010486E0,1.461526427E1
2.182247089E0,-8.623434067E0,-1.077817059E1,1.386042476E0,1.387276793E1
2.184633755E0,-8.539685249E0,-9.952347755E0,1.604088426E0,1.321168232E1
2.187020474E0,-8.455936432E0,-9.219545364E0,1.790728688E0,1.263762584E1
2.189407141E0,-8.379365921E0,-8.575576782E0,1.929512382E0,1.214402357E1
2.191793808E0,-8.307580948E0,-8.012965202E0,2.025524378E0,1.171862883E1
2.194180474E0,-8.235795975E0,-7.531708241E0,2.073380709E0,1.135138194E1
2.196567141E0,-8.127820015E0,-7.055536747E0,2.082952023E0,1.096269794E1
2.198953808E0,-7.912466049E0,-6.377769470E0,2.054238319E0,1.036836330E1
2.201340526E0,-7.685148239E0,-5.822335720E0,1.941476464E0,9.835162813E0
2.203727193E0,-7.457530975E0,-5.432305813E0,1.800299883E0,9.400308206E0
2.206113860E0,-7.256533623E0,-5.247759342E0,1.661516190E0,9.108067544E0
2.208500526E0,-7.103393078E0,-5.367699623E0,1.515554070E0,9.031461488E0
2.210887193E0,-6.993024349E0,-5.733801365E0,1.345364571E0,9.142695088E0
2.213273860E0,-6.875775814E0,-6.188736439E0,1.149153113E0,9.321872378E0
2.215660578E0,-6.734599113E0,-6.660421848E0,9.314061999E-1,9.517539699E0
2.218047245E0,-6.579065800E0,-7.132106781E0,7.061817646E-1,9.728810134E0
2.220433912E0,-6.439982891E0,-7.608577728E0,4.716851711E-1,9.979294644E0
2.222820578E0,-6.334698677E0,-8.072785378E0,2.249253243E-1,1.026395940E1
2.225207245E0,-6.265306950E0,-8.520542145E0,-5.264209956E-2,1.057622243E1
2.227593912E0,-6.250949860E0,-8.941978455E0,-3.687937856E-1,1.091647203E1
2.229980630E0,-6.291627884E0,-9.329915047E0,-7.468597889E-1,1.127784092E1
2.232367297E0,-6.356234074E0,-9.681659698E0,-1.182652593E0,1.164194628E1
2.234753964E0,-6.382555485E0,-9.983454704E0,-1.692622900E0,1.196960127E1
2.237140630E0,-6.370591164E0,-1.021795082E1,-2.293520451E0,1.225769908E1
2.239527297E0,-6.332305908E0,-1.036869907E1,-2.956631422E0,1.250398688E1
2.241914016E0,-6.253343105E0,-1.044078255E1,-3.612564087E0,1.269507225E1
2.244300683E0,-6.133701801E0,-1.044556808E1,-4.201497555E0,1.282126250E1
2.246687349E0,-5.990132332E0,-1.038335514E1,-4.713860512E0,1.288084742E1
2.249074016E0,-5.834300041E0,-1.025145054E1,-5.123332500E0,1.286000898E1
2.251460683E0,-5.688337803E0,-1.005523872E1,-5.425127029E0,1.276311153E1
2.253847349E0,-5.563910961E0,-9.813264847E0,-5.630909920E0,1.260810924E1
2.256234016E0,-5.461019516E0,-9.547661781E0,-5.762515068E0,1.241721223E1
2.258620735E0,-5.365306377E0,-9.270093918E0,-5.829514027E0,1.219444085E1
2.261007401E0,-5.266901970E0,-9.001798630E0,-5.846263885E0,1.195623002E1
2.263394068E0,-5.164010525E0,-8.750552177E0,-5.805585861E0,1.170230726E1
2.265780735E0,-5.056333542E0,-8.503792763E0,-5.731408596E0,1.143372401E1
2.268167401E0,-4.941477776E0,-8.271688461E0,-5.614160061E0,1.115158400E1
2.270554120E0,-4.819443703E0,-8.046463966E0,-5.477769375E0,1.086179439E1
2.272940787E0,-4.687539577E0,-7.833503246E0,-5.319543839E0,1.056571564E1
2.275327453E0,-4.546362877E0,-7.634898663E0,-5.152046204E0,1.027154677E1
2.277714120E0,-4.395615101E0,-7.455138206E0,-4.994120121E0,9.992084546E0
2.280100787E0,-4.235296249E0,-7.299604416E0,-4.848157883E0,9.732758797E0
2.282487453E0,-4.069892406E0,-7.165606499E0,-4.723432064E0,9.498460463E0
2.284874172E0,-3.897608995E0,-7.057929516E0,-4.620540619E0,9.292745587E0
2.287260839E0,-3.715754509E0,-6.971488953E0,-4.539184570E0,9.111129807E0
2.289647505E0,-3.516851187E0,-6.911668301E0,-4.467400074E0,8.949696329E0
2.292034172E0,-3.313461065E0,-6.866204739E0,-4.400400639E0,8.802688085E0
2.294420839E0,-3.107678413E0,-6.837490559E0,-4.340580463E0,8.674651637E0
2.296807505E0,-2.896811008E0,-6.830312252E0,-4.290330887E0,8.570391975E0
2.299194224E0,-2.683849812E0,-6.854240417E0,-4.247260094E0,8.498404545E0
2.301580891E0,-2.477767944E0,-6.916453838E0,-4.228117466E0,8.476652936E0
2.303967558E0,-2.288734913E0,-7.009773731E0,-4.211368084E0,8.491811138E0
2.306354224E0,-2.126022816E0,-7.117750168E0,-4.201497555E0,8.534337828E0
2.308740891E0,-1.999203324E0,-7.225427151E0,-4.194318771E0,8.590455250E0
2.311127558E0,-1.910369754E0,-7.309175968E0,-4.167997837E0,8.628196329E0
2.313514276E0,-1.864906192E0,-7.359425068E0,-4.115355968E0,8.635691471E0
2.315900943E0,-1.872084618E0,-7.368996620E0,-4.045963764E0,8.612585836E0
2.318287610E0,-1.917548299E0,-7.359425068E0,-3.940679789E0,8.565458890E0
2.320674276E0,-1.977667928E0,-7.380960464E0,-3.734897137E0,8.505245701E0
2.323060943E0,-2.030309916E0,-7.457530975E0,-3.440280676E0,8.460050693E0
2.325447610E0,-2.068595171E0,-7.589435101E0,-3.090928555E0,8.451772031E0
2.327834328E0,-2.092523336E0,-7.761718273E0,-2.719742060E0,8.486455169E0
2.330220995E0,-2.104487419E0,-7.969893932E0,-2.355733871E0,8.573071717E0
2.332607662E0,-2.104487419E0,-8.195118904E0,-2.011167526E0,8.696760085E0
2.334994328E0,-2.094916344E0,-8.436793327E0,-1.687837243E0,8.855334590E0
2.337380995E0,-2.056631088E0,-8.695218086E0,-1.376471281E0,9.040532185E0
2.339767662E0,-1.992024899E0,-8.980263710E0,-1.072582722E0,9.260871082E0
2.342154380E0,-1.912762642E0,-9.296415329E0,-7.779664397E-1,9.522984337E0
2.344541047E0,-1.795514345E0,-9.626625061E0,-4.764707983E-1,9.804223898E0
2.346927714E0,-1.608874083E0,-9.911669731E0,-1.674975902E-1,1.004279484E1
2.349314380E0,-1.366899967E0,-1.011984539E1,1.435693651E-1,1.021275175E1
2.351701047E0,-1.070189953E0,-1.028495026E1,4.621138871E-1,1.035079985E1
2.354087714E0,-7.468597889E-1,-1.043599701E1,7.803592682E-1,1.049174884E1
2.356474380E0,-4.262215197E-1,-1.058674431E1,1.082154036E0,1.065044023E1
2.358861099E0,-1.220339537E-1,-1.074706364E1,1.359721422E0,1.083342566E1
2.361247766E0,1.483550072E-1,-1.093370438E1,1.623231053E0,1.105453661E1
2.363634433E0,3.711866140E-1,-1.114457130E1,1.850549221E0,1.130326420E1
2.366021099E0,5.410770178E-1,-1.138385391E1,2.032702923E0,1.157656147E1
2.368407766E0,6.535396576E-1,-1.165932751E1,2.171486616E0,1.187781066E1
2.370794433E0,7.157530785E-1,-1.196321583E1,2.269592285E0,1.219761799E1
2.373181151E0,7.420741320E-1,-1.228415298E1,2.355733871E0,1.252998686E1
2.375567818E0,7.229315639E-1,-1.256889915E1,2.437089920E0,1.282338736E1
2.377954485E0,6.343970895E-1,-1.273669624E1,2.489732027E0,1.299325427E1
2.380341151E0,5.410770178E-1,-1.281087303E1,2.504088879E0,1.306452040E1
2.382727818E0,5.793621540E-1,-1.287308693E1,2.492124796E0,1.312488909E1
2.385114485E0,7.420741320E-1,-1.291855049E1,2.429911375E0,1.316602028E1
2.387501203E0,9.553344250E-1,-1.289701462E1,2.291127682E0,1.313373199E1
2.389887870E0,1.189831018E0,-1.276301670E1,2.073380709E0,1.298496056E1
2.392274537E0,1.482054472E0,-1.259282780E1,1.829013824E0,1.281097533E1
2.394661203E0,1.857727647E0,-1.242293739E1,1.599302888E0,1.266247587E1
2.397047870E0,2.279163599E0,-1.226501083E1,1.354935765E0,1.254834365E1
2.399434537E0,2.710170746E0,-1.213340569E1,1.113260746E0,1.248214359E1
2.401821255E0,3.083451033E0,-1.206640625E1,9.194421172E-1,1.248804244E1
2.404207922E0,3.368496180E0,-1.209033489E1,8.186444640E-1,1.257748556E1
2.406594589E0,3.612564087E0,-1.212383366E1,8.691928387E-1,1.268043603E1
2.408981255E0,3.883252144E0,-1.205414295E1,1.113260746E0,1.271303894E1
2.411367922E0,4.141676903E0,-1.197996521E1,1.462911963E0,1.275982623E1
2.413754589E0,4.486542225E0,-1.184118176E1,1.955833435E0,1.281280340E1
2.416141255E0,4.744967461E0,-1.190339565E1,2.398804665E0,1.303686343E1
2.418527974E0,4.979763031E0,-1.211904812E1,2.846561670E0,1.340791857E1
2.420914641E0,5.209474087E0,-1.240379429E1,3.236890793E0,1.383727556E1
2.423301308E0,5.480162144E0,-1.264337540E1,3.514458179E0,1.422105955E1
2.425687974E0,5.779264927E0,-1.276780224E1,3.658326626E0,1.448447551E1
2.428074641E0,6.069095612E0,-1.272233868E1,3.655933857E0,1.456220022E1
2.430461308E0,6.315556049E0,-1.253300667E1,3.571886063E0,1.448174280E1
2.432847974E0,6.497709751E0,-1.228893852E1,3.461816072E0,1.432558594E1
2.435234693E0,6.605386734E0,-1.200389385E1,3.323032379E0,1.409848026E1
2.437621360E0,6.655636311E0,-1.168086243E1,3.153141975E0,1.380877786E1
2.440008026E0,6.653243542E0,-1.133599758E1,2.937488794E0,1.346845690E1
2.442394693E0,6.598208427E0,-1.099860954E1,2.671885490E0,1.310132583E1
2.444781360E0,6.454638958E0,-1.074945641E1,2.350948334E0,1.275696418E1
2.447168078E0,6.255735874E0,-1.059870911E1,2.042274237E0,1.247548597E1
2.449554745E0,5.963811398E0,-1.058913708E1,1.704586983E0,1.227202050E1
2.451941412E0,5.590231895E0,-1.064656544E1,1.338186026E0,1.209920618E1
2.454328078E0,5.156831741E0,-1.074467087E1,9.960124493E-1,1.195963655E1
2.456714745E0,4.670789719E0,-1.086909771E1,6.559324861E-1,1.184836736E1
2.459101412E0,4.124927044E0,-1.098664474E1,3.424727321E-1,1.174047160E1
2.461488078E0,3.526422262E0,-1.108475113E1,4.546362907E-2,1.163225810E1
2.463874797E0,2.894418001E0,-1.115653515E1,-2.177468538E-1,1.152793762E1
2.466261464E0,2.240878344E0,-1.118285656E1,-4.477569461E-1,1.141395211E1
2.468648130E0,1.575374603E0,-1.116610718E1,-6.559324861E-1,1.129575151E1
2.471034797E0,9.314061999E-1,-1.112064362E1,-8.377870321E-1,1.119098383E1
2.473421464E0,2.826521695E-1,-1.103689480E1,-9.960124493E-1,1.108534978E1
2.475808130E0,-3.448655605E-1,-1.091934681E1,-1.127617717E0,1.098283154E1
2.478194849E0,-9.577272534E-1,-1.077099228E1,-1.213759303E0,1.088139365E1
2.480581516E0,-1.582553029E0,-1.056999493E1,-1.156331539E0,1.075017997E1
2.482968183E0,-2.216950178E0,-1.031127071E1,-8.835497499E-1,1.058384769E1
2.485354849E0,-2.846561670E0,-1.001456070E1,-4.549354017E-1,1.042119502E1
2.487741516E0,-3.449851990E0,-9.705587387E0,-4.067798331E-2,1.030056115E1
2.490128183E0,-3.981357813E0,-9.435198784E0,1.483550072E-1,1.024188436E1
2.492514901E0,-4.402793884E0,-9.265308380E0,1.914258115E-2,1.025821134E1
2.494901568E0,-4.716253281E0,-9.221938133E0,-3.640081584E-1,1.036434706E1
2.497288235E0,-4.934299469E0,-9.291629791E0,-9.026923180E-1,1.055919262E1
2.499674901E0,-5.053940296E0,-9.459127426E0,-1.505982757E0,1.082983787E1
2.502061568E0,-5.097011566E0,-9.669695854E0,-2.109273195E0,1.113245607E1
2.504448235E0,-5.089832783E0,-9.911669731E0,-2.676671267E0,1.145915196E1
2.506834901E0,-5.037190914E0,-1.015334511E1,-3.215355396E0,1.178143538E1
2.509221620E0,-4.958227634E0,-1.037109184E1,-3.715754509E0,1.208099329E1
2.511608287E0,-4.862514496E0,-1.056999493E1,-4.182354927E0,1.236369414E1
2.513994953E0,-4.749752998E0,-1.075184917E1,-4.618147850E0,1.262892330E1
2.516381620E0,-4.630111694E0,-1.091216850E1,-5.030012131E0,1.287689317E1
2.518768287E0,-4.512863636E0,-1.105842972E1,-5.417948723E0,1.311521919E1
2.521154953E0,-4.398007870E0,-1.120199966E1,-5.774479389E0,1.334810406E1
2.523541620E0,-4.278367043E0,-1.134078312E1,-6.112166405E0,1.357484307E1
2.525928339E0,-4.153641224E0,-1.147717381E1,-6.430411816E0,1.379595774E1
2.528315005E0,-4.019642830E0,-1.161625671E1,-6.725028038E0,1.401145783E1
2.530701672E0,-3.871287823E0,-1.175025463E1,-7.000202656E0,1.421471739E1
2.533088339E0,-3.701397419E0,-1.187228870E1,-7.268497944E0,1.440425785E1
2.535475005E0,-3.512065411E0,-1.197517967E1,-7.514958382E0,1.456757122E1
2.537861672E0,-3.315854073E0,-1.203978634E1,-7.749754429E0,1.469727992E1
2.540248339E0,-3.107678413E0,-1.207358456E1,-7.965108395E0,1.479432529E1
2.542635058E0,-2.892025232E0,-1.206640625E1,-8.134998322E0,1.483712126E1
2.545021724E0,-2.667099953E0,-1.203021526E1,-8.274081230E0,1.484250389E1
2.547408391E0,-2.441875458E0,-1.197278690E1,-8.391329765E0,1.482311699E1
2.549795058E0,-2.216950178E0,-1.189621735E1,-8.496614456E0,1.478605128E1
2.552181724E0,-1.984846354E0,-1.181246853E1,-8.554041862E0,1.471888786E1
2.554568391E0,-1.752443433E0,-1.170718384E1,-8.573184013E0,1.461604240E1
2.556955058E0,-1.520339727E0,-1.158754253E1,-8.544470787E0,1.447724269E1
2.559341776E0,-1.290329576E0,-1.146281719E1,-8.475078583E0,1.431391230E1
2.561728443E0,-1.065404296E0,-1.132642555E1,-8.350651741E0,1.411227787E1
2.564115110E0,-8.476574421E-1,-1.118764210E1,-8.185546875E0,1.388830575E1
2.566501776E0,-6.272186637E-1,-1.105842972E1,-7.984251022E0,1.365395677E1
2.568888443E0,-4.022932947E-1,-1.094088268E1,-7.754539967E0,1.341632006E1
2.571275110E0,-1.722832322E-1,-1.083081245E1,-7.512565613E0,1.318236785E1
2.573661828E0,5.742774159E-2,-1.073270702E1,-7.258926392E0,1.295709498E1
2.576048495E0,2.632105052E-1,-1.062502956E1,-6.971488953E0,1.271071167E1
2.578435162E0,4.716851711E-1,-1.052453136E1,-6.660421848E0,1.246392661E1
2.580821828E0,6.822535396E-1,-1.045035362E1,-6.337091446E0,1.224067354E1
2.583208495E0,8.931210637E-1,-1.040489006E1,-6.009274960E0,1.204868408E1
2.585595162E0,1.094118118E0,-1.038066292E1,-5.657230854E0,1.187263737E1
2.587981828E0,1.280758262E0,-1.038066292E1,-5.298008442E0,1.172464915E1
2.590368547E0,1.455733418E0,-1.040249729E1,-4.919942379E0,1.159900611E1
2.592755214E0,1.616052628E0,-1.044078255E1,-4.515256405E0,1.148952160E1
2.595141880E0,1.754836321E0,-1.048863888E1,-4.086641788E0,1.139261327E1
2.597528547E0,1.867298961E0,-1.054128075E1,-3.626920938E0,1.130309518E1
2.599915214E0,1.958226204E0,-1.060828018E1,-3.150749207E0,1.123821511E1
2.602301880E0,2.030309916E0,-1.068485069E1,-2.659921408E0,1.119657870E1
2.604688599E0,2.085345030E0,-1.076381397E1,-2.166700840E0,1.117599873E1
2.607075266E0,2.130808592E0,-1.084756279E1,-1.675873160E0,1.118116785E1
2.609461933E0,2.166700840E0,-1.092891788E1,-1.204187989E0,1.120651183E1
2.611848599E0,2.193022013E0,-1.100339508E1,-7.612167001E-1,1.124559913E1
2.614235266E0,2.207378864E0,-1.107039356E1,-3.616153300E-1,1.129410912E1
2.616621933E0,2.214557409E0,-1.112303638E1,4.785645287E-3,1.134135027E1
2.619008599E0,2.221735716E0,-1.116371441E1,2.970091105E-1,1.138652025E1
2.621395318E0,2.236092806E0,-1.118764210E1,5.267201066E-1,1.142107179E1
2.623781985E0,2.260020971E0,-1.120199966E1,6.894320250E-1,1.144848496E1
2.626168651E0,2.283949137E0,-1.120439243E1,7.995018363E-1,1.146272379E1
2.628555318E0,2.312663078E0,-1.119721317E1,8.787640929E-1,1.146726732E1
2.630941985E0,2.355733871E0,-1.116371441E1,9.337990284E-1,1.144770641E1
2.633328651E0,2.432304144E0,-1.110628605E1,9.649057388E-1,1.141037845E1
2.635715318E0,2.542673111E0,-1.102971554E1,9.744769931E-1,1.136087219E1
2.638101985E0,2.695813894E0,-1.094836044E1,9.218349457E-1,1.131299203E1
2.640488703E0,2.887239695E0,-1.087149048E1,8.186444640E-1,1.127810432E1
2.642875370E0,3.105285645E0,-1.079731274E1,6.200401783E-1,1.125207586E1
2.645262037E0,3.339782238E0,-1.073749256E1,3.329014480E-1,1.124983179E1
2.647648703E0,3.581457376E0,-1.068245792E1,-3.589234129E-2,1.126689986E1
2.650035370E0,3.830610037E0,-1.064177990E1,-4.692923427E-1,1.131995088E1
2.652422037E0,4.086641788E0,-1.061785126E1,-9.553344250E-1,1.141718312E1
2.654808703E0,4.340580463E0,-1.059392357E1,-1.472483277E0,1.154296592E1
2.657195422E0,4.596612453E0,-1.056281662E1,-1.992024899E0,1.169059897E1
2.659582089E0,4.852943420E0,-1.051496029E1,-2.496910334E0,1.184694099E1
2.661968755E0,5.097011566E0,-1.045035362E1,-2.985345364E0,1.200423695E1
2.664355422E0,5.329114914E0,-1.036869907E1,-3.449851990E0,1.215774917E1
2.666742089E0,5.549553871E0,-1.026102161E1,-3.880859137E0,1.229419295E1
2.669128755E0,5.757729530E0,-1.012702370E1,-4.280759811E0,1.241100169E1
2.671515474E0,5.951847076E0,-9.961918831E0,-4.627718925E0,1.249320187E1
2.673902141E0,6.124130249E0,-9.767801285E0,-4.917549610E0,1.253384248E1
2.676288808E0,6.279664040E0,-9.562018394E0,-5.128118038E0,1.253650553E1
2.678675474E0,6.416054726E0,-9.344271660E0,-5.250152111E0,1.249180805E1
2.681062141E0,6.538387775E0,-9.133403778E0,-5.293222904E0,1.241723753E1
2.683448808E0,6.646064758E0,-8.941978455E0,-5.259723186E0,1.232046442E1
2.685835474E0,6.729813576E0,-8.764909744E0,-5.171188831E0,1.220062406E1
2.688222141E0,6.792026997E0,-8.597112656E0,-5.030012131E0,1.205582841E1
2.690608860E0,6.837490559E0,-8.446364403E0,-4.821836948E0,1.188875352E1
2.692995526E0,6.861418724E0,-8.309973717E0,-4.570291042E0,1.170565207E1
2.695382193E0,6.856633186E0,-8.197511673E0,-4.268795490E0,1.150805071E1
2.697768860E0,6.825526714E0,-8.106285095E0,-3.933501244E0,1.130363238E1
2.700155526E0,6.760920525E0,-8.036892891E0,-3.571886063E0,1.109324406E1
2.702542193E0,6.662814617E0,-7.993822098E0,-3.196212769E0,1.088623288E1
2.704928912E0,6.526423931E0,-7.969893932E0,-2.820240498E0,1.068022355E1
2.707315578E0,6.349055767E0,-7.965108395E0,-2.439482689E0,1.047399335E1
2.709702245E0,6.128916264E0,-7.969893932E0,-2.056631088E0,1.026219057E1
2.712088912E0,5.860620975E0,-7.984251022E0,-1.673480392E0,1.004468413E1
2.714475578E0,5.551946640E0,-7.996214867E0,-1.283151150E0,9.818861470E0
2.716862245E0,5.209474087E0,-8.012965202E0,-9.026923180E-1,9.600056511E0
2.719248912E0,4.840979099E0,-8.029714584E0,-5.291129351E-1,9.391025261E0
2.721635578E0,4.457828522E0,-8.048856735E0,-1.746760458E-1,9.202545387E0
2.724022245E0,4.072285175E0,-8.065607071E0,1.627119333E-1,9.036813550E0
2.726408964E0,3.691826344E0,-8.077570915E0,4.812564552E-1,8.894287010E0
2.728795630E0,3.318246841E0,-8.087141991E0,7.755736113E-1,8.775770172E0
2.731182297E0,2.956631422E0,-8.091927528E0,1.048654556E0,8.678746273E0
2.733568964E0,2.612065077E0,-8.099106789E0,1.295115232E0,8.607888138E0
2.735955630E0,2.271985054E0,-8.096714020E0,1.517946839E0,8.545341223E0
2.738342297E0,1.955833435E0,-8.084749222E0,1.714158297E0,8.492749441E0
2.740728964E0,1.659123421E0,-8.072785378E0,1.888834357E0,8.455190684E0
2.743115683E0,1.378864050E0,-8.063214302E0,2.039881229E0,8.430765468E0
2.745502349E0,1.118046403E0,-8.053643227E0,2.169093609E0,8.415234047E0
2.747889016E0,8.787640929E-1,-8.046463966E0,2.279163599E0,8.409066262E0
2.750275683E0,6.511468887E-1,-8.048856735E0,2.379662037E0,8.418484331E0
2.752662349E0,4.357928336E-1,-8.070392609E0,2.468196630E0,8.450629968E0
2.755049016E0,2.273181528E-1,-8.108677864E0,2.573779821E0,8.510386173E0
2.757435683E0,3.589234129E-2,-8.164011955E0,2.679064035E0,8.592424778E0
2.759822401E0,-1.268195957E-1,-8.228617668E0,2.784348249E0,8.687855150E0
2.762209068E0,-2.632105052E-1,-8.300402641E0,2.880061150E0,8.789807507E0
2.764595735E0,-3.903291821E-1,-8.384151459E0,2.949453115E0,8.896382761E0
2.766982401E0,-5.171487927E-1,-8.470293045E0,2.990130901E0,8.997454637E0
2.769369068E0,-6.439684033E-1,-8.551649094E0,3.006880760E0,9.087724106E0
2.771755735E0,-7.588238716E-1,-8.630612373E0,3.026023388E0,9.177151037E0
2.774142401E0,-8.548358679E-1,-8.705088615E0,3.059522867E0,9.266606301E0
2.776529120E0,-9.290133715E-1,-8.752944946E0,3.117249727E0,9.337791866E0
2.778915787E0,-9.888339639E-1,-8.769695282E0,3.186641455E0,9.382964974E0
2.781302453E0,-1.046261668E0,-8.752944946E0,3.263211966E0,9.399854310E0
2.783689120E0,-1.101296663E0,-8.700303078E0,3.334996462E0,9.382447942E0
2.786075787E0,-1.163509965E0,-8.616254807E0,3.413959742E0,9.340702514E0
2.788462453E0,-1.223330617E0,-8.501399994E0,3.483351469E0,9.268445237E0
2.790849120E0,-1.278365493E0,-8.353044510E0,3.552743435E0,9.166763705E0
2.793235787E0,-1.342971683E0,-8.180761337E0,3.602992773E0,9.039357606E0
2.795622453E0,-1.412662625E0,-7.986643791E0,3.648755312E0,8.893565655E0
2.798009172E0,-1.486840129E0,-7.778468132E0,3.701397419E0,8.741601850E0
2.800395839E0,-1.544267893E0,-7.553243637E0,3.773182154E0,8.583306841E0
2.802782505E0,-1.589731574E0,-7.325925827E0,3.878466368E0,8.440316171E0
2.805169172E0,-1.618445396E0,-7.101000309E0,4.010071754E0,8.314099252E0
2.807555839E0,-1.632802367E0,-6.878168583E0,4.167997837E0,8.206549372E0
2.809942505E0,-1.639980793E0,-6.665207386E0,4.328616142E0,8.114890277E0
2.812329172E0,-1.635195136E0,-6.461817741E0,4.491328239E0,8.037473546E0
2.814715891E0,-1.623231053E0,-6.272485256E0,4.625326157E0,7.960690447E0
2.817102558E0,-1.604088426E0,-6.097809315E0,4.728217602E0,7.881143306E0
2.819489224E0,-1.568196177E0,-5.937490463E0,4.771587372E0,7.776958165E0
2.821875891E0,-1.517946839E0,-5.791228771E0,4.756931305E0,7.646625970E0
2.824262558E0,-1.453340650E0,-5.654838085E0,4.646861553E0,7.462085172E0
2.826649224E0,-1.374078393E0,-5.535196781E0,4.465006828E0,7.243119550E0
2.829035891E0,-1.271187067E0,-5.422734261E0,4.196712017E0,6.973833607E0
2.831422558E0,-1.158724308E0,-5.324329376E0,3.859323740E0,6.677237832E0
2.833809276E0,-1.043868899E0,-5.238187790E0,3.442673683E0,6.354547639E0
2.836195943E0,-9.218349457E-1,-5.159224510E0,2.966202736E0,6.022103942E0
2.838582610E0,-7.995018363E-1,-5.082654476E0,2.446661234E0,5.697256437E0
2.840969276E0,-6.678966284E-1,-5.006083965E0,1.898405671E0,5.395452406E0
2.843355943E0,-5.315057039E-1,-4.919942379E0,1.338186026E0,5.126311848E0
2.845742610E0,-3.855435550E-1,-4.829015255E0,7.779664397E-1,4.906451258E0
2.848129276E0,-2.416750938E-1,-4.728217602E0,2.321037948E-1,4.740076024E0
2.850515995E0,-9.332008660E-2,-4.622933388E0,-2.994019389E-1,4.633558381E0
2.852902662E0,6.460621208E-2,-4.510470867E0,-7.875377536E-1,4.579163365E0
2.855289328E0,2.297109663E-1,-4.390829563E0,-1.244866014E0,4.569665499E0
2.857675995E0,3.975076675E-1,-4.261617184E0,-1.675873160E0,4.596514355E0
2.860062662E0,5.721837282E-1,-4.122534275E0,-2.087737799E0,4.656321744E0
2.862449328E0,7.492526174E-1,-3.986143351E0,-2.472982168E0,4.750406204E0
2.864835995E0,9.361918569E-1,-3.847359657E0,-2.853740215E0,4.880826236E0
2.867222662E0,1.120439172E0,-3.694219112E0,-3.239283562E0,5.039404407E0
2.869609328E0,1.311864972E0,-3.538386583E0,-3.617349625E0,5.227464742E0
2.871996047E0,1.513161182E0,-3.387638569E0,-3.998107433E0,5.454412424E0
2.874382714E0,1.728515267E0,-3.239283562E0,-4.409972191E0,5.738342770E0
2.876769380E0,1.963011861E0,-3.100499868E0,-4.872086048E0,6.099486655E0
2.879156047E0,2.214557409E0,-2.975774050E0,-5.379663467E0,6.534544723E0
2.881542714E0,2.482553482E0,-2.870489836E0,-5.913562298E0,7.026592541E0
2.883929380E0,2.758027315E0,-2.789133787E0,-6.423233509E0,7.526214896E0
2.886316047E0,3.028416157E0,-2.736491680E0,-6.837490559E0,7.963100418E0
2.888702714E0,3.260818958E0,-2.691028118E0,-7.084250450E0,8.249919821E0
2.891089433E0,3.466601849E0,-2.614457846E0,-7.244569778E0,8.446094333E0
2.893476099E0,3.667897940E0,-2.494517565E0,-7.416852951E0,8.642094704E0
2.895862766E0,3.868895054E0,-2.367697954E0,-7.639684677E0,8.884769243E0
2.898249433E0,4.077070713E0,-2.262413740E0,-7.864609718E0,9.142926640E0
2.900636099E0,4.307080746E0,-2.193022013E0,-8.041678429E0,9.382370812E0
2.903022766E0,4.541577339E0,-2.154736757E0,-8.120641708E0,9.550583070E0
2.905409433E0,4.754538536E0,-2.133201361E0,-8.120641708E0,9.648886282E0
2.907796099E0,4.951049328E0,-2.130808592E0,-8.056035995E0,9.692933027E0
2.910182818E0,5.130510807E0,-2.161915302E0,-7.960322857E0,9.714049562E0
2.912569485E0,5.286044121E0,-2.224128723E0,-7.840681553E0,9.714180266E0
2.914956151E0,5.396413326E0,-2.300698996E0,-7.733004570E0,9.706382042E0
2.917342818E0,5.456233978E0,-2.358126640E0,-7.694719315E0,9.723165935E0
2.919729485E0,5.458626747E0,-2.394019127E0,-7.699504852E0,9.737058515E0
2.922116151E0,5.384449005E0,-2.396411896E0,-7.689933777E0,9.688661546E0
2.924502818E0,5.231009483E0,-2.367697954E0,-7.620542049E0,9.541599182E0
2.926889485E0,5.013262749E0,-2.327019930E0,-7.445566654E0,9.272771320E0
2.929276203E0,4.728217602E0,-2.305484533E0,-7.108178616E0,8.842935251E0
2.931662870E0,4.381258488E0,-2.305484533E0,-6.641279221E0,8.283554464E0
2.934049537E0,3.969393730E0,-2.331805706E0,-6.071488380E0,7.619473446E0
2.936436203E0,3.504886866E0,-2.401197433E0,-5.422734261E0,6.888833567E0
2.938822870E0,3.011666298E0,-2.513660192E0,-4.728217602E0,6.143668541E0
2.941209537E0,2.501696110E0,-2.659921408E0,-4.079463482E0,5.475005719E0
2.943596203E0,2.001596212E0,-2.832204819E0,-3.509672642E0,4.934123386E0
2.945982922E0,1.544267893E0,-3.042773008E0,-3.014059305E0,4.552777658E0
2.948369589E0,1.132403374E0,-3.306282759E0,-2.578565598E0,4.343137532E0
2.950756255E0,7.707880139E-1,-3.607778311E0,-2.164308071E0,4.277196270E0
2.953142922E0,4.501497746E-1,-3.952643871E0,-1.778764486E0,4.357755327E0
2.955529589E0,1.794617027E-1,-4.304687977E0,-1.436590910E0,4.541622895E0
2.957916255E0,-4.546362907E-2,-4.675575256E0,-1.151545882E0,4.815509198E0
2.960302922E0,-1.986042857E-1,-5.087440014E0,-9.409775138E-1,5.177540752E0
2.962689589E0,-2.727817893E-1,-5.525625706E0,-8.162516356E-1,5.592246067E0
2.965076255E0,-2.799602449E-1,-5.963811398E0,-7.612167001E-1,6.018710409E0
2.967462974E0,-2.225325108E-1,-6.384948254E0,-7.444669604E-1,6.432053791E0
2.969849641E0,-1.172483116E-1,-6.818347931E0,-7.492526174E-1,6.860393222E0
2.972236308E0,3.589234129E-2,-7.287640572E0,-7.564310431E-1,7.326880734E0
2.974622974E0,2.321037948E-1,-7.792825222E0,-7.396813035E-1,7.831291435E0
2.977009641E0,4.740779996E-1,-8.336295128E0,-6.918248534E-1,8.378376217E0
2.979396308E0,7.683951855E-1,-8.889336586E0,-6.056832075E-1,8.943018967E0
2.981782974E0,1.120439172E0,-9.463912964E0,-4.645066857E-1,9.541320610E0
2.984169641E0,1.525125384E0,-1.006480980E1,-3.041875660E-1,1.018424930E1
2.986556360E0,1.960619092E0,-1.069681454E1,-1.603191197E-1,1.087619284E1
2.988943026E0,2.408375978E0,-1.134796143E1,-4.785645381E-2,1.160081004E1
2.991329693E0,2.846561670E0,-1.200628662E1,2.871387079E-2,1.233915136E1
2.993716360E0,3.277568817E0,-1.265534019E1,8.853443712E-2,1.307317602E1
2.996103026E0,3.713361740E0,-1.328973675E1,1.268195957E-1,1.379935656E1
2.998489693E0,4.148855209E0,-1.390499115E1,1.483550072E-1,1.451150535E1
3.000876360E0,4.627718925E0,-1.452981758E1,1.770688742E-1,1.525000770E1
3.003263026E0,5.183153152E0,-1.513310814E1,2.560320199E-1,1.599817461E1
3.005649693E0,5.796014786E0,-1.570289898E1,3.951148391E-1,1.674308632E1
3.008036412E0,6.413661957E0,-1.623679733E1,5.673980713E-1,1.746684253E1
3.010423078E0,7.000202656E0,-1.672283936E1,7.181459069E-1,1.814309585E1
3.012809745E0,7.558029652E0,-1.717298889E1,8.353942037E-1,1.878119387E1
3.015196412E0,8.127820015E0,-1.759891129E1,9.361918569E-1,1.940771990E1
3.017583078E0,8.745766640E0,-1.800120544E1,1.015154958E0,2.003902121E1
3.019969745E0,9.387342453E0,-1.835085678E1,1.005583763E0,2.063703810E1
3.022356412E0,1.003131104E1,-1.866192245E1,8.330013752E-1,2.120350070E1
3.024743130E0,1.068963623E1,-1.902593040E1,4.477569461E-1,2.182784545E1
3.027129745E0,1.131924725E1,-1.938515282E1,-1.603191197E-1,2.244850129E1
3.029516464E0,1.192732334E1,-1.968186378E1,-9.625129104E-1,2.303395831E1
3.031903130E0,1.250189972E1,-1.988764572E1,-1.912762642E0,2.356850886E1
3.034289797E0,1.304297733E1,-2.001237297E1,-2.990130901E0,2.407395299E1
3.036676464E0,1.352662659E1,-2.006022835E1,-4.179962158E0,2.455309495E1
3.039063130E0,1.394088364E1,-2.003151512E1,-5.456233978E0,2.500760532E1
3.041449797E0,1.428544998E1,-1.994776535E1,-6.784848690E0,2.545626829E1
3.043836464E0,1.456810284E1,-1.983739662E1,-8.082356453E0,2.590514256E1
3.046223183E0,1.475713539E1,-1.971297073E1,-9.200403214E0,2.628729121E1
3.048609849E0,1.478584957E1,-1.960768700E1,-9.981060982E0,2.650857060E1
3.050996516E0,1.454895973E1,-1.953590202E1,-1.017727280E1,2.639887457E1
3.053383183E0,1.397677612E1,-1.942583084E1,-9.887741089E0,2.589364012E1
3.055769849E0,1.305733395E1,-1.918385696E1,-9.583553314E0,2.510694788E1
3.058156516E0,1.192014503E1,-1.884646988E1,-9.605089188E0,2.428038350E1
3.060543183E0,1.075424194E1,-1.851835442E1,-9.803693771E0,2.355197617E1
3.062929849E0,9.703194618E0,-1.824078560E1,-9.859027863E0,2.289276470E1
3.065316516E0,8.760123253E0,-1.794616890E1,-9.590732574E0,2.215371050E1
3.067703235E0,7.859824181E0,-1.763480377E1,-9.025727272E0,2.131259940E1
3.070089901E0,6.976274490E0,-1.738834381E1,-8.226224899E0,2.046200582E1
3.072476568E0,6.109773636E0,-1.724477386E1,-7.294818878E0,1.969583565E1
3.074863235E0,5.271687508E0,-1.716102409E1,-6.351448536E0,1.904290775E1
3.077249901E0,4.488935471E0,-1.708415604E1,-5.484947681E0,1.849604228E1
3.079636568E0,3.789932013E0,-1.700279999E1,-4.749752998E0,1.805599473E1
3.082023235E0,3.177070379E0,-1.691665840E1,-4.148855209E0,1.770536945E1
3.084409901E0,2.655135870E0,-1.683530235E1,-3.663112402E0,1.743260004E1
3.086796568E0,2.231307030E0,-1.676112366E1,-3.270390272E0,1.722235320E1
3.089183287E0,1.896012783E0,-1.668216133E1,-2.927917719E0,1.704294791E1
3.091569953E0,1.649552107E0,-1.661755562E1,-2.621636391E0,1.690376154E1
3.093956620E0,1.498804331E0,-1.657926941E1,-2.353341103E0,1.681240027E1
3.096343287E0,1.429412484E0,-1.658166313E1,-2.099701881E0,1.677508630E1
3.098729953E0,1.448554993E0,-1.662234116E1,-1.860120535E0,1.678870410E1
3.101116620E0,1.553839207E0,-1.670130348E1,-1.625623941E0,1.685202087E1
3.103503287E0,1.718943954E0,-1.678744507E1,-1.366899967E0,1.693049012E1
3.105889953E0,1.919941068E0,-1.687358665E1,-1.153938770E0,1.702162375E1
3.108276620E0,2.164308071E0,-1.700519180E1,-1.019940615E0,1.717268344E1
3.110663339E0,2.501696110E0,-1.723759460E1,-9.696913958E-1,1.744515556E1
3.113050005E0,2.870489836E0,-1.751276970E1,-1.070189953E0,1.777869852E1
3.115436672E0,3.234498024E0,-1.781456375E1,-1.323829174E0,1.815415057E1
3.117823339E0,3.595814228E0,-1.814716721E1,-1.702194214E0,1.857813292E1
3.120210005E0,3.955036640E0,-1.853510284E1,-2.228914261E0,1.908298748E1
3.122596672E0,4.297509670E0,-1.895175362E1,-2.937488794E0,1.965366111E1
3.124983339E0,4.570291042E0,-1.933699799E1,-3.773182154E0,2.022483510E1
3.127370005E0,4.869693279E0,-1.981586075E1,-4.589433670E0,2.091518949E1
3.129756672E0,5.228616714E0,-2.043590164E1,-5.233402252E0,2.173368371E1
3.132143391E0,5.592624664E0,-2.113520432E1,-5.745765209E0,2.260504656E1
3.134530058E0,5.927918911E0,-2.180788612E1,-6.195915222E0,2.343317062E1
3.136916724E0,6.176772594E0,-2.233460617E1,-6.667600155E0,2.411315086E1
3.139303391E0,6.308377743E0,-2.273929214E1,-7.146463871E0,2.465649981E1
3.141690058E0,6.339484692E0,-2.305993080E1,-7.553243637E0,2.507989163E1
3.144076724E0,6.277271271E0,-2.329233360E1,-7.850253105E0,2.536855166E1
3.146463391E0,6.116951942E0,-2.342393875E1,-8.005785942E0,2.549883559E1
3.148850058E0,5.872584820E0,-2.343350983E1,-7.981858253E0,2.544261575E1
3.151236724E0,5.563910961E0,-2.330908394E1,-7.776075363E0,2.519400419E1
3.153623443E0,5.223830700E0,-2.307189560E1,-7.395317554E0,2.478490459E1
3.156010110E0,4.881657124E0,-2.277518463E1,-6.880561352E0,2.428748105E1
3.158396776E0,4.575077057E0,-2.245664024E1,-6.286842346E0,2.376460409E1
3.160783443E0,4.319045067E0,-2.215006065E1,-5.664409637E0,2.326724895E1
3.163170110E0,4.127319813E0,-2.187010002E1,-5.046761990E0,2.282117110E1
3.165556776E0,3.978965044E0,-2.162603188E1,-4.429114819E0,2.243065928E1
3.167943443E0,3.852145433E0,-2.141995049E1,-3.842574120E0,2.210019636E1
3.170330110E0,3.737289906E0,-2.125723839E1,-3.303889751E0,2.183467900E1
3.172716776E0,3.617349625E0,-2.114716911E1,-2.820240498E0,2.163889406E1
3.175103495E0,3.478565931E0,-2.110170555E1,-2.427518606E0,2.152382969E1
3.177490162E0,3.303889751E0,-2.112323952E1,-2.123630047E0,2.148526797E1
3.179876828E0,3.098107100E0,-2.119741821E1,-1.927119493E0,2.150912820E1
3.182263495E0,2.880061150E0,-2.132662964E1,-1.824228168E0,2.159740013E1
3.184650162E0,2.657528639E0,-2.150369835E1,-1.790728688E0,2.174116396E1
3.187036828E0,2.432304144E0,-2.170499420E1,-1.817049742E0,2.191630778E1
3.189423495E0,2.226521492E0,-2.193470573E1,-1.886441588E0,2.212797721E1
3.191810162E0,2.051845312E0,-2.218625069E1,-1.999203324E0,2.237044038E1
3.194196880E0,1.900798440E0,-2.244946289E1,-2.116451740E0,2.262898113E1
3.196583495E0,1.783550143E0,-2.271506500E1,-2.204986095E0,2.289142182E1
3.198970214E0,1.702194214E0,-2.298336029E1,-2.257628202E0,2.315662325E1
3.201356880E0,1.671087503E0,-2.324657059E1,-2.267199516E0,2.341657044E1
3.203743547E0,1.685444474E0,-2.349333000E1,-2.233700037E0,2.365938912E1
3.206130214E0,1.747657895E0,-2.370629120E1,-2.140379906E0,2.386679234E1
3.208516880E0,1.840977907E0,-2.387169647E1,-1.984846354E0,2.402471035E1
3.210903547E0,1.965703845E0,-2.397698021E1,-1.790728688E0,2.412397730E1
3.213290214E0,2.109273195E0,-2.401526451E1,-1.546660781E0,2.415727887E1
3.215676880E0,2.274377823E0,-2.398176575E1,-1.273579836E0,2.412301574E1
3.218063547E0,2.444268227E0,-2.387169647E1,-9.768698215E-1,2.401638221E1
3.220450266E0,2.607279301E0,-2.367757797E1,-6.559324861E-1,2.382972621E1
3.222836933E0,2.736491680E0,-2.339283180E1,-3.400799036E-1,2.355480038E1
3.225223599E0,2.815454960E0,-2.300250244E1,-2.153540403E-2,2.317417461E1
3.227610266E0,2.834597588E0,-2.250210381E1,2.826521695E-1,2.268169992E1
3.229996933E0,2.803490877E0,-2.190599251E1,5.602195859E-1,2.209176124E1
3.232383599E0,2.729313374E0,-2.123331070E1,7.971090674E-1,2.142283869E1
3.234770266E0,2.638386011E0,-2.050080681E1,9.577272534E-1,2.069206133E1
3.237156933E0,2.542673111E0,-1.972971916E1,1.043868899E0,1.992025771E1
3.239543599E0,2.458625317E0,-1.894218254E1,1.041476011E0,1.912944824E1
3.241930266E0,2.394019127E0,-1.814716721E1,9.649057388E-1,1.832981310E1
3.244316985E0,2.365305185E0,-1.735245132E1,8.306085467E-1,1.753260238E1
3.246703651E0,2.377269268E0,-1.655265045E1,6.439684033E-1,1.673488397E1
3.249090318E0,2.420340061E0,-1.574357700E1,4.190430641E-1,1.593404719E1
3.251476985E0,2.487339020E0,-1.492253971E1,1.363908947E-1,1.512903332E1
3.253863651E0,2.580958366E0,-1.410598850E1,-2.009970993E-1,1.434157096E1
3.256250318E0,2.700599432E0,-1.330409431E1,-5.602195859E-1,1.358697938E1
3.258636985E0,2.863311291E0,-1.253061390E1,-9.361918569E-1,1.288764103E1
3.261023651E0,3.083451033E0,-1.178614712E1,-1.307079315E0,1.225272992E1
3.263410318E0,3.356531858E0,-1.107757282E1,-1.673480392E0,1.169527522E1
3.265796985E0,3.658326626E0,-1.040728283E1,-2.023131609E0,1.121552277E1
3.268183703E0,3.959822416E0,-9.801301003E0,-2.410768747E0,1.084239369E1
3.270570370E0,4.252045631E0,-9.262915611E0,-2.841775894E0,1.058098237E1
3.272957037E0,4.505684853E0,-8.779266357E0,-3.299104214E0,1.040484514E1
3.275343703E0,4.697110653E0,-8.321938515E0,-3.758825302E0,1.026870375E1
3.277730370E0,4.821836948E0,-7.893323898E0,-4.211368084E0,1.016318330E1
3.280117037E0,4.891228676E0,-7.498209000E0,-4.634897232E0,1.008114718E1
3.282503703E0,4.912764072E0,-7.103393078E0,-4.994120121E0,9.976706863E0
3.284890370E0,4.900799751E0,-6.701099873E0,-5.281258583E0,9.839424268E0
3.287277037E0,4.876871586E0,-6.291627884E0,-5.513661385E0,9.683435328E0
3.289663755E0,4.850550652E0,-5.839085579E0,-5.662016392E0,9.470015398E0
3.292050422E0,4.836193562E0,-5.331807137E0,-5.690730572E0,9.176129355E0
3.294437089E0,4.831408024E0,-4.759324074E0,-5.604588985E0,8.798016073E0
3.296823755E0,4.845765114E0,-4.115355968E0,-5.417948723E0,8.352949338E0
3.299210422E0,4.891228676E0,-3.382853031E0,-5.159224510E0,7.873081362E0
3.301597089E0,4.943870544E0,-2.549851656E0,-4.855336189E0,7.383623022E0
3.303983755E0,4.994120121E0,-1.644766450E0,-4.553541660E0,6.955662018E0
3.306370422E0,5.013262749E0,-6.822535396E-1,-4.319045067E0,6.652249512E0
3.308757089E0,5.020441055E0,3.041875660E-1,-4.191926003E0,6.547488226E0
3.311143755E0,5.037190914E0,1.297508121E0,-4.242474556E0,6.712332678E0
3.313530474E0,5.080261707E0,2.291127682E0,-4.548755646E0,7.193712741E0
3.315917141E0,5.161617756E0,3.277568817E0,-5.199902534E0,8.026440156E0
3.318303808E0,5.293222904E0,4.223331928E0,-6.181558132E0,9.168773213E0
3.320690474E0,5.472983360E0,5.073082924E0,-7.340282440E0,1.046754334E1
3.323077141E0,5.697908878E0,5.786443233E0,-8.403293610E0,1.168607866E1
3.325463808E0,5.935097694E0,6.320342064E0,-9.138189316E0,1.259676992E1
3.327850474E0,6.150451660E0,6.672386169E0,-9.495018959E0,1.313408458E1
3.330237141E0,6.358626842E0,6.859025955E0,-9.504590988E0,1.333475242E1
3.332623808E0,6.576673031E0,6.899703979E0,-9.253045082E0,1.328447916E1
3.335010474E0,6.823133945E0,6.813562393E0,-8.803194046E0,1.305664638E1
3.337397193E0,7.086643219E0,6.631708145E0,-8.233403206E0,1.272748967E1
3.339783860E0,7.342675209E0,6.368198395E0,-7.601399422E0,1.233896686E1
3.342170526E0,7.582256794E0,6.042774677E0,-6.983452797E0,1.194882240E1
3.344557193E0,7.792825222E0,5.666802406E0,-6.423233509E0,1.158009945E1
3.346943860E0,7.957930088E0,5.247759342E0,-5.975775242E0,1.125066750E1
3.349330526E0,8.067999840E0,4.802694321E0,-5.669195175E0,1.096805671E1
3.351717193E0,8.120641708E0,4.347758770E0,-5.429912567E0,1.069260392E1
3.354103860E0,8.079963684E0,3.907180309E0,-5.192724228E0,1.036900458E1
3.356490526E0,7.945965767E0,3.492922783E0,-4.955834866E0,9.994957766E0
3.358877193E0,7.711469173E0,3.102892876E0,-4.733003139E0,9.565355181E0
3.361263912E0,7.385746002E0,2.729313374E0,-4.529613495E0,9.083820447E0
3.363650578E0,6.978667259E0,2.374876499E0,-4.328616142E0,8.548611163E0
3.366037245E0,6.502495766E0,2.044667006E0,-4.093820572E0,7.951256581E0
3.368423912E0,5.975775242E0,1.740479350E0,-3.806681633E0,7.295888100E0
3.370810578E0,5.417948723E0,1.462911963E0,-3.464209080E0,6.595075763E0
3.373197245E0,4.848157883E0,1.220937729E0,-3.090928555E0,5.877853615E0
3.375583912E0,4.292723656E0,1.022333503E0,-2.695813894E0,5.171078681E0
3.377970578E0,3.763610840E0,8.596215248E-1,-2.293520451E0,4.490428908E0
3.380357245E0,3.272783279E0,7.229315639E-1,-1.910369754E0,3.857881937E0
3.382743964E0,2.808276415E0,6.032904387E-1,-1.553839207E0,3.265699321E0
3.385130578E0,2.350948334E0,4.812564552E-1,-1.199402332E0,2.682747062E0
3.387517297E0,1.898405671E0,3.448655605E-1,-8.452646136E-1,2.106501511E0
3.389903964E0,1.458126307E0,2.057827413E-1,-5.051847100E-1,1.556820623E0
3.392290630E0,1.055832982E0,6.939185411E-2,-2.225325108E-1,1.081258172E0
3.394677297E0,7.157530785E-1,-6.939185411E-2,-4.785645287E-3,7.191248856E-1
3.397063964E0,4.740779996E-1,-2.416750938E-1,1.603191197E-1,5.557508622E-1
3.399450630E0,3.137588799E-1,-4.381856322E-1,3.041875660E-1,6.188548766E-1
3.401837297E0,1.962114573E-1,-6.320042610E-1,3.975076675E-1,7.719719345E-1
3.404223964E0,1.028913707E-1,-8.042874932E-1,4.716851711E-1,9.380575177E-1
3.406610630E0,3.589234129E-2,-9.433703423E-1,5.530411601E-1,1.094116259E0
3.408997297E0,-2.392822644E-3,-1.041476011E0,6.607181430E-1,1.233380100E0
3.411384016E0,-1.196411345E-2,-1.101296663E0,8.186444640E-1,1.372288686E0
3.413770683E0,2.392822644E-3,-1.137188911E0,1.019940615E0,1.527574287E0
3.416157349E0,3.828516230E-2,-1.161117196E0,1.254437327E0,1.709757850E0
3.418544016E0,8.614161611E-2,-1.194616675E0,1.539482236E0,1.950521708E0
3.420930683E0,1.411765367E-1,-1.249651670E0,1.869691849E0,2.253288202E0
3.423317349E0,2.105683982E-1,-1.314257860E0,2.219342947E0,2.587874782E0
3.425704016E0,2.775674164E-1,-1.383649707E0,2.585743904E0,2.945776930E0
3.428090683E0,3.305086195E-1,-1.458126307E0,2.954238653E0,3.311026169E0
3.430477349E0,3.640081584E-1,-1.544267893E0,3.315854073E0,3.675888123E0
3.432864016E0,3.592225015E-1,-1.654337764E0,3.679862022E0,4.050587457E0
3.435250683E0,3.065803945E-1,-1.783550143E0,4.036392689E0,4.423517671E0
3.437637401E0,1.962114573E-1,-1.931905150E0,4.381258488E0,4.792304496E0
3.440024068E0,3.589234129E-2,-2.092523336E0,4.718646049E0,5.161934009E0
3.442410735E0,-1.722832322E-1,-2.252842426E0,5.039583683E0,5.522896360E0
3.444797401E0,-4.190430641E-1,-2.405983210E0,5.338985443E0,5.871040611E0
3.447184068E0,-6.942176819E-1,-2.549851656E0,5.609374523E0,6.200706750E0
3.449570735E0,-9.792626500E-1,-2.671885490E0,5.851049423E0,6.506358948E0
3.451957401E0,-1.275972724E0,-2.781955481E0,6.069095612E0,6.797154127E0
3.454344068E0,-1.570588946E0,-2.896811008E0,6.262914181E0,7.076888984E0
3.456730735E0,-1.848156333E0,-3.018844843E0,6.428019047E0,7.338156096E0
3.459117401E0,-2.116451740E0,-3.126821041E0,6.574280262E0,7.581394249E0
3.461504120E0,-2.374876499E0,-3.205784082E0,6.698707104E0,7.796779260E0
3.463890787E0,-2.614457846E0,-3.258426189E0,6.815955162E0,7.994371509E0
3.466277453E0,-2.832204819E0,-3.267997503E0,6.906882763E0,8.149001247E0
3.468664120E0,-3.035594702E0,-3.236890793E0,6.966702938E0,8.259978633E0
3.471050787E0,-3.215355396E0,-3.162713289E0,6.993024349E0,8.321277259E0
3.473437453E0,-3.368496180E0,-3.049951553E0,6.981060028E0,8.329716088E0
3.475824120E0,-3.497708559E0,-2.903989315E0,6.914061069E0,8.274742267E0
3.478210787E0,-3.605385542E0,-2.726920605E0,6.799205780E0,8.164808640E0
3.480597453E0,-3.689433336E0,-2.523231506E0,6.610172749E0,7.979536286E0
3.482984120E0,-3.746861219E0,-2.307877541E0,6.361020088E0,7.734846107E0
3.485370787E0,-3.782753468E0,-2.087737799E0,6.052345753E0,7.436313739E0
3.487757505E0,-3.792324781E0,-1.862513304E0,5.712265968E0,7.104974704E0
3.490144172E0,-3.785146236E0,-1.642373681E0,5.343770981E0,6.751341469E0
3.492530839E0,-3.768396616E0,-1.419841170E0,4.970191956E0,6.396840633E0
3.494917505E0,-3.746861219E0,-1.199402332E0,4.599005222E0,6.052138794E0
3.497304172E0,-3.701397419E0,-9.840483069E-1,4.247260094E0,5.719083163E0
3.499690839E0,-3.636492252E0,-7.731808424E-1,3.911965847E0,5.396791760E0
3.502077505E0,-3.545564890E0,-5.673980713E-1,3.600599766E0,5.085006355E0
3.504464172E0,-3.442673683E0,-3.568296731E-1,3.303889751E0,4.784873770E0
3.506850839E0,-3.334996462E0,-1.459621787E-1,3.021237612E0,4.502375269E0
3.509237505E0,-3.212962627E0,6.221338734E-2,2.743670225E0,4.225485257E0
3.511624172E0,-3.088535786E0,2.608176768E-1,2.477767944E0,3.968175040E0
3.514010891E0,-2.975774050E0,4.597210586E-1,2.231307030E0,3.747706726E0
3.516397558E0,-2.880061150E0,6.535396576E-1,1.996810555E0,3.564985092E0
3.518784224E0,-2.796312332E0,8.377870321E-1,1.769193292E0,3.413399284E0
3.521170891E0,-2.719742060E0,1.010369420E0,1.549053550E0,3.288983146E0
3.523557558E0,-2.655135870E0,1.168295622E0,1.321436286E0,3.187609607E0
3.525944224E0,-2.616850615E0,1.314257860E0,1.086939692E0,3.123558669E0
3.528330891E0,-2.600100994E0,1.443769336E0,8.548358679E-1,3.094469169E0
3.530717558E0,-2.607279301E0,1.558624864E0,6.343970895E-1,3.103172004E0
3.533104224E0,-2.638386011E0,1.651944876E0,4.286143482E-1,3.142246470E0
3.535490891E0,-2.686242580E0,1.733300924E0,2.368894368E-1,3.205674328E0
3.537877558E0,-2.741277456E0,1.793121457E0,6.699903309E-2,3.276335685E0
3.540264224E0,-2.801098108E0,1.833799481E0,-8.374879509E-2,3.349027472E0
3.542650943E0,-2.858525753E0,1.848156333E0,-2.129612118E-1,3.410601676E0
3.545037610E0,-2.911167860E0,1.845763564E0,-3.233301640E-1,3.462121292E0
3.547424276E0,-2.956631422E0,1.836192250E0,-4.142574072E-1,3.504979393E0
3.549810943E0,-2.992523909E0,1.821835399E0,-4.836492836E-1,3.536693398E0
3.552197610E0,-3.006880760E0,1.797907114E0,-5.386841893E-1,3.544570856E0
3.554584276E0,-2.994916677E0,1.769193292E0,-5.626124144E-1,3.523649179E0
3.556970943E0,-2.959024191E0,1.745265007E0,-5.626124144E-1,3.481135854E0
3.559357610E0,-2.896811008E0,1.716551185E0,-5.338985324E-1,3.409268196E0
3.561744276E0,-2.820240498E0,1.683051586E0,-4.908277392E-1,3.320742534E0
3.564130943E0,-2.729313374E0,1.647159338E0,-4.334000051E-1,3.217160385E0
3.566517610E0,-2.624029160E0,1.608874083E0,-3.664009571E-1,3.099718456E0
3.568904276E0,-2.513660192E0,1.568196177E0,-2.922234535E-1,2.977099488E0
3.571290995E0,-2.401197433E0,1.529910922E0,-2.129612118E-1,2.855123294E0
3.573677662E0,-2.279163599E0,1.489233017E0,-1.316052526E-1,2.725751572E0
3.576064328E0,-2.152343988E0,1.438983679E0,-5.982056633E-2,2.589756199E0
3.578450995E0,-2.025524378E0,1.381256819E0,1.196411345E-2,2.451685654E0
3.580837662E0,-1.893620014E0,1.319043517E0,6.939185411E-2,2.308784916E0
3.583224328E0,-1.757229090E0,1.242473125E0,1.220339537E-1,2.155570882E0
3.585610995E0,-1.628016710E0,1.158724308E0,1.674975902E-1,2.005277007E0
3.587997662E0,-1.503589988E0,1.070189953E0,2.057827413E-1,1.856996479E0
3.590384328E0,-1.386042476E0,9.792626500E-1,2.321037948E-1,1.712875142E0
3.592770995E0,-1.285543919E0,8.931210637E-1,2.392822653E-1,1.583522783E0
3.595157662E0,-1.206580877E0,8.090731502E-1,2.416750938E-1,1.472699435E0
3.597544328E0,-1.149153113E0,7.253243923E-1,2.201396823E-1,1.376629882E0
3.599931047E0,-1.115653515E0,6.415755749E-1,1.890329868E-1,1.300782631E0
3.602317714E0,-1.108475089E0,5.626124144E-1,1.507478207E-1,1.252187948E0
3.604704380E0,-1.120439172E0,4.884349108E-1,1.076770201E-1,1.227007311E0
3.607091047E0,-1.144367456E0,4.262215197E-1,6.221338734E-2,1.222747793E0
3.609477714E0,-1.177866936E0,3.735794425E-1,1.674975827E-2,1.235804464E0
3.611864380E0,-1.211366415E0,3.257229924E-1,-2.871387079E-2,1.254722497E0
3.614251047E0,-1.240080357E0,2.727817893E-1,-7.178468257E-2,1.271755572E0
3.616637714E0,-1.261615753E0,2.177468538E-1,-1.435693651E-1,1.288293508E0
3.619024380E0,-1.266401410E0,1.507478207E-1,-2.297109663E-1,1.295864408E0
3.621411047E0,-1.252044439E0,7.178468257E-2,-3.329014480E-1,1.297532926E0
3.623797714E0,-1.216152072E0,-1.914258115E-2,-4.357928336E-1,1.292016909E0
3.626184433E0,-1.151545882E0,-1.316052526E-1,-5.243272781E-1,1.272123011E0
3.628571099E0,-1.051047325E0,-2.608176768E-1,-6.152545214E-1,1.245497678E0
3.630957766E0,-9.098708034E-1,-4.166502357E-1,-6.966105103E-1,1.219314767E0
3.633344433E0,-7.253243923E-1,-6.104688644E-1,-7.755736113E-1,1.224860047E0
3.635731099E0,-4.956133962E-1,-8.500502706E-1,-8.401798606E-1,1.293878008E0
3.638117766E0,-2.177468538E-1,-1.146760225E0,-9.146564603E-1,1.482925874E0
3.640504433E0,1.124626622E-1,-1.513161182E0,-1.000798106E0,1.817663738E0
3.642891099E0,5.027918816E-1,-1.948654890E0,-1.113260746E0,2.299870658E0
3.645277766E0,9.768698215E-1,-2.432304144E0,-1.261615753E0,2.908960709E0
3.647664433E0,1.544267893E0,-2.951845884E0,-1.484447360E0,3.647155250E0
3.650051099E0,2.214557409E0,-3.504886866E0,-1.862513304E0,4.545047004E0
3.652437766E0,2.992523909E0,-4.081856251E0,-2.533101797E0,5.659801632E0
3.654824433E0,3.856930971E0,-4.749752998E0,-3.670290947E0,7.134921562E0
3.657211151E0,4.829015255E0,-5.590231895E0,-5.360520840E0,9.127171777E0
3.659597818E0,5.877370834E0,-6.739385128E0,-7.297211647E0,1.154175453E1
3.661984485E0,6.909275532E0,-8.195118904E0,-8.848658562E0,1.389952591E1
3.664371151E0,7.780860901E0,-9.875777245E0,-9.657731056E0,1.585384943E1
3.666757818E0,8.345866203E0,-1.166650581E1,-9.676874161E0,1.730325790E1
3.669144485E0,8.510971069E0,-1.357926846E1,-8.810373306E0,1.828813381E1
3.671531151E0,8.374580383E0,-1.571964836E1,-7.213462830E0,1.921652901E1
3.673917818E0,8.120641708E0,-1.788634872E1,-5.659623623E0,2.044254466E1
3.676304485E0,7.859824181E0,-1.972732735E1,-4.778766155E0,2.176650836E1
3.678691151E0,7.603792191E0,-2.120938110E1,-4.453042984E0,2.296704366E1
3.681077818E0,7.385746002E0,-2.244467545E1,-4.488935471E0,2.405126278E1
3.683464485E0,7.234998226E0,-2.356272316E1,-4.752145767E0,2.510239055E1
3.685851151E0,7.153642178E0,-2.473819733E1,-4.974977493E0,2.622791270E1
3.688237870E0,7.165606499E0,-2.612932396E1,-4.893621445E0,2.753243574E1
3.690624537E0,7.280461788E0,-2.764697266E1,-4.565505505E0,2.895175403E1
3.693011203E0,7.524529934E0,-2.922234726E1,-4.156033993E0,3.046041281E1
3.695397870E0,7.914859295E0,-3.084557724E1,-3.684647799E0,3.205731215E1
3.697784537E0,8.436793327E0,-3.253820038E1,-3.069094181E0,3.375401168E1
3.700171203E0,9.080761909E0,-3.429782104E1,-2.260020971E0,3.555149027E1
3.702557870E0,9.825528145E0,-3.620609665E1,-1.323829174E0,3.753897923E1
3.704944537E0,1.062263680E1,-3.817628860E1,-4.022932947E-1,3.962866720E1
3.707331203E0,1.139821053E1,-4.013481522E1,3.735794425E-1,4.172364027E1
3.709717870E0,1.210469151E1,-4.195904160E1,9.672985673E-1,4.368089279E1
3.712104537E0,1.271037483E1,-4.356791687E1,1.378864050E0,4.540504680E1
3.714491203E0,1.321795273E1,-4.492045975E1,1.623231053E0,4.685292795E1
3.716877922E0,1.363430309E1,-4.596911240E1,1.709372640E0,4.797890651E1
3.719264537E0,1.393849087E1,-4.663461685E1,1.709372640E0,4.870308996E1
3.721651255E0,1.405334663E1,-4.681647110E1,1.649552107E0,4.890807234E1
3.724037922E0,1.392413425E1,-4.644319153E1,1.527518153E0,4.850963683E1
3.726424589E0,1.357209015E1,-4.555725098E1,1.335793257E0,4.755469578E1
3.728811255E0,1.308126259E1,-4.432674026E1,1.065404296E0,4.622893488E1
3.731197922E0,1.252104282E1,-4.293830490E1,7.181459069E-1,4.473242979E1
3.733584589E0,1.193450165E1,-4.152325058E1,3.400799036E-1,4.320565151E1
3.735971255E0,1.133839035E1,-4.017309952E1,-5.982056633E-2,4.174255142E1
3.738357922E0,1.072074318E1,-3.891596985E1,-4.956133962E-1,4.036870912E1
3.740744589E0,1.003609657E1,-3.776442337E1,-9.864411354E-1,3.908769593E1
3.743131255E0,9.260522842E0,-3.672294998E1,-1.520339727E0,3.790308393E1
3.745517922E0,8.403293610E0,-3.578705597E1,-2.035095692E0,3.681671268E1
3.747904589E0,7.471887589E0,-3.493939972E1,-2.475374937E0,3.581505602E1
3.750291255E0,6.492924213E0,-3.417339706E1,-2.793919563E0,3.489677805E1
3.752677922E0,5.482554913E0,-3.346960831E1,-2.994916677E0,3.404765211E1
3.755064641E0,4.472185612E0,-3.281816101E1,-3.081058264E0,3.326447138E1
3.757451308E0,3.483351469E0,-3.220290756E1,-3.073879719E0,3.253628328E1
3.759837974E0,2.535494804E0,-3.164029312E1,-3.004487991E0,3.188359815E1
3.762224641E0,1.637588024E0,-3.113271713E1,-2.906382322E0,3.131093785E1
3.764611308E0,7.995018363E-1,-3.067807961E1,-2.803490877E0,3.081628356E1
3.766997974E0,6.221338734E-2,-3.030450058E1,-2.729313374E0,3.042722099E1
3.769384641E0,-5.602195859E-1,-3.000509834E1,-2.676671267E0,3.012945970E1
3.771771308E0,-1.077368379E0,-2.972992325E1,-2.612065077E0,2.986389028E1
3.774157974E0,-1.505982757E0,-2.946192741E1,-2.561815739E0,2.961141758E1
3.776544641E0,-1.800299883E0,-2.921756172E1,-2.496910334E0,2.937927082E1
3.778931308E0,-1.963011861E0,-2.886073112E1,-2.379662037E0,2.902512718E1
3.781317974E0,-1.960619092E0,-2.864298439E1,-2.204986095E0,2.879455757E1
3.783704641E0,-1.826620936E0,-2.839413071E1,-1.992024899E0,2.852247124E1
3.786091308E0,-1.582553029E0,-2.801815796E1,-1.723729610E0,2.811570546E1
3.788478026E0,-1.297508121E0,-2.753690147E1,-1.422233939E0,2.760411599E1
3.790864693E0,-9.625129104E-1,-2.701975250E1,-1.139581800E0,2.706089620E1
3.793251360E0,-5.721837282E-1,-2.649781799E1,-9.170492887E-1,2.651985543E1
3.795638026E0,-1.459621787E-1,-2.599502754E1,-8.258228898E-1,2.600855139E1
3.798024693E0,3.089732230E-1,-2.552094841E1,-8.452646136E-1,2.553681156E1
3.800411360E0,7.707880139E-1,-2.506631279E1,-9.744769931E-1,2.509708661E1
3.802798026E0,1.211366415E0,-2.462334061E1,-1.182652593E0,2.468147034E1
3.805184693E0,1.517946839E0,-2.414686966E1,-1.484447360E0,2.424003013E1
3.807571360E0,1.850549221E0,-2.379961205E1,-1.829013824E0,2.394141511E1
3.809958026E0,2.147558212E0,-2.351247406E1,-2.193022013E0,2.371197563E1
3.812344693E0,2.437089920E0,-2.323939323E1,-2.511267424E0,2.350138867E1
3.814731360E0,2.758027315E0,-2.300728798E1,-2.719742060E0,2.333107395E1
3.817118026E0,3.119642496E0,-2.281825638E1,-2.767598391E0,2.319621940E1
3.819504693E0,3.504886866E0,-2.266003036E1,-2.659921408E0,2.308324912E1
3.821891360E0,3.849752426E0,-2.253081894E1,-2.403590441E0,2.298337753E1
3.824278078E0,4.153641224E0,-2.242074776E1,-2.032702923E0,2.289267452E1
3.826664745E0,4.402793884E0,-2.232503510E1,-1.541875124E0,2.280721739E1
3.829051412E0,4.584648132E0,-2.224128723E1,-9.744769931E-1,2.272979238E1
3.831438078E0,4.694717884E0,-2.211416817E1,-4.238287210E-1,2.261098053E1
3.833824745E0,4.687539577E0,-2.190599251E1,6.460621208E-2,2.240200234E1
3.836211412E0,4.575077057E0,-2.163321114E1,4.405784607E-1,2.211608608E1
3.838598078E0,4.369294167E0,-2.130030823E1,6.846463680E-1,2.175459958E1
3.840984745E0,4.120141506E0,-2.092672920E1,7.636095285E-1,2.134213346E1
3.843371412E0,3.825824261E0,-2.054866409E1,6.607181430E-1,2.091222312E1
3.845758078E0,3.447459221E0,-2.015833473E1,3.951148391E-1,2.045481728E1
3.848144745E0,2.994916677E0,-1.974168396E1,-5.503492057E-2,1.996763983E1
3.850531412E0,2.484946251E0,-1.929631996E1,-6.678966284E-1,1.946712634E1
3.852918078E0,1.955833435E0,-1.883450508E1,-1.417448282E0,1.898876051E1
3.855304745E0,1.462911963E0,-1.836999893E1,-2.236092806E0,1.856332630E1
3.857691412E0,1.012762189E0,-1.790070534E1,-3.098107100E0,1.819503247E1
3.860078130E0,6.200401783E-1,-1.741705704E1,-3.947858334E0,1.786963657E1
3.862464797E0,2.850449979E-1,-1.690947914E1,-4.744967461E0,1.756492106E1
3.864851464E0,1.435693540E-2,-1.635404587E1,-5.439484119E0,1.723493574E1
3.867238130E0,-1.938186288E-1,-1.575793362E1,-5.990132332E0,1.685917326E1
3.869624797E0,-3.544368446E-1,-1.511635780E1,-6.344270229E0,1.639755053E1
3.872011464E0,-4.812564552E-1,-1.441974735E1,-6.485745907E0,1.581852147E1
3.874398130E0,-5.697908998E-1,-1.367258835E1,-6.423233509E0,1.511695282E1
3.876784797E0,-5.602195859E-1,-1.298554897E1,-6.205486298E0,1.440299928E1
3.879171464E0,-5.219344497E-1,-1.225065327E1,-5.915955067E0,1.361431032E1
3.881558130E0,-4.453641176E-1,-1.151336479E1,-5.520840168E0,1.277636858E1
3.883944797E0,-3.400799036E-1,-1.080688477E1,-5.061119080E0,1.193814638E1
3.886331464E0,-2.105683982E-1,-1.015573788E1,-4.567898273E0,1.113773072E1
3.888718130E0,-5.742774159E-2,-9.562018394E0,-4.077070713E0,1.039509496E1
3.891104797E0,1.172483116E-1,-9.037691116E0,-3.579064369E0,9.721281276E0
3.893491516E0,3.089732230E-1,-8.570791245E0,-3.081058264E0,9.113004281E0
3.895878130E0,5.147559643E-1,-8.147261620E0,-2.566601276E0,8.557469703E0
3.898264849E0,7.301099896E-1,-7.749754429E0,-2.039881229E0,8.046916784E0
3.900651516E0,9.936196208E-1,-7.452745438E0,-1.491625786E0,7.665222893E0
3.903038183E0,1.220937729E0,-7.136892796E0,-9.720842242E-1,7.305537314E0
3.905424849E0,1.398006678E0,-6.775277138E0,-4.070789516E-1,6.929972311E0
3.907811516E0,1.527518153E0,-6.392126560E0,2.033899277E-1,6.575253693E0
3.910198183E0,1.618445396E0,-6.018846035E0,8.330013752E-1,6.288065234E0
3.912584849E0,1.683051586E0,-5.657230854E0,1.429412484E0,6.072902406E0
3.914971516E0,1.742872238E0,-5.324329376E0,1.963011861E0,5.936286930E0
3.917358183E0,1.821835399E0,-5.020441055E0,2.425125837E0,5.865590161E0
3.919744849E0,1.927119493E0,-4.735395908E0,2.803490877E0,5.830722515E0
3.922131516E0,2.066202402E0,-4.469792843E0,3.088535786E0,5.812683866E0
3.924518183E0,2.221735716E0,-4.220939159E0,3.246462107E0,5.769917953E0
3.926904849E0,2.389233351E0,-3.998107433E0,3.306282759E0,5.711812736E0
3.929291516E0,2.559422970E0,-3.787539244E0,3.277568817E0,5.624816158E0
3.931678235E0,2.719742060E0,-3.581457376E0,3.196212769E0,5.517210334E0
3.934064901E0,2.863311291E0,-3.378067255E0,3.071486950E0,5.389241321E0
3.936451568E0,2.990130901E0,-3.181855917E0,2.894418001E0,5.238582389E0
3.938838235E0,3.110071182E0,-3.011666298E0,2.669492722E0,5.086144713E0
3.941224901E0,3.224926710E0,-2.865704298E0,2.391626120E0,4.932776997E0
3.943611568E0,3.323032379E0,-2.738884687E0,2.027917147E0,4.759882507E0
3.945998235E0,3.399602890E0,-2.621636391E0,1.558624864E0,4.567229865E0
3.948384901E0,3.442673683E0,-2.494517565E0,1.003190875E0,4.368181762E0
3.950771568E0,3.468994617E0,-2.355733871E0,3.496512175E-1,4.207809609E0
3.953158235E0,3.478565931E0,-2.197807550E0,-4.453641176E-1,4.138735092E0
3.955544901E0,3.471387386E0,-2.003988981E0,-1.422233939E0,4.253146083E0
3.957931568E0,3.442673683E0,-1.742872238E0,-2.496910334E0,4.596103452E0
3.960318235E0,3.267997503E0,-1.304686546E0,-2.990130901E0,4.617672300E0
3.962704901E0,2.846561670E0,-3.855435550E-1,-2.877668381E0,4.066021702E0
3.965091568E0,2.566601276E0,7.157530785E-1,-3.766003847E0,4.613299205E0
3.967478235E0,2.540280342E0,1.570588946E0,-5.487340450E0,6.247453807E0
3.969864953E0,2.679064035E0,2.145165443E0,-7.292426109E0,8.059689662E0
3.972251620E0,2.868097067E0,2.494517565E0,-8.788837433E0,9.575607662E0
3.974638287E0,3.066701412E0,2.657528639E0,-9.851848602E0,1.065485978E1
3.977024953E0,3.210569859E0,2.691028118E0,-1.039053345E1,1.120323955E1
3.979411620E0,3.260818958E0,2.647957325E0,-1.041446114E1,1.122967582E1
3.981798287E0,3.220141172E0,2.568994284E0,-1.001934624E1,1.083311312E1
3.984184953E0,3.093321562E0,2.470589399E0,-9.332307816E0,1.013727870E1
3.986571620E0,2.920739174E0,2.327019930E0,-8.479864120E0,9.265734433E0
3.988958287E0,2.724527597E0,2.133201361E0,-7.572386265E0,8.325540968E0
3.991344953E0,2.504088879E0,1.905584097E0,-6.653243542E0,7.359847926E0
3.993731620E0,2.250449657E0,1.663909078E0,-5.738586903E0,6.384708037E0
3.996118287E0,1.972882271E0,1.429412484E0,-4.860121727E0,5.436567640E0
3.998504953E0,1.675873160E0,1.192223907E0,-4.036392689E0,4.530167175E0
