"Time (s)","Acceleration x (m/s^2)","Acceleration y (m/s^2)","Acceleration z (m/s^2)","Absolute acceleration (m/s^2)"
3.481781500E-2,4.812564552E-1,4.086641788E0,8.214261055E0,9.187291960E0
3.720427400E-2,4.573282301E-1,4.086641788E0,8.132605553E0,9.113125879E0
3.959073200E-2,4.310071766E-1,4.079463482E0,8.051250458E0,9.036062385E0
4.197719000E-2,4.118646085E-1,4.081856251E0,7.984251022E0,8.976605555E0
4.436364900E-2,3.975076675E-1,4.089034557E0,7.934001446E0,8.934573012E0
4.675010700E-2,3.903291821E-1,4.098606110E0,7.881359577E0,8.891949038E0
4.913656500E-2,3.831507266E-1,4.108177185E0,7.843074322E0,8.862152057E0
5.152302400E-2,3.711866140E-1,4.117748737E0,7.826324463E0,8.851270460E0
5.390948200E-2,3.544368446E-1,4.127319813E0,7.835896015E0,8.863501603E0
5.629594000E-2,3.352942765E-1,4.136891365E0,7.862216949E0,8.890486363E0
5.868245100E-2,3.161516786E-1,4.151247978E0,7.912466049E0,8.940913300E0
6.106885700E-2,2.898306549E-1,4.165605068E0,7.972286701E0,8.999645695E0
6.345536700E-2,2.656033039E-1,4.182354927E0,8.046463966E0,9.072387790E0
6.584182600E-2,2.344966233E-1,4.194318771E0,8.132605553E0,9.153500516E0
6.822828400E-2,2.057827413E-1,4.201497555E0,8.228617668E0,9.241486729E0
7.061474200E-2,1.770688742E-1,4.211368084E0,8.319544792E0,9.326403384E0
7.300120100E-2,1.459621787E-1,4.220939159E0,8.412865639E0,9.413497788E0
7.538765900E-2,1.148554832E-1,4.225724697E0,8.499007225E0,9.492263419E0
7.777411700E-2,8.614161611E-2,4.228117466E0,8.580363274E0,9.565930775E0
8.016057600E-2,5.264209956E-2,4.225724697E0,8.661719322E0,9.637681361E0
8.254703400E-2,2.632104978E-2,4.220939159E0,8.731410027E0,9.698172056E0
8.493349200E-2,4.785645287E-3,4.208974838E0,8.779266357E0,9.736067474E0
8.731995100E-2,-7.178467698E-3,4.187140465E0,8.822337151E0,9.765542975E0
8.970646100E-2,-1.196411345E-2,4.163212299E0,8.865407944E0,9.794280872E0
9.209291900E-2,-1.196411345E-2,4.136891365E0,8.896514893E0,9.811319511E0
9.447937800E-2,-7.178467698E-3,4.112963200E0,8.913264275E0,9.816455462E0
9.686583600E-2,0.000000000E0,4.089034557E0,8.915657043E0,9.808626006E0
9.925229400E-2,7.178467698E-3,4.060320854E0,8.918049812E0,9.798870824E0
1.016387530E-1,1.435693540E-2,4.031607151E0,8.930013657E0,9.797918465E0
1.040252110E-1,1.674975827E-2,4.012464523E0,8.939585686E0,9.798793004E0
1.064116690E-1,2.153540403E-2,3.993321896E0,8.941978455E0,9.793164055E0
1.087981280E-1,2.632104978E-2,3.974179268E0,8.946763992E0,9.789758914E0
1.111845860E-1,2.392822690E-2,3.955036640E0,8.951549530E0,9.786374527E0
1.135710440E-1,2.392822690E-2,3.943072557E0,8.958727837E0,9.788115151E0
1.159575030E-1,2.632104978E-2,3.928715706E0,8.961120605E0,9.784537925E0
1.183439610E-1,2.392822690E-2,3.911965847E0,8.958727837E0,9.775625494E0
1.207304710E-1,1.914258115E-2,3.895216227E0,8.963513374E0,9.773313046E0
1.231169300E-1,1.196411345E-2,3.876073599E0,8.963513374E0,9.765687979E0
1.255033880E-1,-2.392822644E-3,3.856930971E0,8.970691681E0,9.764693107E0
1.278898460E-1,-1.674975827E-2,3.830610037E0,8.987442017E0,9.769747582E0
1.302763050E-1,-3.349951655E-2,3.811467409E0,9.020941734E0,9.793150453E0
1.326627630E-1,-5.742774159E-2,3.794717550E0,9.059226990E0,9.822055431E0
1.350492210E-1,-8.853443712E-2,3.782753468E0,9.102297783E0,9.857428015E0
1.374356800E-1,-1.148554832E-1,3.768396616E0,9.166903496E0,9.911918308E0
1.398221380E-1,-1.435693651E-1,3.754039526E0,9.217152596E0,9.953357569E0
1.422085960E-1,-1.698904037E-1,3.742075443E0,9.282057762E0,1.000942494E1
1.445950550E-1,-1.962114573E-1,3.734897137E0,9.341878891E0,1.006273605E1
1.469815130E-1,-2.249253243E-1,3.720540047E0,9.406484604E0,1.011805131E1
1.493679710E-1,-2.679961324E-1,3.699004650E0,9.471091270E0,1.017133360E1
1.517544820E-1,-3.233301640E-1,3.670290947E0,9.538089752E0,1.022500534E1
1.541409400E-1,-3.879363835E-1,3.638885021E0,9.605089188E0,1.027860482E1
1.565273990E-1,-4.549354017E-1,3.605385542E0,9.674481392E0,1.033447441E1
1.589138570E-1,-5.291129351E-1,3.569493294E0,9.763015747E0,1.040854069E1
1.613003150E-1,-6.008976102E-1,3.535993576E0,9.859027863E0,1.049117529E1
1.636867740E-1,-6.702894568E-1,3.509672642E0,9.959526062E0,1.058107978E1
1.660732320E-1,-7.348956466E-1,3.488137245E0,1.006241703E1,1.067517726E1
1.684596900E-1,-7.875377536E-1,3.468994617E0,1.015813065E1,1.076298089E1
1.708461490E-1,-8.353942037E-1,3.459423304E0,1.024666500E1,1.084710269E1
1.732326070E-1,-8.715856671E-1,3.457030535E0,1.033280659E1,1.093058158E1
1.756190650E-1,-8.955138922E-1,3.457030535E0,1.038814068E1,1.098482917E1
1.780055760E-1,-9.170492887E-1,3.454637766E0,1.044078255E1,1.103564414E1
1.803920340E-1,-9.314061999E-1,3.452244759E0,1.049103165E1,1.108364815E1
1.827784920E-1,-9.433703423E-1,3.445066452E0,1.052213860E1,1.111187793E1
1.851649510E-1,-9.553344250E-1,3.442673683E0,1.054367352E1,1.113255214E1
1.875514090E-1,-9.649057388E-1,3.440280676E0,1.054606628E1,1.113490405E1
1.899378670E-1,-9.744769931E-1,3.435495138E0,1.052931690E1,1.111839677E1
1.923243260E-1,-9.720842242E-1,3.425923824E0,1.050299549E1,1.109030279E1
1.947107840E-1,-9.696913958E-1,3.406781197E0,1.046710396E1,1.105019117E1
1.970972420E-1,-9.672985673E-1,3.392424345E0,1.041446114E1,1.099569053E1
1.994837010E-1,-9.601200819E-1,3.375674486E0,1.035912704E1,1.093748243E1
2.018701590E-1,-9.433703423E-1,3.358924866E0,1.028973579E1,1.086512708E1
2.042566170E-1,-9.194421172E-1,3.344567776E0,1.020837975E1,1.078158265E1
2.066430760E-1,-8.907282352E-1,3.323032379E0,1.014138031E1,1.070903990E1
2.090295340E-1,-8.524430394E-1,3.301496983E0,1.006720352E1,1.062897588E1
2.114160440E-1,-8.066803217E-1,3.289532900E0,9.988240242E0,1.054688120E1
2.138025030E-1,-7.540382147E-1,3.284747362E0,9.921240807E0,1.047803216E1
2.161889610E-1,-6.966105103E-1,3.279961586E0,9.851848602E0,1.040684078E1
2.185754190E-1,-6.367899179E-1,3.284747362E0,9.770194054E0,1.032723383E1
2.209618780E-1,-5.745765567E-1,3.287140131E0,9.696016312E0,1.025417772E1
2.233483360E-1,-5.195416212E-1,3.289532900E0,9.617053032E0,1.017736013E1
2.257347940E-1,-4.668995142E-1,3.294318676E0,9.533304214E0,1.009724814E1
2.281212530E-1,-4.214358926E-1,3.291925669E0,9.456734657E0,1.002218605E1
2.305077110E-1,-3.759722710E-1,3.296711445E0,9.380164146E0,9.949730696E0
2.328941690E-1,-3.352942765E-1,3.303889751E0,9.303593636E0,9.878510226E0
2.352806280E-1,-2.994019389E-1,3.315854073E0,9.233902931E0,9.815777763E0
2.376670860E-1,-2.703889608E-1,3.332603693E0,9.174081802E0,9.764380906E0
2.400535440E-1,-2.512463629E-1,3.354139090E0,9.119047165E0,9.719588210E0
2.424400030E-1,-2.416750938E-1,3.380460262E0,9.078369141E0,9.690340793E0
2.448265130E-1,-2.321037948E-1,3.409173965E0,9.047262192E0,9.671054362E0
2.472129710E-1,-2.201396823E-1,3.445066452E0,9.023334503E0,9.661133986E0
2.495994300E-1,-2.033899277E-1,3.480958700E0,9.020941734E0,9.671392387E0
2.519858880E-1,-1.818545163E-1,3.516851187E0,9.032905579E0,9.695086205E0
2.543723460E-1,-1.555334777E-1,3.545564890E0,9.054440498E0,9.725127957E0
2.567588050E-1,-1.316052526E-1,3.567100286E0,9.095118523E0,9.770501796E0
2.591452630E-1,-1.052841991E-1,3.586242914E0,9.147761345E0,9.826177315E0
2.615317210E-1,-7.657032460E-2,3.595814228E0,9.205188751E0,9.882876247E0
2.639181800E-1,-4.307080805E-2,3.595814228E0,9.294022560E0,9.965469904E0
2.663046380E-1,-2.392822644E-3,3.588635683E0,9.382556915E0,1.004543110E1
2.686911490E-1,4.067798331E-2,3.583850145E0,9.456734657E0,1.011313339E1
2.710775550E-1,7.417750359E-2,3.574278831E0,9.521340370E0,1.017039301E1
2.734640650E-1,1.028913707E-1,3.562314749E0,9.569196701E0,1.021127801E1
2.758505240E-1,1.292124242E-1,3.557528973E0,9.619445801E0,1.025701934E1
2.782369820E-1,1.459621787E-1,3.555136204E0,9.662516594E0,1.029682113E1
2.806234400E-1,1.579262912E-1,3.555136204E0,9.696016312E0,1.032843969E1
2.830098990E-1,1.722832322E-1,3.562314749E0,9.729516029E0,1.036258896E1
2.853963570E-1,1.794617027E-1,3.569493294E0,9.758230209E0,1.039213865E1
2.877828150E-1,1.842473447E-1,3.579064369E0,9.765408516E0,1.040225227E1
2.901692740E-1,1.794617027E-1,3.598206997E0,9.779765129E0,1.042224093E1
2.925557320E-1,1.722832322E-1,3.622135162E0,9.786943436E0,1.043713593E1
2.949421900E-1,1.651047617E-1,3.643670797E0,9.784550667E0,1.044227122E1
2.973286490E-1,1.651047617E-1,3.658326626E0,9.796515465E0,1.045860070E1
2.997151070E-1,1.698904037E-1,3.670290947E0,9.808479309E0,1.047407107E1
3.021015650E-1,1.770688742E-1,3.677469254E0,9.823135376E0,1.049043003E1
3.044880240E-1,1.986042857E-1,3.679862022E0,9.863813400E0,1.052975038E1
3.068745340E-1,2.249253243E-1,3.672683716E0,9.914062500E0,1.057486796E1
3.092609920E-1,2.584248483E-1,3.663112402E0,9.964311600E0,1.061944827E1
3.116474510E-1,2.922234535E-1,3.646063566E0,1.001456070E1,1.066164153E1
3.140339090E-1,3.161516786E-1,3.617349625E0,1.004088211E1,1.067728822E1
3.164203670E-1,3.329014480E-1,3.581457376E0,1.006959629E1,1.069272789E1
3.188068260E-1,3.424727321E-1,3.543172121E0,1.009352398E1,1.070283059E1
3.211932840E-1,3.472583890E-1,3.507279873E0,1.010548782E1,1.070245227E1
3.235797420E-1,3.520440459E-1,3.471387386E0,1.013898754E1,1.072257123E1
3.259662010E-1,3.520440459E-1,3.442673683E0,1.015813065E1,1.073142839E1
3.283526590E-1,3.616153300E-1,3.418745279E0,1.020359421E1,1.076716860E1
3.307391170E-1,3.807578981E-1,3.409173965E0,1.024187946E1,1.080108970E1
3.331255760E-1,4.142574072E-1,3.404388428E0,1.030169964E1,1.085755429E1
3.355120340E-1,4.501497746E-1,3.401995659E0,1.033759212E1,1.089229178E1
3.378985440E-1,4.908277392E-1,3.404388428E0,1.037827015E1,1.093340129E1
3.402850030E-1,5.315057039E-1,3.409173965E0,1.040489006E1,1.096205741E1
3.426714610E-1,5.697908998E-1,3.411566973E0,1.040967560E1,1.096926602E1
3.450579190E-1,6.056832075E-1,3.404388428E0,1.039531898E1,1.095533521E1
3.474443780E-1,6.367899179E-1,3.387638569E0,1.035912704E1,1.091755969E1
3.498308360E-1,6.655037999E-1,3.363710403E0,1.029691410E1,1.085282834E1
3.522172940E-1,6.870391965E-1,3.330210924E0,1.021795082E1,1.076888326E1
3.546037530E-1,7.013961077E-1,3.284747362E0,1.010548782E1,1.064905657E1
3.569902110E-1,7.205387354E-1,3.232105255E0,9.971489906E0,1.050696395E1
3.593766690E-1,7.444669604E-1,3.177070379E0,9.823135376E0,1.035094179E1
3.617631280E-1,7.731808424E-1,3.129213810E0,9.667302132E0,1.019051118E1
3.641495860E-1,8.138588071E-1,3.085843801E0,9.499805450E0,1.002153190E1
3.665360440E-1,8.739784956E-1,3.042773008E0,9.320343018E0,9.843327687E0
3.689225550E-1,9.601200819E-1,2.994916677E0,9.128618240E0,9.655207271E0
3.713090130E-1,1.067797065E0,2.942274570E0,8.925228119E0,9.458164050E0
3.736954710E-1,1.192223907E0,2.887239695E0,8.717052460E0,9.259835554E0
3.760819300E-1,1.328614831E0,2.829811811E0,8.494221687E0,9.051234962E0
3.784683880E-1,1.470090389E0,2.772384167E0,8.274081230E0,8.849163798E0
3.808548460E-1,1.606481314E0,2.707777977E0,8.056035995E0,8.649425400E0
3.832413050E-1,1.728515267E0,2.647957325E0,7.847859859E0,8.460989741E0
3.856277630E-1,1.833799481E0,2.585743904E0,7.644470215E0,8.275676223E0
3.880142210E-1,1.929512382E0,2.525923491E0,7.450352192E0,8.100065141E0
3.904006800E-1,2.015953064E0,2.472982168E0,7.270890713E0,7.940123382E0
3.927871380E-1,2.087737799E0,2.429911375E0,7.103393078E0,7.792388057E0
3.951735960E-1,2.147558212E0,2.401197433E0,6.945167542E0,7.655919773E0
3.975600550E-1,2.197807550E0,2.386840582E0,6.789634228E0,7.525058069E0
3.999465130E-1,2.238485575E0,2.386840582E0,6.636493683E0,7.399383355E0
4.023330240E-1,2.267199516E0,2.398804665E0,6.480959892E0,7.273052907E0
4.047194820E-1,2.279163599E0,2.425125837E0,6.320342064E0,7.143006779E0
4.071059400E-1,2.276770830E0,2.472982168E0,6.160022736E0,7.017492880E0
4.094923990E-1,2.262413740E0,2.528316259E0,6.016453266E0,6.907141879E0
4.118788570E-1,2.238485575E0,2.592922449E0,5.865406513E0,6.792426522E0
4.142653150E-1,2.207378864E0,2.669492722E0,5.712265968E0,6.680471191E0
4.166517740E-1,2.173879385E0,2.750848770E0,5.568696499E0,6.580524389E0
4.190382320E-1,2.135594130E0,2.832204819E0,5.429912567E0,6.485838181E0
4.214246900E-1,2.097309113E0,2.918346405E0,5.293222904E0,6.397941854E0
4.238111490E-1,2.063809633E0,3.002095222E0,5.180759907E0,6.333416072E0
4.261976070E-1,2.032702923E0,3.083451033E0,5.089832783E0,6.288557005E0
4.285840650E-1,2.006381750E0,3.153141975E0,5.010869503E0,6.251134715E0
4.309705240E-1,1.989632010E0,3.208176851E0,4.958227634E0,6.231777878E0
4.333570340E-1,2.011167526E0,3.258426189E0,4.924727917E0,6.238195340E0
4.357434400E-1,2.085345030E0,3.294318676E0,4.903192520E0,6.264383156E0
4.381299510E-1,2.190629244E0,3.299104214E0,4.886443138E0,6.289695671E0
4.405164090E-1,2.300698996E0,3.287140131E0,4.881657124E0,6.318946303E0
4.429028670E-1,2.389233351E0,3.272783279E0,4.931906700E0,6.383043952E0
4.452893260E-1,2.432304144E0,3.267997503E0,5.068297386E0,6.502580221E0
4.476757840E-1,2.408375978E0,3.294318676E0,5.314758301E0,6.700706395E0
4.500622420E-1,2.305484533E0,3.363710403E0,5.695516109E0,7.004906164E0
4.524487010E-1,2.126022816E0,3.476173162E0,6.186343670E0,7.407739255E0
4.548351590E-1,1.896012783E0,3.631706476E0,6.734599113E0,7.882828276E0
4.572216170E-1,1.647159338E0,3.809074640E0,7.294818878E0,8.392649520E0
4.596080760E-1,1.400399446E0,3.988536358E0,7.819146156E0,8.888677489E0
4.619945340E-1,1.185045362E0,4.156033993E0,8.231010437E0,9.296584527E0
4.643809920E-1,9.840483069E-1,4.321437836E0,8.501399994E0,9.587334243E0
4.667674510E-1,7.995018363E-1,4.479363918E0,8.597112656E0,9.726985675E0
4.691539610E-1,6.487540603E-1,4.608576298E0,8.518149376E0,9.706633099E0
4.715404190E-1,5.338985324E-1,4.706682205E0,8.312366486E0,9.567305870E0
4.739268780E-1,4.573282301E-1,4.771587372E0,8.024929047E0,9.347549484E0
4.763133360E-1,4.094717801E-1,4.814658165E0,7.687541008E0,9.080026825E0
4.786997940E-1,3.903291821E-1,4.843372345E0,7.323532581E0,8.788898794E0
4.810862530E-1,3.927220106E-1,4.864907742E0,6.985845566E0,8.521947910E0
4.834727110E-1,3.927220106E-1,4.881657124E0,6.679564476E0,8.282595513E0
4.858591690E-1,3.807578981E-1,4.905585289E0,6.432804585E0,8.098809692E0
4.882456280E-1,3.592225015E-1,4.927121162E0,6.265306950E0,7.978698824E0
4.906320860E-1,3.281157911E-1,4.939085007E0,6.171987057E0,7.911740953E0
4.930185440E-1,2.898306549E-1,4.929513931E0,6.145665646E0,7.883737415E0
4.954050030E-1,2.608176768E-1,4.881657124E0,6.186343670E0,7.884760626E0
4.977914610E-1,2.632105052E-1,4.766502857E0,6.284449577E0,7.891966532E0
5.001779190E-1,3.209373355E-1,4.563112736E0,6.399304867E0,7.866136370E0
5.025643780E-1,4.525425732E-1,4.266402721E0,6.497709751E0,7.786348244E0
5.049508880E-1,6.559324861E-1,3.878466368E0,6.557530403E0,7.646826386E0
5.073373460E-1,9.122636318E-1,3.428316593E0,6.581458569E0,7.476708934E0
5.097238050E-1,1.199402332E0,2.944667339E0,6.555137634E0,7.285565256E0
5.121102630E-1,1.494018674E0,2.453839540E0,6.502495766E0,7.108858662E0
5.144967210E-1,1.776371717E0,1.987239242E0,6.432804585E0,6.963159563E0
5.168831800E-1,2.032702923E0,1.565803289E0,6.363412857E0,6.861242184E0
5.192696380E-1,2.252842426E0,1.201795220E0,6.325127602E0,6.821059296E0
5.216560960E-1,2.437089920E0,9.026923180E-1,6.325127602E0,6.838238068E0
5.240425550E-1,2.600100994E0,6.702894568E-1,6.337091446E0,6.882480739E0
5.264290130E-1,2.748456001E0,5.027918816E-1,6.363412857E0,6.949808145E0
5.288154710E-1,2.892025232E0,3.903291821E-1,6.408876419E0,7.042007084E0
5.312019300E-1,3.033201694E0,3.185445070E-1,6.437590122E0,7.123506840E0
5.335883880E-1,3.167499065E0,2.703889608E-1,6.454638958E0,7.195034718E0
5.359748460E-1,3.301496983E0,2.488535494E-1,6.454638958E0,7.254252166E0
5.383613570E-1,3.435495138E0,2.440679073E-1,6.437590122E0,7.301011065E0
5.407478150E-1,3.571886063E0,2.416750938E-1,6.396912098E0,7.330570325E0
5.431342740E-1,3.706183195E0,2.321037948E-1,6.332305908E0,7.340828575E0
5.455207320E-1,3.837788343E0,2.201396823E-1,6.241378784E0,7.330203952E0
5.479071900E-1,3.964607954E0,1.986042857E-1,6.126523495E0,7.300126713E0
5.502936490E-1,4.091427803E0,1.674975902E-1,6.014060497E0,7.275765291E0
5.526801070E-1,4.218546391E0,1.268195957E-1,5.906383514E0,7.259310097E0
5.550665650E-1,4.333401680E0,7.178468257E-2,5.805585861E0,7.244884426E0
5.574530240E-1,4.441078663E0,1.196411345E-2,5.712265968E0,7.235558397E0
5.598394820E-1,4.534399033E0,-5.742774159E-2,5.621338367E0,7.222431555E0
5.622259400E-1,4.615755081E0,-1.339980662E-1,5.530411243E0,7.204762243E0
5.646123990E-1,4.689932346E0,-2.033899277E-1,5.429912567E0,7.177797947E0
5.669988570E-1,4.761716843E0,-2.826521695E-1,5.329114914E0,7.152153893E0
5.693853670E-1,4.821836948E0,-3.687937856E-1,5.228616714E0,7.122117182E0
5.717718260E-1,4.879264355E0,-4.692923427E-1,5.128118038E0,7.094015123E0
5.741582840E-1,4.931906700E0,-5.745765567E-1,5.044369221E0,7.078100222E0
5.765447420E-1,4.986941338E0,-6.846463680E-1,4.977370262E0,7.079021068E0
5.789312010E-1,5.037190914E0,-7.971090674E-1,4.912764072E0,7.081237604E0
5.813176590E-1,5.087440014E0,-9.122636318E-1,4.862514496E0,7.096359493E0
5.837041170E-1,5.130510807E0,-1.027119160E0,4.821836948E0,7.115281194E0
5.860905760E-1,5.149653435E0,-1.141974568E0,4.788337231E0,7.123988339E0
5.884770340E-1,5.152046204E0,-1.242473125E0,4.742574692E0,7.111914950E0
5.908634920E-1,5.147260666E0,-1.342971683E0,4.723432064E0,7.113977493E0
5.932499510E-1,5.132903576E0,-1.429412484E0,4.685146809E0,7.095105340E0
5.956364090E-1,5.097011566E0,-1.505982757E0,4.661218643E0,7.069262352E0
5.980228670E-1,5.034798145E0,-1.568196177E0,4.666004181E0,7.041308588E0
6.004093260E-1,4.951049328E0,-1.616052628E0,4.685146809E0,7.005363385E0
6.027957840E-1,4.845765114E0,-1.656730533E0,4.728217602E0,6.970095931E0
6.051822940E-1,4.728217602E0,-1.695015788E0,4.824229717E0,6.964360170E0
6.075687530E-1,4.603790760E0,-1.730908036E0,4.972584724E0,6.994106865E0
6.099552110E-1,4.479363918E0,-1.762014747E0,5.147260666E0,7.047246941E0
6.123416690E-1,4.371686935E0,-1.790728688E0,5.367699623E0,7.150563274E0
6.147281280E-1,4.287938118E0,-1.826620936E0,5.618945599E0,7.300377181E0
6.171145860E-1,4.235296249E0,-1.855334878E0,5.882156372E0,7.481962671E0
6.195010440E-1,4.218546391E0,-1.879263043E0,6.162415504E0,7.700852426E0
6.218875030E-1,4.225724697E0,-1.893620014E0,6.459424496E0,7.947748788E0
6.242739610E-1,4.247260094E0,-1.886441588E0,6.720242500E0,8.170651102E0
6.266604190E-1,4.273581028E0,-1.855334878E0,6.940382004E0,8.359106691E0
6.290468780E-1,4.309473515E0,-1.809871197E0,7.139285564E0,8.533263976E0
6.314333360E-1,4.357329845E0,-1.742872238E0,7.306783199E0,8.684066314E0
6.338197940E-1,4.405186653E0,-1.659123421E0,7.440781116E0,8.804747787E0
6.362062530E-1,4.450650215E0,-1.565803289E0,7.560422421E0,8.911790755E0
6.385927110E-1,4.481756687E0,-1.467697620E0,7.670791149E0,9.004516431E0
6.409792210E-1,4.488935471E0,-1.362114310E0,7.761718273E0,9.069187814E0
6.433656800E-1,4.486542225E0,-1.249651670E0,7.833503246E0,9.113422164E0
6.457521380E-1,4.472185612E0,-1.137188911E0,7.905287743E0,9.153535768E0
6.481385960E-1,4.460221291E0,-1.036690354E0,7.953144073E0,9.177189194E0
6.505250550E-1,4.484149456E0,-9.433703423E-1,8.005785942E0,9.224432367E0
6.529115130E-1,4.424329281E0,-8.596215248E-1,8.024929047E0,9.203973324E0
6.552979710E-1,4.381258488E0,-7.612167001E-1,8.075178146E0,9.218643007E0
6.576844300E-1,4.345366001E0,-6.583253145E-1,8.123034477E0,9.235761313E0
6.600708880E-1,4.326223373E0,-5.482555032E-1,8.178368568E0,9.268360438E0
6.624573460E-1,4.316651821E0,-4.381856322E-1,8.223832130E0,9.298220502E0
6.648438050E-1,4.323830605E0,-3.209373355E-1,8.264510155E0,9.332772362E0
6.672302630E-1,4.335794449E0,-2.009970993E-1,8.317152023E0,9.381605999E0
6.696167210E-1,4.347758770E0,-6.939185411E-2,8.365009308E0,9.427682763E0
6.720031800E-1,4.352544308E0,6.221338734E-2,8.400900841E0,9.461693685E0
6.743896380E-1,4.347758770E0,2.009970993E-1,8.432007790E0,9.489054828E0
6.767761490E-1,4.335794449E0,3.424727321E-1,8.451150894E0,9.504648995E0
6.791626070E-1,4.311866283E0,4.860421121E-1,8.463114738E0,9.510664480E0
6.815490650E-1,4.273581028E0,6.296114326E-1,8.470293045E0,9.508194867E0
6.839355240E-1,4.218546391E0,7.731808424E-1,8.494221687E0,9.515552760E0
6.863219820E-1,4.139284134E0,9.146564603E-1,8.503792763E0,9.501829347E0
6.887084400E-1,4.050749779E0,1.055832982E0,8.518149376E0,9.491165674E0
6.910948990E-1,3.962215185E0,1.194616675E0,8.537292480E0,9.487445445E0
6.934813570E-1,3.871287823E0,1.328614831E0,8.566005707E0,9.493605245E0
6.958678150E-1,3.787539244E0,1.458126307E0,8.601898193E0,9.511269020E0
6.982542740E-1,3.713361740E0,1.575374603E0,8.656932831E0,9.550567867E0
7.006407320E-1,3.638885021E0,1.683051586E0,8.709874153E0,9.588329083E0
7.030271900E-1,3.569493294E0,1.788335800E0,8.755337715E0,9.622648586E0
7.054136490E-1,3.490530014E0,1.884048700E0,8.800801277E0,9.653369484E0
7.078001070E-1,3.418745279E0,1.970489502E0,8.855836868E0,9.695178946E0
7.101865650E-1,3.356531858E0,2.056631088E0,8.910871506E0,9.741646090E0
7.125730240E-1,3.303889751E0,2.140379906E0,8.968298912E0,9.794248261E0
7.149595340E-1,3.279961586E0,2.224128723E0,9.028120041E0,9.859606892E0
7.173459920E-1,3.277568817E0,2.312663078E0,9.075976372E0,9.922913633E0
7.197324510E-1,3.308675528E0,2.396411896E0,9.119047165E0,9.992354323E0
7.221189090E-1,3.370888948E0,2.477767944E0,9.169296265E0,1.007860210E1
7.245053670E-1,3.457030535E0,2.561815739E0,9.195617676E0,1.015250434E1
7.268918260E-1,3.567100286E0,2.640778780E0,9.224330902E0,1.023651296E1
7.292782840E-1,3.687040567E0,2.714956284E0,9.267701149E0,1.033709535E1
7.316647420E-1,3.804288864E0,2.774776936E0,9.317950249E0,1.044012441E1
7.340512010E-1,3.911965847E0,2.829811811E0,9.372985840E0,1.054344229E1
7.364376590E-1,4.014857292E0,2.875275612E0,9.451948166E0,1.066422116E1
7.388241170E-1,4.105784416E0,2.908775091E0,9.538089752E0,1.078395078E1
7.412105760E-1,4.187140465E0,2.927917719E0,9.638588905E0,1.090904412E1
7.435970340E-1,4.268795490E0,2.939881802E0,9.760622978E0,1.105148320E1
7.459834920E-1,4.352544308E0,2.944667339E0,9.892526627E0,1.120168696E1
7.483699510E-1,4.429114819E0,2.947060108E0,1.003131104E1,1.135470926E1
7.507564610E-1,4.500899315E0,2.944667339E0,1.019162941E1,1.152382187E1
7.531429190E-1,4.570291042E0,2.932703257E0,1.036869907E1,1.170462426E1
7.555293780E-1,4.632504463E0,2.918346405E0,1.054606628E1,1.188260735E1
7.579158360E-1,4.685146809E0,2.899203777E0,1.073509979E1,1.206641416E1
7.603022940E-1,4.730610371E0,2.877668381E0,1.093848991E1,1.226010650E1
7.626887530E-1,4.766502857E0,2.858525753E0,1.113739300E1,1.244717806E1
7.650752110E-1,4.790730000E0,2.844168901E0,1.132403278E1,1.262038467E1
7.674616690E-1,4.802694321E0,2.841775894E0,1.151336479E1,1.279449615E1
7.698481280E-1,4.797908306E0,2.844168901E0,1.168804169E1,1.295065787E1
7.722345860E-1,4.773980141E0,2.856132984E0,1.183161068E1,1.307422630E1
7.746210440E-1,4.744967461E0,2.868097067E0,1.198235893E1,1.320293992E1
7.770075030E-1,4.701896667E0,2.892025232E0,1.210947704E1,1.330830855E1
7.793939610E-1,4.646861553E0,2.932703257E0,1.219083309E1,1.337200367E1
7.817804190E-1,4.582255363E0,2.990130901E0,1.224108219E1,1.340828252E1
7.841668780E-1,4.520041943E0,3.061915636E0,1.226261806E1,1.342303648E1
7.865533360E-1,4.453042984E0,3.157927752E0,1.225783253E1,1.341851548E1
7.889398460E-1,4.383651257E0,3.277568817E0,1.222911835E1,1.339814134E1
7.913262530E-1,4.304687977E0,3.416352510E0,1.216929817E1,1.335266344E1
7.937127630E-1,4.235296249E0,3.576671600E0,1.208315659E1,1.329409595E1
7.960992210E-1,4.179962158E0,3.751646757E0,1.197039413E1,1.322260461E1
7.984856800E-1,4.144069672E0,3.919144392E0,1.184357452E1,1.314546552E1
8.008721380E-1,4.129712582E0,4.074677944E0,1.170000553E1,1.305938956E1
8.032585960E-1,4.134498596E0,4.211368084E0,1.153011513E1,1.295273155E1
8.056450550E-1,4.156033993E0,4.321437836E0,1.135035419E1,1.283658770E1
8.080315130E-1,4.189533234E0,4.405186653E0,1.116371441E1,1.271166305E1
8.104179710E-1,4.223331928E0,4.469792843E0,1.096750259E1,1.257384960E1
8.128044300E-1,4.256831646E0,4.510470867E0,1.076859951E1,1.242689416E1
8.151908880E-1,4.278367043E0,4.534399033E0,1.056760216E1,1.226945046E1
8.175773460E-1,4.290330887E0,4.541577339E0,1.037587738E1,1.211163471E1
8.199638050E-1,4.290330887E0,4.534399033E0,1.019162941E1,1.195144442E1
8.223502630E-1,4.280759811E0,4.517649174E0,1.001934624E1,1.179497171E1
8.247367210E-1,4.273581028E0,4.479363918E0,9.863813400E0,1.164572929E1
8.271231800E-1,4.290330887E0,4.409972191E0,9.719944954E0,1.150357004E1
8.295096900E-1,4.335794449E0,4.314259052E0,9.597910881E0,1.138120547E1
8.318961490E-1,4.398007870E0,4.211368084E0,9.490233421E0,1.127575384E1
8.342826070E-1,4.450650215E0,4.127319813E0,9.394520760E0,1.118481455E1
8.366690650E-1,4.479363918E0,4.077070713E0,9.308379173E0,1.110554499E1
8.390555240E-1,4.481756687E0,4.055535316E0,9.233902931E0,1.103623455E1
8.414419820E-1,4.469792843E0,4.055535316E0,9.174081802E0,1.098135655E1
8.438284400E-1,4.448257446E0,4.057928085E0,9.128618240E0,1.093551305E1
8.462148990E-1,4.419543266E0,4.060320854E0,9.104690552E0,1.090476768E1
8.486013570E-1,4.381258488E0,4.053142548E0,9.095118523E0,1.087862911E1
8.509878150E-1,4.333401680E0,4.033999920E0,9.102297783E0,1.085833092E1
8.533742740E-1,4.280759811E0,4.005286217E0,9.123832703E0,1.084488568E1
8.557607320E-1,4.230510235E0,3.962215185E0,9.154939651E0,1.083555656E1
8.581471900E-1,4.170390606E0,3.907180309E0,9.176474571E0,1.081045334E1
8.605336490E-1,4.108177185E0,3.844966888E0,9.190832138E0,1.077646907E1
8.629201070E-1,4.043570995E0,3.780360699E0,9.198010445E0,1.073522191E1
8.653065650E-1,3.969393730E0,3.715754509E0,9.217152596E0,1.070134665E1
8.676930240E-1,3.895216227E0,3.655933857E0,9.248259544E0,1.068030273E1
8.700795340E-1,3.830610037E0,3.600599766E0,9.291629791E0,1.067577988E1
8.724659920E-1,3.770789385E0,3.559921980E0,9.358628273E0,1.069933737E1
8.748524510E-1,3.727718592E0,3.519243956E0,9.449555397E0,1.075058422E1
8.772389090E-1,3.699004650E0,3.485744476E0,9.569196701E0,1.083524690E1
8.796253670E-1,3.682255030E0,3.459423304E0,9.719944954E0,1.095463106E1
8.820118260E-1,3.677469254E0,3.437887907E0,9.897313118E0,1.110403802E1
8.843982840E-1,3.682255030E0,3.413959742E0,1.008873844E1,1.126928421E1
8.867847420E-1,3.696611881E0,3.382853031E0,1.028973579E1,1.144496818E1
8.891712010E-1,3.732504129E0,3.337389469E0,1.048624611E1,1.162028885E1
8.915576590E-1,3.792324781E0,3.287140131E0,1.067049313E1,1.179179550E1
8.939441170E-1,3.864109516E0,3.236890793E0,1.082124138E1,1.193767437E1
8.963305760E-1,3.952643871E0,3.189034462E0,1.093848991E1,1.206001227E1
8.987170340E-1,4.053142548E0,3.148356438E0,1.102971554E1,1.216530878E1
9.011034920E-1,4.160819530E0,3.126821041E0,1.108475113E1,1.224586202E1
9.034899510E-1,4.268795490E0,3.126821041E0,1.110628605E1,1.230240686E1
9.058764610E-1,4.381258488E0,3.145963669E0,1.109910774E1,1.234028792E1
9.082628670E-1,4.508078098E0,3.191427231E0,1.106800079E1,1.236966521E1
9.106493780E-1,4.649254322E0,3.256033421E0,1.102732277E1,1.240238553E1
9.130358360E-1,4.814658165E0,3.332603693E0,1.096989536E1,1.243486168E1
9.154222940E-1,5.008476734E0,3.413959742E0,1.092413235E1,1.249306319E1
9.178087530E-1,5.231009483E0,3.495315790E0,1.091216850E1,1.259587687E1
9.201952110E-1,5.487340450E0,3.579064369E0,1.092891788E1,1.274212907E1
9.225816690E-1,5.769693375E0,3.658326626E0,1.096989536E1,1.292328594E1
9.249681280E-1,6.078666687E0,3.732504129E0,1.102971554E1,1.313531121E1
9.273545860E-1,6.413661957E0,3.799503326E0,1.107757282E1,1.335229961E1
9.297410440E-1,6.775277138E0,3.849752426E0,1.116371441E1,1.361445898E1
9.321275030E-1,7.158428192E0,3.885644913E0,1.123789120E1,1.387917610E1
9.345139610E-1,7.560422421E0,3.907180309E0,1.130967617E1,1.415396836E1
9.369004190E-1,7.977072716E0,3.911965847E0,1.139581776E1,1.444997676E1
9.392868780E-1,8.400900841E0,3.900001764E0,1.148913765E1,1.475755510E1
9.416733360E-1,8.841479301E0,3.873680830E0,1.161864948E1,1.510530288E1
9.440597940E-1,9.294022560E0,3.835395575E0,1.178375435E1,1.549018983E1
9.464462530E-1,9.763015747E0,3.787539244E0,1.198714447E1,1.591708398E1
9.488327630E-1,1.024905777E1,3.737289906E0,1.225783253E1,1.640929551E1
9.512192210E-1,1.074945641E1,3.687040567E0,1.260479164E1,1.697132445E1
9.536056800E-1,1.127617645E1,3.641277790E0,1.302144146E1,1.760593641E1
9.559921380E-1,1.183878899E1,3.595814228E0,1.353619766E1,1.833890541E1
9.583785960E-1,1.243968678E1,3.543172121E0,1.416341591E1,1.918077751E1
9.607650550E-1,1.306451225E1,3.490530014E0,1.489861107E1,2.012048439E1
9.631515130E-1,1.370848083E1,3.428316593E0,1.574596977E1,2.115682787E1
9.655379710E-1,1.435753441E1,3.354139090E0,1.667976761E1,2.226215827E1
9.679244300E-1,1.499193096E1,3.263211966E0,1.767069626E1,2.340213778E1
9.703108880E-1,1.561197090E1,3.169891834E0,1.868585205E1,2.455489598E1
9.726973460E-1,1.621526146E1,3.071486950E0,1.969622040E1,2.569649459E1
9.750838050E-1,1.680419540E1,2.970988512E0,2.068505478E1,2.681565302E1
9.774702630E-1,1.737877083E1,2.860918522E0,2.164756775E1,2.790741335E1
9.798567210E-1,1.794138336E1,2.748456001E0,2.258345985E1,2.897343449E1
9.822431800E-1,1.850399590E1,2.616850615E0,2.349572372E1,3.002157232E1
9.846296380E-1,1.908335876E1,2.472982168E0,2.436701012E1,3.104901616E1
9.870160960E-1,1.968425560E1,2.312663078E0,2.519073868E1,3.205295063E1
9.894025550E-1,2.033061790E1,2.128415823E0,2.594717026E1,3.303210291E1
9.917890650E-1,2.103201294E1,1.915155411E0,2.662942505E1,3.398734569E1
9.941755240E-1,2.179592323E1,1.663909078E0,2.724497795E1,3.493021166E1
9.965619820E-1,2.260978127E1,1.374078393E0,2.778366280E1,3.584720657E1
9.989484400E-1,2.345265388E1,1.053440213E0,2.825265503E1,3.673348917E1
1.001334899E0,2.430958176E1,7.061817646E-1,2.863580513E1,3.756945293E1
1.003721357E0,2.515963364E1,3.448655605E-1,2.894238663E1,3.835085189E1
1.006107815E0,2.598545647E1,-1.914258115E-2,2.918406105E1,3.907625537E1
1.008494274E0,2.676611328E1,-3.807578981E-1,2.935155869E1,3.972510282E1
1.010880732E0,2.748904610E1,-7.301099896E-1,2.943770027E1,4.028348189E1
1.013267190E0,2.814737129E1,-1.065404296E0,2.945445061E1,4.075505193E1
1.015653649E0,2.873391151E1,-1.371685624E0,2.941616440E1,4.114401439E1
1.018040107E0,2.923670387E1,-1.654337764E0,2.933002281E1,4.144601217E1
1.020426565E0,2.965335464E1,-1.907976985E0,2.920559692E1,4.166447779E1
1.022813024E0,2.997399139E1,-2.135594130E0,2.905963516E1,4.180267118E1
1.025199482E0,3.019203758E1,-2.350948334E0,2.887987328E1,4.184654313E1
1.027585940E0,3.029971504E1,-2.552244425E0,2.868366241E1,4.180118626E1
1.029972451E0,3.029492950E1,-2.726920605E0,2.844677353E1,4.164658178E1
1.032358909E0,3.018246651E1,-2.884846687E0,2.817369270E1,4.138913608E1
1.034745367E0,2.996442032E1,-3.018844843E0,2.785783958E1,4.102485997E1
1.037131826E0,2.965335464E1,-3.119642496E0,2.748665237E1,4.055329419E1
1.039518284E0,2.924866676E1,-3.198605776E0,2.705564499E1,3.997153377E1
1.041904742E0,2.876262474E1,-3.260818958E0,2.657917404E1,3.929852434E1
1.044291201E0,2.820719147E1,-3.306282759E0,2.605245399E1,3.853968754E1
1.046677659E0,2.760150909E1,-3.339782238E0,2.549223518E1,3.772070392E1
1.049064117E0,2.695754051E1,-3.373281717E0,2.489133835E1,3.684652962E1
1.051450576E0,2.628964233E1,-3.399602890E0,2.424019051E1,3.592059896E1
1.053837034E0,2.560260391E1,-3.413959742E0,2.355075836E1,3.495406511E1
1.056223492E0,2.490569496E1,-3.418745279E0,2.282782745E1,3.395719610E1
1.058609951E0,2.419472694E1,-3.406781197E0,2.207349014E1,3.292764700E1
1.060996409E0,2.346701050E1,-3.382853031E0,2.130988121E1,3.187875960E1
1.063382867E0,2.272493553E1,-3.354139090E0,2.053430748E1,3.081121107E1
1.065769326E0,2.197059822E1,-3.315854073E0,1.974646950E1,2.972583274E1
1.068155784E0,2.120938110E1,-3.277568817E0,1.895893288E1,2.863601648E1
1.070542294E0,2.044786644E1,-3.246462107E0,1.816870308E1,2.754553557E1
1.072928753E0,1.967468452E1,-3.220141172E0,1.736680794E1,2.643990428E1
1.075315211E0,1.888953972E1,-3.189034462E0,1.655025673E1,2.531591692E1
1.077701669E0,1.807538223E1,-3.141177893E0,1.572204113E1,2.416131244E1
1.080088128E0,1.722563171E1,-3.064308405E0,1.486481285E1,2.295811480E1
1.082474586E0,1.633968925E1,-2.978166819E0,1.398873997E1,2.171496646E1
1.084861044E0,1.542263889E1,-2.882453918E0,1.309561920E1,2.043677013E1
1.087247503E0,1.446760368E1,-2.762812853E0,1.220518970E1,1.912880934E1
1.089633961E0,1.347877026E1,-2.621636391E0,1.133599758E1,1.780604016E1
1.092020419E0,1.245882893E1,-2.468196630E0,1.048385334E1,1.646892813E1
1.094406878E0,1.139821053E1,-2.286342144E0,9.648159981E0,1.510740066E1
1.096793336E0,1.032084274E1,-2.082952023E0,8.829515457E0,1.374113632E1
1.099179794E0,9.250652313E0,-1.879263043E0,8.044071198E0,1.240214817E1
1.101566253E0,8.216653824E0,-1.685444474E0,7.318747044E0,1.113185436E1
1.103952711E0,7.223034382E0,-1.505982757E0,6.665207386E0,9.943098071E0
1.106339169E0,6.272485256E0,-1.338186026E0,6.076273918E0,8.834926024E0
1.108725680E0,5.382056236E0,-1.189831018E0,5.544768333E0,7.818355521E0
1.111112086E0,4.553541660E0,-1.055832982E0,5.077868938E0,6.901759043E0
1.113498596E0,3.780360699E0,-9.290133715E-1,4.656432629E0,6.069312785E0
1.115885055E0,3.057130098E0,-8.042874932E-1,4.292723656E0,5.331078615E0
1.118271513E0,2.384447813E0,-6.798607111E-1,3.981357813E0,4.690310437E0
1.120657971E0,1.754836321E0,-5.602195859E-1,3.718147278E0,4.149447635E0
1.123044430E0,1.165902853E0,-4.477569461E-1,3.495315790E0,3.711744633E0
1.125430888E0,6.176473498E-1,-3.400799036E-1,3.308675528E0,3.382968569E0
1.127817346E0,1.339980662E-1,-2.584248483E-1,3.141177893E0,3.154637449E0
1.130203805E0,-2.727817893E-1,-2.057827413E-1,2.997309446E0,3.016723447E0
1.132590263E0,-5.937191248E-1,-1.866401732E-1,2.858525753E0,2.925492511E0
1.134976721E0,-8.428717852E-1,-1.914258152E-1,2.710170746E0,2.844662047E0
1.137363180E0,-1.027119160E0,-2.057827413E-1,2.547458887E0,2.754426816E0
1.139749638E0,-1.163509965E0,-2.153540403E-1,2.350948334E0,2.631936714E0
1.142136096E0,-1.264008522E0,-2.249253243E-1,2.130808592E0,2.487700585E0
1.144522555E0,-1.338186026E0,-2.249253243E-1,1.922333837E0,2.353019469E0
1.146909013E0,-1.393221021E0,-2.129612118E-1,1.747657895E0,2.245155988E0
1.149295471E0,-1.429412484E0,-2.033899277E-1,1.616052628E0,2.167074897E0
1.151681930E0,-1.441376567E0,-2.129612118E-1,1.534696579E0,2.116178744E0
1.154068388E0,-1.417448282E0,-2.464607358E-1,1.489233017E0,2.070680445E0
1.156454899E0,-1.357328653E0,-3.137588799E-1,1.482054472E0,2.034028310E0
1.158841357E0,-1.268794179E0,-4.166502357E-1,1.508375525E0,2.014604878E0
1.161227815E0,-1.168295622E0,-5.530411601E-1,1.558624864E0,2.024865588E0
1.163614274E0,-1.063011408E0,-7.109674215E-1,1.628016710E0,2.070243062E0
1.166000732E0,-9.601200819E-1,-8.907282352E-1,1.711765528E0,2.155311714E0
1.168387190E0,-8.715856671E-1,-1.082154036E0,1.795514345E0,2.270372369E0
1.170773649E0,-8.066803217E-1,-1.275972724E0,1.881655931E0,2.412357473E0
1.173160107E0,-7.755736113E-1,-1.460519075E0,1.951047778E0,2.557580464E0
1.175546565E0,-7.779664397E-1,-1.628016710E0,2.003988981E0,2.696598232E0
1.177933024E0,-8.090731502E-1,-1.773978829E0,2.039881229E0,2.821828428E0
1.180319482E0,-8.572286963E-1,-1.898405671E0,2.054238319E0,2.925522210E0
1.182705940E0,-9.170492887E-1,-1.999203324E0,2.042274237E0,3.001445883E0
1.185092399E0,-9.816554785E-1,-2.075773716E0,2.006381750E0,3.049270687E0
1.187478857E0,-1.046261668E0,-2.130808592E0,1.941476464E0,3.066649572E0
1.189865315E0,-1.103689432E0,-2.159522533E0,1.857727647E0,3.054966439E0
1.192251774E0,-1.158724308E0,-2.169093609E0,1.752443433E0,3.019713081E0
1.194638232E0,-1.213759303E0,-2.161915302E0,1.616052628E0,2.959512716E0
1.197024690E0,-1.261615753E0,-2.142772675E0,1.465304732E0,2.886220193E0
1.199411149E0,-1.295115232E0,-2.114058733E0,1.299900889E0,2.799341014E0
1.201797659E0,-1.319043517E0,-2.082952023E0,1.130010486E0,2.712100409E0
1.204184117E0,-1.331007600E0,-2.049452543E0,9.553344250E-1,2.623833230E0
1.206570576E0,-1.333400369E0,-2.006381750E0,7.827520967E-1,2.533026868E0
1.208957034E0,-1.323829174E0,-1.960619092E0,6.056832075E-1,2.442007996E0
1.211343492E0,-1.311864972E0,-1.910369754E0,4.334000051E-1,2.357612747E0
1.213729951E0,-1.295115232E0,-1.852941990E0,2.608176768E-1,2.275685247E0
1.216116409E0,-1.280758262E0,-1.788335800E0,9.571290761E-2,2.201737409E0
1.218502867E0,-1.266401410E0,-1.718943954E0,-6.460621208E-2,2.136051219E0
1.220889326E0,-1.254437327E0,-1.639980793E0,-2.081755698E-1,2.075207719E0
1.223275784E0,-1.242473125E0,-1.556231976E0,-3.424727321E-1,2.020615006E0
1.225662242E0,-1.232901812E0,-1.470090389E0,-4.597210586E-1,1.972956178E0
1.228048701E0,-1.218544960E0,-1.381256819E0,-5.650052428E-1,1.926642972E0
1.230435159E0,-1.204187989E0,-1.290329576E0,-6.583253145E-1,1.883722736E0
1.232821617E0,-1.187438250E0,-1.199402332E0,-7.396813035E-1,1.842743602E0
1.235208076E0,-1.173081279E0,-1.101296663E0,-8.138588071E-1,1.803147300E0
1.237594534E0,-1.161117196E0,-1.003190875E0,-8.835497499E-1,1.770662372E0
1.239980992E0,-1.146760225E0,-9.074779749E-1,-9.385846853E-1,1.737675603E0
1.242367451E0,-1.103689432E0,-8.401798606E-1,-9.888339639E-1,1.703474440E0
1.244753909E0,-9.792626500E-1,-8.572286963E-1,-1.031904817E0,1.660910571E0
1.247140367E0,-8.282157183E-1,-8.859425783E-1,-1.094118118E0,1.633379927E0
1.249526878E0,-7.061817646E-1,-8.644071817E-1,-1.185045362E0,1.627951157E0
1.251913336E0,-6.391827464E-1,-7.636095285E-1,-1.287936807E0,1.628015760E0
1.254299794E0,-6.176473498E-1,-6.080760360E-1,-1.393221021E0,1.640825867E0
1.256686253E0,-6.248258352E-1,-4.286143482E-1,-1.498804331E0,1.679443957E0
1.259072711E0,-6.367899179E-1,-2.344966233E-1,-1.589731574E0,1.728507027E0
1.261459169E0,-6.535396576E-1,-5.264209956E-2,-1.678265929E0,1.801794051E0
1.263845628E0,-6.678966284E-1,1.148554832E-1,-1.771586061E0,1.896785401E0
1.266232086E0,-6.846463680E-1,2.656033039E-1,-1.869691849E0,2.008739250E0
1.268618544E0,-7.037889361E-1,3.975076675E-1,-1.960619092E0,2.120697630E0
1.271005003E0,-7.301099896E-1,5.075774789E-1,-2.049452543E0,2.234043693E0
1.273391461E0,-7.588238716E-1,6.008976102E-1,-2.123630047E0,2.333815799E0
1.275777919E0,-7.899305820E-1,6.798607111E-1,-2.181057930E0,2.417274210E0
1.278164378E0,-8.234301209E-1,7.444669604E-1,-2.236092806E0,2.496473364E0
1.280550836E0,-8.548358679E-1,7.947162390E-1,-2.288734913E0,2.569168302E0
1.282937294E0,-8.811569214E-1,8.330013752E-1,-2.334198475E0,2.630363346E0
1.285323753E0,-9.146564603E-1,8.668000102E-1,-2.384447813E0,2.696948289E0
1.287710211E0,-9.625129104E-1,9.002995491E-1,-2.432304144E0,2.766418954E0
1.290096669E0,-1.034297585E0,9.361918569E-1,-2.482553482E0,2.847683002E0
1.292483128E0,-1.127617717E0,9.768698215E-1,-2.520838737E0,2.929236130E0
1.294869586E0,-1.237687469E0,1.027119160E0,-2.554637194E0,3.018777108E0
1.297256044E0,-1.362114310E0,1.077368379E0,-2.578565598E0,3.108870946E0
1.299642503E0,-1.498804331E0,1.132403374E0,-2.588136673E0,3.197999884E0
1.302029013E0,-1.632802367E0,1.192223907E0,-2.592922449E0,3.287961107E0
1.304415471E0,-1.754836321E0,1.247258782E0,-2.590529680E0,3.368374832E0
1.306801930E0,-1.869691849E0,1.295115232E0,-2.573779821E0,3.434736328E0
1.309188388E0,-1.980060697E0,1.340578914E0,-2.559422970E0,3.502633027E0
1.311574846E0,-2.085345030E0,1.383649707E0,-2.535494804E0,3.562567095E0
1.313961305E0,-2.185843468E0,1.419841170E0,-2.499303341E0,3.611146328E0
1.316347763E0,-2.276770830E0,1.446162224E0,-2.458625317E0,3.649645056E0
1.318734221E0,-2.358126640E0,1.467697620E0,-2.415554523E0,3.681005462E0
1.321120680E0,-2.429911375E0,1.479661703E0,-2.362912416E0,3.698272993E0
1.323507138E0,-2.489732027E0,1.479661703E0,-2.310270309E0,3.704795976E0
1.325893596E0,-2.535494804E0,1.474876046E0,-2.252842426E0,3.698552724E0
1.328280055E0,-2.566601276E0,1.467697620E0,-2.181057930E0,3.674043020E0
1.330666513E0,-2.576172590E0,1.458126307E0,-2.111665964E0,3.636197284E0
1.333052971E0,-2.568994284E0,1.443769336E0,-2.042274237E0,3.585398943E0
1.335439430E0,-2.545065880E0,1.427019596E0,-1.963011861E0,3.516697432E0
1.337825888E0,-2.513660192E0,1.407876968E0,-1.884048700E0,3.442418427E0
1.340212346E0,-2.470589399E0,1.390828133E0,-1.807478428E0,3.362319607E0
1.342598805E0,-2.410768747E0,1.371685624E0,-1.738086581E0,3.273266315E0
1.344985263E0,-2.336591244E0,1.359721422E0,-1.666301847E0,3.175698794E0
1.347371774E0,-2.250449657E0,1.350150228E0,-1.601695657E0,3.074550093E0
1.349758180E0,-2.152343988E0,1.345364571E0,-1.539482236E0,2.968601696E0
1.352144690E0,-2.042274237E0,1.338186026E0,-1.474876046E0,2.852522611E0
1.354531149E0,-1.922333837E0,1.333400369E0,-1.419841170E0,2.736653590E0
1.356917607E0,-1.800299883E0,1.323829174E0,-1.369292736E0,2.620794908E0
1.359304065E0,-1.678265929E0,1.314257860E0,-1.319043517E0,2.506736135E0
1.361690524E0,-1.558624864E0,1.302293777E0,-1.278365493E0,2.399895598E0
1.364076982E0,-1.438983679E0,1.285543919E0,-1.242473125E0,2.295002541E0
1.366463440E0,-1.321436286E0,1.264008522E0,-1.204187989E0,2.189515955E0
1.368849899E0,-1.206580877E0,1.244866014E0,-1.173081279E0,2.093238757E0
1.371236357E0,-1.106082320E0,1.220937729E0,-1.134796143E0,2.000467276E0
1.373622815E0,-1.012762189E0,1.189831018E0,-1.084546804E0,1.902006013E0
1.376009274E0,-9.409775138E-1,1.153938770E0,-1.019940615E0,1.804797004E0
1.378395732E0,-8.859425783E-1,1.115653515E0,-9.433703423E-1,1.708661646E0
1.380782190E0,-8.476574421E-1,1.077368379E0,-8.524430394E-1,1.614281542E0
1.383168649E0,-8.258228898E-1,1.041476011E0,-7.516453862E-1,1.526966442E0
1.385555107E0,-8.210372925E-1,1.005583763E0,-6.343970895E-1,1.444908512E0
1.387941565E0,-8.401798606E-1,9.744769931E-1,-4.980062246E-1,1.379680328E0
1.390328024E0,-8.763712645E-1,9.457631707E-1,-3.496512175E-1,1.335945561E0
1.392714482E0,-9.290133715E-1,9.170492887E-1,-1.890329868E-1,1.319006714E0
1.395100940E0,-9.936196208E-1,8.859425783E-1,-3.110669367E-2,1.331593718E0
1.397487399E0,-1.060618639E0,8.524430394E-1,1.196411327E-1,1.365974024E0
1.399873857E0,-1.122832060E0,8.138588071E-1,2.632105052E-1,1.411523207E0
1.402260315E0,-1.180259824E0,7.779664397E-1,3.927220106E-1,1.467131763E0
1.404646826E0,-1.235294700E0,7.444669604E-1,4.908277392E-1,1.523514332E0
1.407033284E0,-1.290329576E0,7.109674215E-1,5.697908998E-1,1.579584362E0
1.409419742E0,-1.350150228E0,6.774678826E-1,6.152545214E-1,1.631075257E0
1.411806201E0,-1.419841170E0,6.487540603E-1,6.367899179E-1,1.685921760E0
1.414192659E0,-1.491625786E0,6.224330068E-1,6.343970895E-1,1.736326582E0
1.416579117E0,-1.558624864E0,5.961119533E-1,6.104688644E-1,1.776888618E0
1.418965576E0,-1.618445396E0,5.673980713E-1,5.697908998E-1,1.807198866E0
1.421352034E0,-1.663909078E0,5.338985324E-1,5.147559643E-1,1.821706553E0
1.423738492E0,-1.695015788E0,5.027918816E-1,4.573282301E-1,1.826205714E0
1.426124951E0,-1.714158297E0,4.716851711E-1,3.927220106E-1,1.820729564E0
1.428511409E0,-1.721336842E0,4.429712892E-1,3.305086195E-1,1.807888280E0
1.430897867E0,-1.728515267E0,4.262215197E-1,2.656033039E-1,1.799993036E0
1.433284326E0,-1.733300924E0,4.190430641E-1,2.057827413E-1,1.795069837E0
1.435670784E0,-1.728515267E0,4.381856322E-1,1.387837082E-1,1.788583964E0
1.438057242E0,-1.726122379E0,4.597210586E-1,6.699903309E-2,1.787548822E0
1.440443701E0,-1.738086581E0,4.836492836E-1,-3.110669367E-2,1.804391648E0
1.442830159E0,-1.757229090E0,5.075774789E-1,-1.339980662E-1,1.833969589E0
1.445216617E0,-1.781157374E0,5.315057039E-1,-2.488535494E-1,1.875352765E0
1.447603076E0,-1.805085540E0,5.530411601E-1,-3.640081584E-1,1.922677890E0
1.449989534E0,-1.824228168E0,5.721837282E-1,-4.812564552E-1,1.971499531E0
1.452375992E0,-1.848156333E0,5.889334679E-1,-5.889334679E-1,2.027157392E0
1.454762451E0,-1.869691849E0,5.913262963E-1,-6.942176819E-1,2.080228975E0
1.457148961E0,-1.884048700E0,5.793621540E-1,-7.899305820E-1,2.123508968E0
1.459535367E0,-1.896012783E0,5.578267574E-1,-8.883354068E-1,2.166835241E0
1.461921878E0,-1.903191328E0,5.291129351E-1,-9.768698215E-1,2.203717853E0
1.464308336E0,-1.907976985E0,4.908277392E-1,-1.063011408E0,2.238589131E0
1.466694794E0,-1.905584097E0,4.645066857E-1,-1.149153113E0,2.273229001E0
1.469081253E0,-1.893620014E0,4.381856322E-1,-1.232901812E0,2.301705951E0
1.471467711E0,-1.879263043E0,4.046861231E-1,-1.307079315E0,2.324619707E0
1.473854169E0,-1.864906192E0,3.759722710E-1,-1.364507079E0,2.341177016E0
1.476240628E0,-1.852941990E0,3.448655605E-1,-1.419841170E0,2.359719310E0
1.478627086E0,-1.840977907E0,3.089732230E-1,-1.450947881E0,2.364299867E0
1.481013544E0,-1.829013824E0,2.679961324E-1,-1.458126307E0,2.354409867E0
1.483400003E0,-1.817049742E0,2.225325108E-1,-1.455733418E0,2.338877993E0
1.485786461E0,-1.797907114E0,1.722832322E-1,-1.412662625E0,2.292982162E0
1.488172919E0,-1.778764486E0,1.244267747E-1,-1.369292736E0,2.248209892E0
1.490559378E0,-1.762014747E0,8.614161611E-2,-1.319043517E0,2.202723801E0
1.492945836E0,-1.742872238E0,5.742774159E-2,-1.266401410E0,2.155150602E0
1.495332294E0,-1.733300924E0,3.110669367E-2,-1.218544960E0,2.118997768E0
1.497718753E0,-1.730908036E0,0.000000000E0,-1.180259824E0,2.095007370E0
1.500105211E0,-1.730908036E0,-2.871387079E-2,-1.134796143E0,2.069934637E0
1.502491669E0,-1.735693693E0,-5.503492057E-2,-1.113260746E0,2.062767783E0
1.504878128E0,-1.738086581E0,-9.092725813E-2,-1.082154036E0,2.049456047E0
1.507264586E0,-1.733300924E0,-1.363908947E-1,-1.058225870E0,2.035381184E0
1.509651044E0,-1.723729610E0,-1.866401732E-1,-1.022333503E0,2.012770259E0
1.512037503E0,-1.692622900E0,-2.392822653E-1,-9.888339639E-1,1.974847055E0
1.514423961E0,-1.644766450E0,-2.994019389E-1,-9.314061999E-1,1.913743897E0
1.516810419E0,-1.577767372E0,-3.640081584E-1,-8.572286963E-1,1.832127959E0
1.519196930E0,-1.491625786E0,-4.262215197E-1,-7.612167001E-1,1.728022897E0
1.521583388E0,-1.376471281E0,-4.932205677E-1,-6.583253145E-1,1.603537320E0
1.523969846E0,-1.230509043E0,-5.626124144E-1,-5.410770178E-1,1.457206084E0
1.526356305E0,-1.053440213E0,-6.248258352E-1,-4.070789516E-1,1.290680782E0
1.528742763E0,-8.428717852E-1,-6.678966284E-1,-2.775674164E-1,1.110658554E0
1.531129221E0,-5.913262963E-1,-6.918248534E-1,-1.339980662E-1,9.199151582E-1
1.533515680E0,-2.922234535E-1,-6.966105103E-1,2.392822644E-3,7.554246988E-1
1.535902138E0,6.221338734E-2,-6.822535396E-1,1.411765367E-1,6.994792437E-1
1.538288596E0,4.812564552E-1,-6.559324861E-1,2.874378264E-1,8.628300562E-1
1.540675055E0,9.768698215E-1,-6.176473498E-1,4.501497746E-1,1.240321618E0
1.543061513E0,1.558624864E0,-5.745765567E-1,6.272186637E-1,1.775627477E0
1.545447971E0,2.221735716E0,-5.291129351E-1,8.330013752E-1,2.431041213E0
1.547834430E0,2.973381281E0,-4.716851711E-1,1.074975610E0,3.196725779E0
1.550220888E0,3.835395575E0,-3.999004960E-1,1.345364571E0,4.084138275E0
1.552607346E0,4.817050934E0,-3.065803945E-1,1.651944876E0,5.101655918E0
1.554993805E0,5.920740604E0,-1.818545163E-1,2.008774519E0,6.254871337E0
1.557380263E0,7.136892796E0,-7.178467698E-3,2.422732830E0,7.536904184E0
1.559766721E0,8.432007790E0,2.177468538E-1,2.899203777E0,8.919167652E0
1.562153180E0,9.777372360E0,5.027918816E-1,3.466601849E0,1.038591057E1
1.564539638E0,1.114696407E1,8.476574421E-1,4.117748737E0,1.191340362E1
1.566926096E0,1.250668621E1,1.249651670E0,4.879264355E0,1.348280571E1
1.569312555E0,1.385474205E1,1.702194214E0,5.748157978E0,1.509611415E1
1.571699065E0,1.519053555E1,2.204986095E0,6.727420807E0,1.675925191E1
1.574085471E0,1.653111458E1,2.758027315E0,7.821538925E0,1.849488943E1
1.576471982E0,1.791267014E1,3.356531858E0,9.023334503E0,2.033594412E1
1.578858440E0,1.936840439E1,3.995714664E0,1.033280659E1,2.231294952E1
1.581244899E0,2.091955185E1,4.670789719E0,1.174546909E1,2.444176692E1
1.583631357E0,2.256192398E1,5.365306377E0,1.327059460E1,2.671957348E1
1.586017815E0,2.428326225E1,6.076273918E0,1.489382553E1,2.912771823E1
1.588404274E0,2.606920433E1,6.796812534E0,1.660319901E1,3.164595223E1
1.590790732E0,2.791765976E1,7.512565613E0,1.839392662E1,3.426617728E1
1.593177190E0,2.981367302E1,8.209475517E0,2.022054863E1,3.694754625E1
1.595563649E0,3.175784111E1,8.874979019E0,2.205673981E1,3.967146954E1
1.597950107E0,3.373760223E1,9.483055115E0,2.388365936E1,4.240970789E1
1.600336565E0,3.574159241E1,1.001695347E1,2.568395996E1,4.513830506E1
1.602723024E0,3.776921082E1,1.045992470E1,2.746751022E1,4.785799231E1
1.605109482E0,3.981626892E1,1.080927753E1,2.921995354E1,5.055671505E1
1.607495940E0,4.187050629E1,1.107039356E1,3.090061188E1,5.320282629E1
1.609882399E0,4.391009140E1,1.125224876E1,3.250948715E1,5.578150217E1
1.612268857E0,4.589733124E1,1.136471081E1,3.400350571E1,5.824053629E1
1.614655315E0,4.779095078E1,1.141974640E1,3.534886932E1,6.053039027E1
1.617041774E0,4.953860855E1,1.143410301E1,3.648845291E1,6.257970633E1
1.619428232E0,5.109005356E1,1.141256714E1,3.741507339E1,6.434538040E1
1.621814690E0,5.239713287E1,1.136710358E1,3.813561249E1,6.579510253E1
1.624201149E0,5.341707230E1,1.131206894E1,3.863600922E1,6.688862179E1
1.626587607E0,5.412325668E1,1.124985600E1,3.892075729E1,6.760703752E1
1.628974117E0,5.450640488E1,1.118285656E1,3.899971771E1,6.794838067E1
1.631360576E0,5.457579803E1,1.110628605E1,3.890161133E1,6.793528306E1
1.633747034E0,5.433412170E1,1.103210926E1,3.864558029E1,6.758243183E1
1.636133492E0,5.380261612E1,1.094596672E1,3.826243210E1,6.692196500E1
1.638519951E0,5.300999451E1,1.084995556E1,3.777160263E1,6.598844610E1
1.640906409E0,5.199274445E1,1.074467087E1,3.717309952E1,6.481151715E1
1.643292867E0,5.078855896E1,1.064177990E1,3.648845291E1,6.343604966E1
1.645679326E0,4.943811035E1,1.053649521E1,3.573680496E1,6.190528019E1
1.648065784E0,4.798267365E1,1.042642593E1,3.493939972E1,6.026449187E1
1.650452242E0,4.644558334E1,1.030409241E1,3.411836243E1,5.854424982E1
1.652838701E0,4.485824585E1,1.016770172E1,3.327548981E1,5.677061389E1
1.655225159E0,4.324697876E1,1.001456070E1,3.244009399E1,5.498138136E1
1.657611617E0,4.163092804E1,9.854242325E0,3.161875916E1,5.319761453E1
1.659998076E0,4.001966095E1,9.681659698E0,3.080968475E1,5.142513463E1
1.662384534E0,3.842992783E1,9.499805450E0,3.001706314E1,4.968027512E1
1.664770992E0,3.686681747E1,9.315557480E0,2.923909569E1,4.796734888E1
1.667157451E0,3.533451462E1,9.140582085E0,2.846591568E1,4.628592140E1
1.669543909E0,3.384767151E1,8.970691681E0,2.771157837E1,4.465500813E1
1.671930367E0,3.239941788E1,8.793622971E0,2.696471786E1,4.305979672E1
1.674316826E0,3.099393272E1,8.616254807E0,2.621068001E1,4.149534262E1
1.676703284E0,2.963421059E1,8.434400558E0,2.543959236E1,3.995620614E1
1.679089742E0,2.831486893E1,8.247760773E0,2.463530540E1,3.842727719E1
1.681476201E0,2.701975250E1,8.065607071E0,2.380200577E1,3.690063036E1
1.683862659E0,2.573899460E1,7.900502205E0,2.294029045E1,3.537189144E1
1.686249169E0,2.447020149E1,7.773682594E0,2.206391907E1,3.385317454E1
1.688635628E0,2.322264290E1,7.697112083E0,2.117348862E1,3.235511239E1
1.691022086E0,2.201127625E1,7.670791149E0,2.028515434E1,3.090023957E1
1.693408544E0,2.085015869E1,7.673183918E0,1.938993835E1,2.948858386E1
1.695795003E0,1.975364876E1,7.701898098E0,1.849442482E1,2.813484713E1
1.698181461E0,1.873370743E1,7.749754429E0,1.760609055E1,2.685116221E1
1.700567919E0,1.780020714E1,7.802396297E0,1.673001862E1,2.564406920E1
1.702954378E0,1.696212196E1,7.855038643E0,1.586321735E1,2.451646138E1
1.705340836E0,1.622722626E1,7.902894974E0,1.501107407E1,2.347575272E1
1.707727294E0,1.560000706E1,7.934001446E0,1.417298794E1,2.252070572E1
1.710113753E0,1.506610870E1,7.948358536E0,1.334237862E1,2.163753919E1
1.712500211E0,1.460878086E1,7.943572998E0,1.253539944E1,2.082433839E1
1.714886669E0,1.421366596E1,7.922037601E0,1.175264740E1,2.007266053E1
1.717273128E0,1.386670589E1,7.883752346E0,1.100339508E1,1.937817811E1
1.719659586E0,1.355055428E1,7.833503246E0,1.029930687E1,1.873651559E1
1.722046044E0,1.324666595E1,7.778468132E0,9.631410599E0,1.813126569E1
1.724432503E0,1.294247818E1,7.716254711E0,9.011369705E0,1.755713850E1
1.726818961E0,1.262154102E1,7.654041290E0,8.420043945E0,1.699366900E1
1.729205419E0,1.228176022E1,7.579864025E0,7.862216949E0,1.643503660E1
1.731591878E0,1.191535950E1,7.483851910E0,7.323532581E0,1.586247020E1
1.733978336E0,1.150349522E1,7.373782158E0,6.806384087E0,1.526531788E1
1.736364794E0,1.105364418E1,7.242177010E0,6.277271271E0,1.462997991E1
1.738751253E0,1.055563831E1,7.091429234E0,5.752943993E0,1.395730036E1
1.741137711E0,1.000738239E1,6.921239376E0,5.228616714E0,1.324347725E1
1.743524221E0,9.408877373E0,6.727420807E0,4.721039295E0,1.249293305E1
1.745910680E0,8.767302513E0,6.514459610E0,4.223331928E0,1.171069212E1
1.748297138E0,8.089534760E0,6.286842346E0,3.734897137E0,1.090478867E1
1.750683596E0,7.390532017E0,6.047560215E0,3.267997503E0,1.009320344E1
1.753070055E0,6.684350014E0,5.803193092E0,2.848954439E0,9.299146551E0
1.755456513E0,5.975775242E0,5.563910961E0,2.482553482E0,8.534053358E0
1.757842971E0,5.266901970E0,5.321936607E0,2.185843468E0,7.800075466E0
1.760229430E0,4.570291042E0,5.077868938E0,1.955833435E0,7.106166167E0
1.762615888E0,3.890430450E0,4.833800793E0,1.790728688E0,6.458156736E0
1.765002346E0,3.239283562E0,4.584648132E0,1.695015788E0,5.863875426E0
1.767388805E0,2.624029160E0,4.328616142E0,1.659123421E0,5.326831822E0
1.769775263E0,2.054238319E0,4.060320854E0,1.680658817E0,4.850846789E0
1.772161721E0,1.527518153E0,3.780360699E0,1.733300924E0,4.430436865E0
1.774548180E0,1.046261668E0,3.492922783E0,1.824228168E0,4.077129070E0
1.776934638E0,6.056832075E-1,3.200998545E0,1.934298038E0,3.788766651E0
1.779321096E0,2.153540403E-1,2.908775091E0,2.068595171E0,3.575812617E0
1.781707555E0,-1.316052526E-1,2.619243383E0,2.202593327E0,3.424788053E0
1.784094013E0,-4.381856322E-1,2.331805706E0,2.341377020E0,3.333372294E0
1.786480471E0,-6.990033388E-1,2.047059774E0,2.468196630E0,3.281928396E0
1.788866930E0,-9.074779749E-1,1.769193292E0,2.585743904E0,3.261844986E0
1.791253388E0,-1.065404296E0,1.496411443E0,2.681456804E0,3.250314464E0
1.793639846E0,-1.177866936E0,1.230509043E0,2.762812853E0,3.245713771E0
1.796026305E0,-1.242473125E0,9.720842242E-1,2.815454960E0,3.227301324E0
1.798412763E0,-1.268794179E0,7.157530785E-1,2.856132984E0,3.206187262E0
1.800799221E0,-1.268794179E0,4.692923427E-1,2.870489836E0,3.173292591E0
1.803185680E0,-1.247258782E0,2.297109663E-1,2.870489836E0,3.138173592E0
1.805572138E0,-1.211366415E0,0.000000000E0,2.848954439E0,3.095795534E0
1.807958649E0,-1.158724308E0,-2.201396823E-1,2.822633505E0,3.059144227E0
1.810345055E0,-1.096511006E0,-4.381856322E-1,2.781955481E0,3.022187839E0
1.812731565E0,-1.017547846E0,-6.535396576E-1,2.743670225E0,2.998373560E0
1.815118024E0,-9.218349457E-1,-8.715856671E-1,2.691028118E0,2.975075390E0
1.817504482E0,-8.138588071E-1,-1.086939692E0,2.640778780E0,2.969430352E0
1.819890940E0,-6.942176819E-1,-1.311864972E0,2.571387053E0,2.968999708E0
1.822277399E0,-5.673980713E-1,-1.534696579E0,2.492124796E0,2.981261505E0
1.824663857E0,-4.357928336E-1,-1.745265007E0,2.396411896E0,2.996440440E0
1.827050315E0,-3.113660514E-1,-1.946262121E0,2.295913219E0,3.025905249E0
1.829436774E0,-2.009970993E-1,-2.135594130E0,2.185843468E0,3.062527353E0
1.831823232E0,-1.052841991E-1,-2.307877541E0,2.080559254E0,3.109036879E0
1.834209690E0,-2.392822690E-2,-2.468196630E0,1.970489502E0,3.158385037E0
1.836596149E0,4.067798331E-2,-2.614457846E0,1.855334878E0,3.206136621E0
1.838982607E0,8.853443712E-2,-2.755634308E0,1.728515267E0,3.254093394E0
1.841369065E0,1.244267747E-1,-2.892025232E0,1.604088426E0,3.309439778E0
1.843755524E0,1.483550072E-1,-3.023630619E0,1.477268934E0,3.368482571E0
1.846141982E0,1.483550072E-1,-3.141177893E0,1.345364571E0,3.420382082E0
1.848528440E0,1.220339537E-1,-3.236890793E0,1.192223907E0,3.451630359E0
1.850914899E0,6.460621208E-2,-3.311068296E0,1.019940615E0,3.465202171E0
1.853301357E0,-2.871387079E-2,-3.358924866E0,8.353942037E-1,3.461370280E0
1.855687815E0,-1.507478207E-1,-3.382853031E0,6.463612318E-1,3.447347151E0
1.858074274E0,-3.041875660E-1,-3.382853031E0,4.429712892E-1,3.425266160E0
1.860460732E0,-4.836492836E-1,-3.358924866E0,2.249253243E-1,3.401012244E0
1.862847190E0,-6.894320250E-1,-3.315854073E0,-1.674975827E-2,3.386810491E0
1.865233649E0,-9.170492887E-1,-3.253640652E0,-2.656033039E-1,3.390826154E0
1.867620107E0,-1.163509965E0,-3.179463148E0,-5.171487927E-1,3.424935652E0
1.870006565E0,-1.422233939E0,-3.098107100E0,-7.731808424E-1,3.495543676E0
1.872393024E0,-1.690230131E0,-3.011666298E0,-1.039083242E0,3.606481079E0
1.874779482E0,-1.958226204E0,-2.930310488E0,-1.299900889E0,3.756475974E0
1.877165940E0,-2.214557409E0,-2.853740215E0,-1.556231976E0,3.933186456E0
1.879552399E0,-2.461018085E0,-2.779562712E0,-1.795514345E0,4.123887808E0
1.881938857E0,-2.691028118E0,-2.710170746E0,-2.013560295E0,4.317532034E0
1.884325367E0,-2.913560629E0,-2.655135870E0,-2.212164640E0,4.520205131E0
1.886711826E0,-3.133999348E0,-2.607279301E0,-2.403590441E0,4.732557899E0
1.889098284E0,-3.358924866E0,-2.573779821E0,-2.585743904E0,4.959111852E0
1.891484742E0,-3.581457376E0,-2.557030201E0,-2.760420084E0,5.194724192E0
1.893871201E0,-3.801896095E0,-2.547458887E0,-2.913560629E0,5.425200110E0
1.896257659E0,-4.022035599E0,-2.542673111E0,-3.052344322E0,5.653208184E0
1.898644117E0,-4.235296249E0,-2.540280342E0,-3.181855917E0,5.874943882E0
1.901030576E0,-4.438685894E0,-2.535494804E0,-3.289532900E0,6.078790428E0
1.903417034E0,-4.632504463E0,-2.525923491E0,-3.366103172E0,6.258676989E0
1.905803492E0,-4.817050934E0,-2.511267424E0,-3.421138287E0,6.419862222E0
1.908189951E0,-4.989334106E0,-2.482553482E0,-3.457030535E0,6.558016982E0
1.910576409E0,-5.152046204E0,-2.451446772E0,-3.473780155E0,6.679844304E0
1.912962867E0,-5.295615673E0,-2.422732830E0,-3.468994617E0,6.778429271E0
1.915349326E0,-5.420341492E0,-2.384447813E0,-3.442673683E0,6.849649287E0
1.917735784E0,-5.523232937E0,-2.343769789E0,-3.397209883E0,6.894954234E0
1.920122242E0,-5.606981754E0,-2.307877541E0,-3.337389469E0,6.921178484E0
1.922508701E0,-5.673980713E0,-2.276770830E0,-3.272783279E0,6.934612674E0
1.924895159E0,-5.721837044E0,-2.250449657E0,-3.196212769E0,6.929626172E0
1.927281617E0,-5.748157978E0,-2.238485575E0,-3.114856958E0,6.910461032E0
1.929668076E0,-5.755336761E0,-2.238485575E0,-3.026023388E0,6.876884211E0
1.932054534E0,-5.745765209E0,-2.250449657E0,-2.939881802E0,6.835294179E0
1.934440992E0,-5.717051506E0,-2.267199516E0,-2.856132984E0,6.781029951E0
1.936827451E0,-5.671587944E0,-2.286342144E0,-2.765205622E0,6.711231805E0
1.939213909E0,-5.614160061E0,-2.310270309E0,-2.676671267E0,6.634810560E0
1.941600367E0,-5.537590027E0,-2.331805706E0,-2.576172590E0,6.537498480E0
1.943986826E0,-5.444269657E0,-2.350948334E0,-2.487339020E0,6.430698684E0
1.946373284E0,-5.343770981E0,-2.370090723E0,-2.382055044E0,6.312480064E0
1.948759742E0,-5.235795021E0,-2.389233351E0,-2.274377823E0,6.188277627E0
1.951146201E0,-5.111368179E0,-2.413161755E0,-2.161915302E0,6.051719763E0
1.953532659E0,-4.970191956E0,-2.434697151E0,-2.044667006E0,5.900103512E0
1.955919117E0,-4.817050934E0,-2.456232548E0,-1.922333837E0,5.738678019E0
1.958305576E0,-4.654039860E0,-2.475374937E0,-1.805085540E0,5.571884950E0
1.960692034E0,-4.486542225E0,-2.501696110E0,-1.673480392E0,5.402599484E0
1.963078492E0,-4.319045067E0,-2.530709028E0,-1.556231976E0,5.242184319E0
1.965464951E0,-4.146462440E0,-2.559422970E0,-1.443769336E0,5.082151769E0
1.967851409E0,-3.978965044E0,-2.583351135E0,-1.338186026E0,4.929158929E0
1.970237919E0,-3.818645954E0,-2.604886532E0,-1.244866014E0,4.787189380E0
1.972624378E0,-3.667897940E0,-2.621636391E0,-1.149153113E0,4.652634258E0
1.975010836E0,-3.526422262E0,-2.635993242E0,-1.058225870E0,4.528129452E0
1.977397294E0,-3.392424345E0,-2.640778780E0,-9.744769931E-1,4.408158449E0
1.979783753E0,-3.256033421E0,-2.645564556E0,-9.002995491E-1,4.290839630E0
1.982170211E0,-3.124428272E0,-2.650350094E0,-8.353942037E-1,4.181422141E0
1.984556669E0,-2.994916677E0,-2.650350094E0,-7.875377536E-1,4.076039406E0
1.986943128E0,-2.868097067E0,-2.645564556E0,-7.468597889E-1,3.972756241E0
1.989329586E0,-2.750848770E0,-2.643171787E0,-7.133602500E-1,3.881031937E0
1.991716044E0,-2.640778780E0,-2.631207705E0,-6.942176819E-1,3.791952629E0
1.994102503E0,-2.535494804E0,-2.614457846E0,-6.822535396E-1,3.705346626E0
1.996488961E0,-2.439482689E0,-2.595315218E0,-6.702894568E-1,3.624365438E0
1.998875419E0,-2.350948334E0,-2.576172590E0,-6.631109715E-1,3.550118229E0
2.001261878E0,-2.264806747E0,-2.552244425E0,-6.631109715E-1,3.476063487E0
2.003648336E0,-2.178664923E0,-2.525923491E0,-6.750751138E-1,3.403321427E0
2.006034794E0,-2.106880426E0,-2.494517565E0,-6.990033388E-1,3.339186829E0
2.008421253E0,-2.042274237E0,-2.458625317E0,-7.325028181E-1,3.279067380E0
2.010807711E0,-1.982453585E0,-2.420340061E0,-7.683951855E-1,3.221583367E0
2.013194169E0,-1.927119493E0,-2.379662037E0,-8.114659786E-1,3.167815965E0
2.015580628E0,-1.879263043E0,-2.343769789E0,-8.596215248E-1,3.124713679E0
2.017967086E0,-1.838585138E0,-2.307877541E0,-9.074779749E-1,3.087103874E0
2.020353544E0,-1.800299883E0,-2.279163599E0,-9.577272534E-1,3.058252421E0
2.022740003E0,-1.759621978E0,-2.255235434E0,-1.012762189E0,3.034475839E0
2.025126461E0,-1.723729610E0,-2.233700037E0,-1.065404296E0,3.015915440E0
2.027512919E0,-1.692622900E0,-2.216950178E0,-1.125224829E0,3.007652122E0
2.029899378E0,-1.661516190E0,-2.204986095E0,-1.185045362E0,3.004485353E0
2.032285836E0,-1.632802367E0,-2.202593327E0,-1.249651670E0,3.013152872E0
2.034672294E0,-1.604088426E0,-2.202593327E0,-1.314257860E0,3.025192682E0
2.037058753E0,-1.582553029E0,-2.207378864E0,-1.378864050E0,3.046023901E0
2.039445211E0,-1.568196177E0,-2.209771633E0,-1.441376567E0,3.069184962E0
2.041831669E0,-1.563410521E0,-2.209771633E0,-1.503589988E0,3.096469922E0
2.044218128E0,-1.561017632E0,-2.207378864E0,-1.561017632E0,3.121870200E0
2.046604586E0,-1.565803289E0,-2.204986095E0,-1.618445396E0,3.151677192E0
2.048991044E0,-1.575374603E0,-2.200200319E0,-1.661516190E0,3.175424796E0
2.051377503E0,-1.587338686E0,-2.190629244E0,-1.692622900E0,3.191155413E0
2.053763961E0,-1.599302888E0,-2.181057930E0,-1.704586983E0,3.196936065E0
2.056150419E0,-1.604088426E0,-2.171486616E0,-1.699801445E0,3.190263117E0
2.058536878E0,-1.604088426E0,-2.164308071E0,-1.680658817E0,3.175207578E0
2.060923388E0,-1.604088426E0,-2.159522533E0,-1.647159338E0,3.154325781E0
2.063309794E0,-1.599302888E0,-2.161915302E0,-1.596910000E0,3.127581981E0
2.065696253E0,-1.594517231E0,-2.169093609E0,-1.537089467E0,3.100015534E0
2.068082763E0,-1.589731574E0,-2.176272154E0,-1.465304732E0,3.067657889E0
2.070469221E0,-1.594517231E0,-2.188236237E0,-1.386042476E0,3.041706227E0
2.072855680E0,-1.604088426E0,-2.202593327E0,-1.302293777E0,3.020014259E0
2.075242138E0,-1.623231053E0,-2.214557409E0,-1.208973646E0,3.000126805E0
2.077628596E0,-1.642373681E0,-2.221735716E0,-1.113260746E0,2.978733017E0
2.080015055E0,-1.659123421E0,-2.226521492E0,-1.012762189E0,2.955634573E0
2.082401513E0,-1.666301847E0,-2.224128723E0,-9.146564603E-1,2.925731851E0
2.084787971E0,-1.668694735E0,-2.224128723E0,-8.114659786E-1,2.896509577E0
2.087174430E0,-1.656730533E0,-2.221735716E0,-7.085745931E-1,2.860584486E0
2.089560888E0,-1.639980793E0,-2.219342947E0,-6.008976102E-1,2.824198657E0
2.091947346E0,-1.616052628E0,-2.214557409E0,-4.932205677E-1,2.785526367E0
2.094333805E0,-1.580160260E0,-2.207378864E0,-3.855435550E-1,2.741910234E0
2.096720263E0,-1.532303810E0,-2.200200319E0,-2.727817893E-1,2.695041060E0
2.099106721E0,-1.472483277E0,-2.197807550E0,-1.674975902E-1,2.650777334E0
2.101493180E0,-1.402792215E0,-2.193022013E0,-6.939185411E-2,2.604224794E0
2.103879638E0,-1.326221943E0,-2.188236237E0,1.674975827E-2,2.558812815E0
2.106266096E0,-1.244866014E0,-2.183450699E0,8.614161611E-2,2.514869524E0
2.108652555E0,-1.158724308E0,-2.176272154E0,1.339980662E-1,2.469161394E0
2.111039013E0,-1.074975610E0,-2.164308071E0,1.674975902E-1,2.422366081E0
2.113425471E0,-9.936196208E-1,-2.145165443E0,1.938186288E-1,2.372041397E0
2.115811930E0,-9.146564603E-1,-2.116451740E0,2.033899277E-1,2.314591081E0
2.118198388E0,-8.428717852E-1,-2.078166485E0,2.129612118E-1,2.252678686E0
2.120584846E0,-7.755736113E-1,-2.027917147E0,2.177468538E-1,2.182057761E0
2.122971305E0,-7.109674215E-1,-1.968096614E0,2.321037948E-1,2.105409967E0
2.125357763E0,-6.439684033E-1,-1.905584097E0,2.464607358E-1,2.026496718E0
2.127744221E0,-5.817549825E-1,-1.836192250E0,2.727817893E-1,1.945366481E0
2.130130680E0,-5.267201066E-1,-1.759621978E0,2.946162820E-1,1.860242546E0
2.132517138E0,-4.788636267E-1,-1.683051586E0,3.161516786E-1,1.778180221E0
2.134903596E0,-4.334000051E-1,-1.599302888E0,3.352942765E-1,1.690570183E0
2.137290055E0,-3.903291821E-1,-1.513161182E0,3.520440459E-1,1.601857873E0
2.139676513E0,-3.496512175E-1,-1.417448282E0,3.640081584E-1,1.504632030E0
2.142062971E0,-3.113660514E-1,-1.304686546E0,3.687937856E-1,1.391101958E0
2.144449430E0,-2.632105052E-1,-1.180259824E0,3.735794425E-1,1.265643955E0
2.146835888E0,-2.057827413E-1,-1.043868899E0,3.783650696E-1,1.129233785E0
2.149222346E0,-1.268195957E-1,-9.050851464E-1,3.807578981E-1,9.900701536E-1
2.151608805E0,-3.589234129E-2,-7.612167001E-1,3.855435550E-1,8.540392014E-1
2.153995263E0,7.178468257E-2,-6.176473498E-1,3.855435550E-1,7.316318215E-1
2.156381721E0,1.986042857E-1,-4.764707983E-1,3.831507266E-1,6.428627872E-1
2.158768180E0,3.520440459E-1,-3.400799036E-1,3.664009571E-1,6.114237585E-1
2.161154638E0,5.386841893E-1,-2.105683982E-1,3.376871049E-1,6.697404624E-1
2.163541096E0,7.683951855E-1,-8.853443712E-2,2.898306549E-1,8.259971647E-1
2.165927555E0,1.036690354E0,3.349951655E-2,2.321037948E-1,1.062883474E0
2.168314065E0,1.345364571E0,1.674975902E-1,1.818545163E-1,1.367893393E0
2.170700524E0,1.687837243E0,3.233301640E-1,1.244267747E-1,1.723026110E0
2.173086930E0,2.059023857E0,5.051847100E-1,7.896314561E-2,2.121562164E0
2.175473440E0,2.458625317E0,7.181459069E-1,5.503492057E-2,2.561952543E0
2.177859899E0,2.894418001E0,9.672985673E-1,6.939185411E-2,3.052562418E0
2.180246357E0,3.366103172E0,1.249651670E0,1.339980662E-1,3.593081595E0
2.182632815E0,3.885644913E0,1.568196177E0,2.727817893E-1,4.199033882E0
2.185019274E0,4.457828522E0,1.922333837E0,4.908277392E-1,4.879396928E0
2.187405732E0,5.092225552E0,2.317448616E0,8.114659786E-1,5.653300469E0
2.189792190E0,5.784050465E0,2.755634308E0,1.230509043E0,6.524025806E0
2.192178649E0,6.543173313E0,3.239283562E0,1.771586061E0,7.512961611E0
2.194565107E0,7.352246761E0,3.780360699E0,2.427518606E0,8.616235027E0
2.196951565E0,8.180761337E0,4.390829563E0,3.200998545E0,9.820928265E0
2.199338024E0,8.989834785E0,5.073082924E0,4.086641788E0,1.110197914E1
2.201724482E0,9.755837440E0,5.841478348E0,5.082654476E0,1.245522420E1
2.204110940E0,1.045992470E1,6.689135551E0,6.179165363E0,1.386854872E1
2.206497399E0,1.109910774E1,7.615756035E0,7.366603374E0,1.534460094E1
2.208883857E0,1.169761276E1,8.609076500E0,8.637790680E0,1.689857303E1
2.211270315E0,1.229372501E1,9.650552750E0,9.973882675E0,1.854042013E1
2.213656774E0,1.291615772E1,1.071595669E1,1.135513973E1,2.026321930E1
2.216043232E0,1.358166122E1,1.179093266E1,1.274148178E1,2.204161910E1
2.218429690E0,1.430220032E1,1.285155106E1,1.411555958E1,2.385297299E1
2.220816149E0,1.509003735E1,1.388345623E1,1.544925976E1,2.567370661E1
2.223202607E0,1.593978786E1,1.487946892E1,1.675873184E1,2.750146406E1
2.225589065E0,1.684965897E1,1.584168243E1,1.808256149E1,2.935726383E1
2.227975524E0,1.781695747E1,1.677308846E1,1.945933151E1,3.126413365E1
2.230361982E0,1.885604095E1,1.768056679E1,2.098654938E1,3.329546481E1
2.232748440E0,1.999801445E1,1.857338905E1,2.269113731E1,3.549336664E1
2.235134899E0,2.127638054E1,1.944018936E1,2.465444756E1,3.792686535E1
2.237521357E0,2.271506500E1,2.027318954E1,2.684268379E1,4.058948220E1
2.239907815E0,2.433590317E1,2.102722740E1,2.926541710E1,4.348384888E1
2.242294274E0,2.613889503E1,2.166192436E1,3.186312485E1,4.655898974E1
2.244680732E0,2.808755112E1,2.214288139E1,3.458525848E1,4.975296804E1
2.247067190E0,3.012982368E1,2.245664024E1,3.728077316E1,5.293357171E1
2.249453649E0,3.218136978E1,2.259542465E1,3.988566208E1,5.600946184E1
2.251840107E0,3.415903854E1,2.257867432E1,4.227489471E1,5.885408373E1
2.254226565E0,3.597848129E1,2.243031883E1,4.437459564E1,6.137324382E1
2.256613024E0,3.758256912E1,2.219342995E1,4.613422012E1,6.350877184E1
2.258999482E0,3.894468307E1,2.190838432E1,4.755166626E1,6.525202378E1
2.261385940E0,4.004837418E1,2.162124634E1,4.860989380E1,6.659033220E1
2.263772399E0,4.088885117E1,2.137448692E1,4.934239578E1,6.755322984E1
2.266158857E0,4.148496628E1,2.118306160E1,4.973990250E1,6.814530377E1
2.268545315E0,4.186333084E1,2.103440666E1,4.984757996E1,6.840881493E1
2.270931774E0,4.205475616E1,2.088844490E1,4.966572571E1,6.834920597E1
2.273318232E0,4.209543228E1,2.069941139E1,4.922753906E1,6.799883567E1
2.275704742E0,4.201647186E1,2.041915131E1,4.852823639E1,6.735959750E1
2.278091149E0,4.183461380E1,2.001476479E1,4.760191727E1,6.645801869E1
2.280477659E0,4.155196381E1,1.947847366E1,4.646233368E1,6.530486263E1
2.282864117E0,4.115684891E1,1.883689880E1,4.511667252E1,6.390797374E1
2.285250576E0,4.062534332E1,1.812323952E1,4.360620117E1,6.229262486E1
2.287637034E0,3.993112564E1,1.738595009E1,4.194468689E1,6.046588140E1
2.290023492E0,3.905744553E1,1.666062546E1,4.018745804E1,5.846445309E1
2.292409951E0,3.798964691E1,1.597568035E1,3.832942963E1,5.628126518E1
2.294796409E0,3.673491287E1,1.534846210E1,3.643102264E1,5.396525293E1
2.297182867E0,3.531536865E1,1.478345680E1,3.448685455E1,5.152736162E1
2.299569326E0,3.375914001E1,1.428066444E1,3.254777145E1,4.902014217E1
2.301955784E0,3.209762192E1,1.383320713E1,3.062304497E1,4.646919233E1
2.304342242E0,3.035235786E1,1.343809223E1,2.873869705E1,4.390627129E1
2.306728701E0,2.855205727E1,1.310040474E1,2.690729141E1,4.136233685E1
2.309115159E0,2.671347237E1,1.281805134E1,2.513570404E1,3.885505969E1
2.311501617E0,2.486023140E1,1.258564854E1,2.344547462E1,3.641592968E1
2.313888076E0,2.301925278E1,1.239900875E1,2.183899307E1,3.406703737E1
2.316274534E0,2.120698929E1,1.225783253E1,2.032583237E1,3.182970805E1
2.318660992E0,1.944497490E1,1.215733337E1,1.891346931E1,2.972586626E1
2.321047451E0,1.773799515E1,1.209272766E1,1.759412575E1,2.775650906E1
2.323433909E0,1.609562111E1,1.205414295E1,1.637318802E1,2.593169233E1
2.325820367E0,1.453460312E1,1.204696465E1,1.524078465E1,2.426243107E1
2.328206826E0,1.305254841E1,1.205892849E1,1.419930840E1,2.274658513E1
2.330593284E0,1.167129135E1,1.208554935E1,1.324666595E1,2.139517946E1
2.332979742E0,1.039771175E1,1.211665535E1,1.239661598E1,2.021390201E1
2.335366201E0,9.233902931E0,1.214058399E1,1.163061333E1,1.918149914E1
2.337752659E0,8.190332413E0,1.215015507E1,1.095075321E1,1.829280758E1
2.340139117E0,7.270890713E0,1.213101292E1,1.034955597E1,1.752542824E1
2.342525576E0,6.478567123E0,1.207597733E1,9.808479309E0,1.685251692E1
2.344912034E0,5.807978630E0,1.199193001E1,9.337093353E0,1.627022782E1
2.347298492E0,5.252544880E0,1.187228870E1,8.915657043E0,1.574894940E1
2.349684951E0,4.809872627E0,1.171914768E1,8.549256325E0,1.528277072E1
2.352071409E0,4.460221291E0,1.154207897E1,8.195118904E0,1.484160149E1
2.354457867E0,4.196712017E0,1.133839035E1,7.867002487E0,1.442432722E1
2.356844326E0,4.005286217E0,1.111585712E1,7.531708241E0,1.401182452E1
2.359230784E0,3.864109516E0,1.088345432E1,7.203891754E0,1.361164857E1
2.361617242E0,3.768396616E0,1.065374374E1,6.849454880E0,1.321431425E1
2.364003701E0,3.703790426E0,1.043360424E1,6.500102520E0,1.283859392E1
2.366390159E0,3.651148319E0,1.022752190E1,6.150451660E0,1.248043043E1
2.368776617E0,3.610171080E0,1.003848934E1,5.822335720E0,1.215336154E1
2.371163076E0,3.569493294E0,9.866206169E0,5.496912003E0,1.184480258E1
2.373549534E0,3.528815269E0,9.703194618E0,5.183153152E0,1.155290438E1
2.375935992E0,3.492922783E0,9.542876244E0,4.879264355E0,1.127272004E1
2.378322451E0,3.461816072E0,9.377771378E0,4.579862595E0,1.099554036E1
2.380708909E0,3.440280676E0,9.200403214E0,4.299902439E0,1.072250490E1
2.383095367E0,3.423531055E0,9.008976936E0,4.029214382E0,1.044589866E1
2.385481826E0,3.409173965E0,8.803194046E0,3.761218071E0,1.016196113E1
2.387868284E0,3.394817114E0,8.563612938E0,3.540779352E0,9.869010498E0
2.390254742E0,3.366103172E0,8.295617104E0,3.346960783E0,9.557722541E0
2.392641201E0,3.318246841E0,7.996214867E0,3.172284603E0,9.220282203E0
2.395027659E0,3.248854876E0,7.682755470E0,3.037987471E0,8.877452196E0
2.397414169E0,3.153141975E0,7.359425068E0,2.930310488E0,8.525852521E0
2.399800576E0,3.037987471E0,7.029215813E0,2.872882605E0,8.178795588E0
2.402187034E0,2.906382322E0,6.693921566E0,2.844168901E0,7.832301123E0
2.404573544E0,2.767598391E0,6.358626842E0,2.832204819E0,7.490869129E0
2.406959951E0,2.631207705E0,6.021239281E0,2.846561670E0,7.161109537E0
2.409346461E0,2.504088879E0,5.681159019E0,2.870489836E0,6.840010293E0
2.411732919E0,2.389233351E0,5.329114914E0,2.901596546E0,6.521285478E0
2.414119378E0,2.288734913E0,4.963013172E0,2.915953398E0,6.194561443E0
2.416505836E0,2.204986095E0,4.582255363E0,2.932703257E0,5.870244994E0
2.418892294E0,2.135594130E0,4.194318771E0,2.932703257E0,5.545612737E0
2.421278753E0,2.073380709E0,3.799503326E0,2.937488794E0,5.231058546E0
2.423665211E0,2.015953064E0,3.397209883E0,2.911167860E0,4.907137664E0
2.426051669E0,1.958226204E0,2.987738132E0,2.882453918E0,4.590181871E0
2.428438128E0,1.907976985E0,2.578565598E0,2.834597588E0,4.280691556E0
2.430824586E0,1.857727647E0,2.178664923E0,2.786741018E0,3.995454712E0
2.433211044E0,1.802692771E0,1.793121457E0,2.714956284E0,3.719673831E0
2.435597503E0,1.745265007E0,1.429412484E0,2.645564556E0,3.476806267E0
2.437983961E0,1.683051586E0,1.084546804E0,2.557030201E0,3.247661907E0
2.440370419E0,1.620838284E0,7.683951855E-1,2.465803623E0,3.049218820E0
2.442756878E0,1.553839207E0,4.740779996E-1,2.372483730E0,2.875386110E0
2.445143336E0,1.491625786E0,2.105683982E-1,2.271985054E0,2.726023225E0
2.447529794E0,1.427019596E0,-2.871387079E-2,2.157129526E0,2.586584081E0
2.449916253E0,1.366899967E0,-2.344966233E-1,2.025524378E0,2.454822436E0
2.452302711E0,1.307079315E0,-4.142574072E-1,1.881655931E0,2.328238514E0
2.454689169E0,1.256830096E0,-5.673980713E-1,1.721336842E0,2.205575432E0
2.457075628E0,1.213759303E0,-7.013961077E-1,1.565803289E0,2.101644139E0
2.459462086E0,1.180259824E0,-8.186444640E-1,1.388435364E0,1.997734910E0
2.461848544E0,1.156331539E0,-9.266205430E-1,1.218544960E0,1.918483797E0
2.464235003E0,1.139581800E0,-1.019940615E0,1.048654556E0,1.854346762E0
2.466621461E0,1.130010486E0,-1.103689432E0,8.931210637E-1,1.814585158E0
2.469007919E0,1.122832060E0,-1.177866936E0,7.396813035E-1,1.787526443E0
2.471394378E0,1.120439172E0,-1.249651670E0,6.248258352E-1,1.790927290E0
2.473780836E0,1.110867858E0,-1.319043517E0,5.243272781E-1,1.802448971E0
2.476167294E0,1.086939692E0,-1.398006678E0,4.645066857E-1,1.830744938E0
2.478553753E0,1.043868899E0,-1.474876046E0,4.238287210E-1,1.855950542E0
2.480940211E0,9.816554785E-1,-1.546660781E0,4.118646085E-1,1.877615377E0
2.483326669E0,9.050851464E-1,-1.613659739E0,4.214358926E-1,1.897547124E0
2.485713128E0,8.162516356E-1,-1.671087503E0,4.381856322E-1,1.910708462E0
2.488099586E0,7.301099896E-1,-1.716551185E0,4.668995142E-1,1.922915423E0
2.490486044E0,6.583253145E-1,-1.742872238E0,4.860421121E-1,1.925417563E0
2.492872503E0,5.961119533E-1,-1.759621978E0,5.027918816E-1,1.924686635E0
2.495258961E0,5.362913609E-1,-1.764407635E0,4.884349108E-1,1.907697929E0
2.497645419E0,4.764707983E-1,-1.754836321E0,4.716851711E-1,1.878553123E0
2.500031878E0,4.094717801E-1,-1.733300924E0,4.238287210E-1,1.830745755E0
2.502418336E0,3.257229924E-1,-1.699801445E0,3.664009571E-1,1.769087358E0
2.504804794E0,2.249253243E-1,-1.651944876E0,2.799602449E-1,1.690529802E0
2.507191253E0,1.148554832E-1,-1.592124343E0,1.866401732E-1,1.607136043E0
2.509577711E0,-1.674975827E-2,-1.520339727E0,7.417750359E-2,1.522240370E0
2.511964169E0,-1.579262912E-1,-1.436590910E0,-5.024927482E-2,1.446118649E0
2.514350628E0,-3.041875660E-1,-1.342971683E0,-1.866401732E-1,1.389581797E0
2.516737086E0,-4.573282301E-1,-1.237687469E0,-3.305086195E-1,1.360240908E0
2.519123544E0,-6.080760360E-1,-1.130010486E0,-4.788636267E-1,1.369668039E0
2.521510003E0,-7.564310431E-1,-1.015154958E0,-6.367899179E-1,1.417119935E0
2.523896461E0,-8.931210637E-1,-9.026923180E-1,-7.827520967E-1,1.491716964E0
2.526282919E0,-1.015154958E0,-7.899305820E-1,-9.290133715E-1,1.586693341E0
2.528669378E0,-1.122832060E0,-6.870391965E-1,-1.067797065E0,1.694982379E0
2.531055836E0,-1.211366415E0,-5.889334679E-1,-1.197009563E0,1.801966458E0
2.533442294E0,-1.275972724E0,-4.908277392E-1,-1.319043517E0,1.899708941E0
2.535828753E0,-1.323829174E0,-4.046861231E-1,-1.424626827E0,1.986417916E0
2.538215211E0,-1.359721422E0,-3.233301640E-1,-1.529910922E0,2.072199838E0
2.540601669E0,-1.374078393E0,-2.416750938E-1,-1.625623941E0,2.142230492E0
2.542988128E0,-1.376471281E0,-1.651047617E-1,-1.714158297E0,2.204602331E0
2.545374586E0,-1.362114310E0,-9.571290761E-2,-1.788335800E0,2.250035842E0
2.547761044E0,-1.338186026E0,-3.349951655E-2,-1.843370795E0,2.278130801E0
2.550147503E0,-1.309472203E0,2.632104978E-2,-1.896012783E0,2.304403333E0
2.552533961E0,-1.271187067E0,7.896314561E-2,-1.924726725E0,2.307969823E0
2.554920419E0,-1.225723386E0,1.292124242E-1,-1.948654890E0,2.305721048E0
2.557306878E0,-1.173081279E0,1.746760458E-1,-1.955833435E0,2.287338155E0
2.559693336E0,-1.120439172E0,2.225325108E-1,-1.953440547E0,2.262926120E0
2.562079794E0,-1.058225870E0,2.703889608E-1,-1.927119493E0,2.215116639E0
2.564466253E0,-9.936196208E-1,3.209373355E-1,-1.896012783E0,2.164519623E0
2.566852711E0,-9.337990284E-1,3.711866140E-1,-1.840977907E0,2.097369730E0
2.569239169E0,-8.739784956E-1,4.190430641E-1,-1.778764486E0,2.025694596E0
2.571625628E0,-8.090731502E-1,4.668995142E-1,-1.702194214E0,1.941664147E0
2.574012086E0,-7.372884750E-1,5.051847100E-1,-1.616052628E0,1.846735493E0
2.576398544E0,-6.583253145E-1,5.338985324E-1,-1.522732496E0,1.742743274E0
2.578785003E0,-5.745765567E-1,5.602195859E-1,-1.427019596E0,1.637183292E0
2.581171461E0,-4.836492836E-1,5.793621540E-1,-1.326221943E0,1.525923254E0
2.583557919E0,-3.903291821E-1,5.889334679E-1,-1.218544960E0,1.408563566E0
2.585944378E0,-3.017947674E-1,5.937191248E-1,-1.122832060E0,1.305501557E0
2.588330836E0,-2.225325108E-1,5.913262963E-1,-1.017547846E0,1.197744182E0
2.590717294E0,-1.579262912E-1,5.817549825E-1,-9.218349457E-1,1.101435082E0
2.593103753E0,-1.100698411E-1,5.602195859E-1,-8.186444640E-1,9.980681905E-1
2.595490211E0,-7.657032460E-2,5.267201066E-1,-7.253243923E-1,8.996624697E-1
2.597876669E0,-5.982056633E-2,4.884349108E-1,-6.272186637E-1,7.972141584E-1
2.600263128E0,-5.742774159E-2,4.477569461E-1,-5.434698462E-1,7.065010276E-1
2.602649586E0,-6.460621208E-2,3.951148391E-1,-4.573282301E-1,6.078147816E-1
2.605036044E0,-8.135596663E-2,3.376871049E-1,-3.807578981E-1,5.153910662E-1
2.607422503E0,-1.124626622E-1,2.751746178E-1,-3.185445070E-1,4.357057764E-1
2.609808961E0,-1.555334777E-1,2.201396823E-1,-2.584248483E-1,3.734106916E-1
2.612195419E0,-2.177468538E-1,1.722832322E-1,-2.201396823E-1,3.543397863E-1
2.614581878E0,-2.922234535E-1,1.292124242E-1,-1.770688742E-1,3.652995806E-1
2.616968336E0,-3.855435550E-1,8.614161611E-2,-1.483550072E-1,4.219874631E-1
2.619354794E0,-4.908277392E-1,4.546362907E-2,-1.172483116E-1,5.066813375E-1
2.621741253E0,-6.032904387E-1,4.785645287E-3,-8.614161611E-2,6.094281203E-1
2.624127763E0,-7.133602500E-1,-3.110669367E-2,-6.460621208E-2,7.169549744E-1
2.626514169E0,-8.258228898E-1,-7.178468257E-2,-3.110669367E-2,8.295204111E-1
2.628900628E0,-9.409775138E-1,-1.124626622E-1,-7.178467698E-3,9.477014626E-1
2.631287086E0,-1.051047325E0,-1.531406492E-1,1.196411345E-2,1.062212633E0
2.633673596E0,-1.156331539E0,-1.962114573E-1,2.871387079E-2,1.173211852E0
2.636060055E0,-1.247258782E0,-2.368894368E-1,3.589234129E-2,1.270062729E0
2.638446513E0,-1.331007600E0,-2.799602449E-1,4.307080805E-2,1.360813751E0
2.640832919E0,-1.407876968E0,-3.257229924E-1,4.785645381E-2,1.445857277E0
2.643219378E0,-1.470090389E0,-3.759722710E-1,5.024927482E-2,1.518237758E0
2.645605888E0,-1.520339727E0,-4.214358926E-1,5.024927482E-2,1.578469540E0
2.647992294E0,-1.558624864E0,-4.645066857E-1,5.264209956E-2,1.627221287E0
2.650378805E0,-1.580160260E0,-5.027918816E-1,5.264209956E-2,1.659059166E0
2.652765263E0,-1.599302888E0,-5.362913609E-1,5.024927482E-2,1.687573151E0
2.655151721E0,-1.611266971E0,-5.673980713E-1,4.785645381E-2,1.708921315E0
2.657538180E0,-1.618445396E0,-5.937191248E-1,5.264209956E-2,1.724714206E0
2.659924638E0,-1.623231053E0,-6.200401783E-1,5.742774159E-2,1.738570338E0
2.662311096E0,-1.628016710E0,-6.415755749E-1,5.982056633E-2,1.750895807E0
2.664697555E0,-1.630409479E0,-6.559324861E-1,6.939185411E-2,1.758777338E0
2.667084013E0,-1.620838284E0,-6.702894568E-1,7.417750359E-2,1.755536101E0
2.669470471E0,-1.608874083E0,-6.870391965E-1,7.896314561E-2,1.751209253E0
2.671856930E0,-1.587338686E0,-7.109674215E-1,8.135596663E-2,1.741188551E0
2.674243388E0,-1.551446438E0,-7.348956466E-1,8.853443712E-2,1.718981096E0
2.676629846E0,-1.501197100E0,-7.636095285E-1,8.135596663E-2,1.686212038E0
2.679016305E0,-1.436590910E0,-7.923234105E-1,7.657032460E-2,1.642386326E0
2.681402763E0,-1.374078393E0,-8.186444640E-1,7.178468257E-2,1.601069402E0
2.683789221E0,-1.309472203E0,-8.401798606E-1,5.982056633E-2,1.556983670E0
2.686175680E0,-1.249651670E0,-8.548358679E-1,4.546362907E-2,1.514741100E0
2.688562138E0,-1.199402332E0,-8.691928387E-1,3.110669367E-2,1.481563287E0
2.690948596E0,-1.163509965E0,-8.763712645E-1,4.785645287E-3,1.456641663E0
2.693335055E0,-1.137188911E0,-8.811569214E-1,-2.871387079E-2,1.438909527E0
2.695721513E0,-1.132403374E0,-8.835497499E-1,-5.503492057E-2,1.437367873E0
2.698107971E0,-1.139581800E0,-8.907282352E-1,-8.614161611E-2,1.448952672E0
2.700494430E0,-1.151545882E0,-8.931210637E-1,-1.148554832E-1,1.461819050E0
2.702880888E0,-1.175474167E0,-8.931210637E-1,-1.387837082E-1,1.482789826E0
2.705267346E0,-1.208973646E0,-8.955138922E-1,-1.627119333E-1,1.513287012E0
2.707653805E0,-1.247258782E0,-9.002995491E-1,-1.890329868E-1,1.549815221E0
2.710040263E0,-1.287936807E0,-9.026923180E-1,-2.105683982E-1,1.586812430E0
2.712426721E0,-1.335793257E0,-9.050851464E-1,-2.416750938E-1,1.631542092E0
2.714813180E0,-1.386042476E0,-9.122636318E-1,-2.608176768E-1,1.679691799E0
2.717199638E0,-1.446162224E0,-9.170492887E-1,-3.017947674E-1,1.738805526E0
2.719586096E0,-1.510768414E0,-9.194421172E-1,-3.520440459E-1,1.803255394E0
2.721972555E0,-1.575374603E0,-9.290133715E-1,-3.831507266E-1,1.868602543E0
2.724359013E0,-1.642373681E0,-9.361918569E-1,-4.214358926E-1,1.936867242E0
2.726745471E0,-1.706979871E0,-9.433703423E-1,-4.549354017E-1,2.002671741E0
2.729131930E0,-1.769193292E0,-9.481559992E-1,-4.836492836E-1,2.064694004E0
2.731518388E0,-1.829013824E0,-9.505487680E-1,-5.123631358E-1,2.123994000E0
2.733904846E0,-1.888834357E0,-9.577272534E-1,-5.554339290E-1,2.189393425E0
2.736291305E0,-1.941476464E0,-9.696913958E-1,-5.961119533E-1,2.250551427E0
2.738677763E0,-1.987239242E0,-9.840483069E-1,-6.511468887E-1,2.311160562E0
2.741064221E0,-2.027917147E0,-9.936196208E-1,-6.702894568E-1,2.355634917E0
2.743450680E0,-2.061416626E0,-1.003190875E0,-7.181459069E-1,2.402407955E0
2.745837138E0,-2.092523336E0,-1.007976532E0,-7.348956466E-1,2.436132635E0
2.748223596E0,-2.118844509E0,-1.012762189E0,-7.516453862E-1,2.465798064E0
2.750610055E0,-2.140379906E0,-1.017547846E0,-7.612167001E-1,2.489192765E0
2.752996513E0,-2.145165443E0,-1.015154958E0,-7.683951855E-1,2.494535133E0
2.755382971E0,-2.137987137E0,-1.005583763E0,-7.612167001E-1,2.482264806E0
2.757769430E0,-2.126022816E0,-9.936196208E-1,-7.540382147E-1,2.464919186E0
2.760155888E0,-2.104487419E0,-9.816554785E-1,-7.420741320E-1,2.437865622E0
2.762542346E0,-2.068595171E0,-9.720842242E-1,-7.181459069E-1,2.395781139E0
2.764928805E0,-2.018345833E0,-9.577272534E-1,-6.774678826E-1,2.334507255E0
2.767315263E0,-1.943869352E0,-9.457631707E-1,-6.248258352E-1,2.250222957E0
2.769701721E0,-1.845763564E0,-9.290133715E-1,-5.673980713E-1,2.142860133E0
2.772088180E0,-1.726122379E0,-9.146564603E-1,-4.884349108E-1,2.013619520E0
2.774474638E0,-1.587338686E0,-8.883354068E-1,-4.142574072E-1,1.865581169E0
2.776861096E0,-1.429412484E0,-8.500502706E-1,-3.305086195E-1,1.695594722E0
2.779247555E0,-1.259222865E0,-8.018946648E-1,-2.584248483E-1,1.515077780E0
2.781634013E0,-1.077368379E0,-7.420741320E-1,-1.938186288E-1,1.322483384E0
2.784020471E0,-8.907282352E-1,-6.726822853E-1,-1.387837082E-1,1.124792943E0
2.786406930E0,-6.918248534E-1,-5.937191248E-1,-9.810572863E-2,9.169235306E-1
2.788793388E0,-4.860421121E-1,-5.027918816E-1,-6.939185411E-2,7.027459287E-1
2.791179846E0,-2.751746178E-1,-4.046861231E-1,-5.264209956E-2,4.922023153E-1
2.793566305E0,-6.221338734E-2,-3.065803945E-1,-4.546362907E-2,3.161154622E-1
2.795952763E0,1.579262912E-1,-2.033899277E-1,-5.503492057E-2,2.633192333E-1
2.798339221E0,3.807578981E-1,-9.092725813E-2,-5.742774159E-2,3.956542540E-1
2.800725680E0,6.128616929E-1,3.110669367E-2,-7.417750359E-2,6.181176126E-1
2.803112138E0,8.548358679E-1,1.674975902E-1,-1.028913707E-1,8.771467596E-1
2.805498596E0,1.103689432E0,3.257229924E-1,-1.483550072E-1,1.160273691E0
2.807885055E0,1.357328653E0,5.147559643E-1,-2.009970993E-1,1.465508311E0
2.810271513E0,1.616052628E0,7.348956466E-1,-2.751746178E-1,1.796501816E0
2.812657971E0,1.884048700E0,9.768698215E-1,-3.496512175E-1,2.150853349E0
2.815044430E0,2.159522533E0,1.240080357E0,-4.238287210E-1,2.526057729E0
2.817430888E0,2.441875458E0,1.525125384E0,-5.051847100E-1,2.923007831E0
2.819817346E0,2.738884687E0,1.836192250E0,-5.602195859E-1,3.344687922E0
2.822203805E0,3.054737091E0,2.176272154E0,-5.721837282E-1,3.794070822E0
2.824590263E0,3.394817114E0,2.559422970E0,-5.362913609E-1,4.285211500E0
2.826976721E0,3.754039526E0,2.997309446E0,-4.310071766E-1,4.823115577E0
2.829363180E0,4.124927044E0,3.509672642E0,-2.416750938E-1,5.421368095E0
2.831749638E0,4.493721008E0,4.115355968E0,1.914258115E-2,6.093443172E0
2.834136096E0,4.855336189E0,4.838586330E0,3.640081584E-1,6.864306893E0
2.836522555E0,5.216652393E0,5.685945034E0,8.090731502E-1,7.758739104E0
2.838909013E0,5.590231895E0,6.658029079E0,1.354935765E0,8.798630280E0
2.841295471E0,5.997310638E0,7.744968891E0,2.011167526E0,9.999853641E0
2.843681930E0,6.449554443E0,8.922835350E0,2.796312332E0,1.135927400E1
2.846068388E0,6.959524632E0,1.016530895E1,3.708575964E0,1.286553632E1
2.848454846E0,7.546065331E0,1.145324516E1,4.752145767E0,1.451560595E1
2.850841305E0,8.238189697E0,1.275344563E1,5.966204166E0,1.631299289E1
2.853227763E0,9.059226990E0,1.403420353E1,7.376174927E0,1.826024148E1
2.855614221E0,1.003131104E1,1.528146267E1,9.018548965E0,2.038343759E1
2.858000680E0,1.117807102E1,1.646650887E1,1.095314598E1,2.271709913E1
2.860387138E0,1.252582836E1,1.758216095E1,1.318923855E1,2.529792034E1
2.862773596E0,1.409163189E1,1.863320923E1,1.573639774E1,2.816744201E1
2.865160055E0,1.587996769E1,1.963879204E1,1.853749657E1,3.132880951E1
2.867546513E0,1.787677765E1,2.058694839E1,2.158983994E1,3.477819449E1
2.869932971E0,2.005783653E1,2.146302032E1,2.480998230E1,3.845144041E1
2.872319430E0,2.238485527E1,2.223410797E1,2.808994293E1,4.224313195E1
2.874705888E0,2.480280304E1,2.288046837E1,3.132922745E1,4.604579638E1
2.877092346E0,2.725933456E1,2.337368965E1,3.443660736E1,4.975219207E1
2.879478805E0,2.966771126E1,2.368954277E1,3.735525131E1,5.326145256E1
2.881865263E0,3.197798157E1,2.383071899E1,3.997180176E1,5.646449689E1
2.884251357E0,3.413032532E1,2.381636238E1,4.223900223E1,5.929782064E1
2.886638180E0,3.607658768E1,2.367040062E1,4.412813568E1,6.171790990E1
2.889024638E0,3.777160263E1,2.343350983E1,4.560271454E1,6.368226536E1
2.891411096E0,3.919622803E1,2.310778809E1,4.666572571E1,6.517671454E1
2.893797555E0,4.029991913E1,2.277757835E1,4.734319305E1,6.621389194E1
2.896184013E0,4.105635071E1,2.252842522E1,4.763541412E1,6.680034846E1
2.898570471E0,4.147539139E1,2.237528419E1,4.756602478E1,6.695810740E1
2.900956930E0,4.159742737E1,2.226760674E1,4.717808914E1,6.672304226E1
2.903343388E0,4.147539139E1,2.214766693E1,4.647190475E1,6.610873749E1
2.905729846E0,4.115684891E1,2.194667053E1,4.548307037E1,6.514792591E1
2.908116305E0,4.067319870E1,2.161646080E1,4.424299240E1,6.386722827E1
2.910502763E0,4.004119492E1,2.113520432E1,4.278007889E1,6.229068391E1
2.912889221E0,3.927280045E1,2.052712822E1,4.113291931E1,6.046183010E1
2.915275680E0,3.836053467E1,1.983261108E1,3.937090683E1,5.843741427E1
2.917662138E0,3.730231094E1,1.911207199E1,3.752275085E1,5.625558220E1
2.920048596E0,3.609333801E1,1.840589142E1,3.562404251E1,5.394977565E1
2.922435055E0,3.473122406E1,1.774756622E1,3.373042297E1,5.156525444E1
2.924821513E0,3.322523880E1,1.714906120E1,3.186551857E1,4.912655155E1
2.927207971E0,3.158286667E1,1.662473297E1,3.003889656E1,4.664970011E1
2.929594430E0,2.983760071E1,1.617219162E1,2.826940536E1,4.416991598E1
2.931980888E0,2.801815796E1,1.578664780E1,2.657438850E1,4.171850367E1
2.934367346E0,2.616282463E1,1.546361637E1,2.495833588E1,3.932601370E1
2.936753805E0,2.430240440E1,1.519771385E1,2.343350983E1,3.702305699E1
2.939140263E0,2.246142578E1,1.497278881E1,2.201366997E1,3.483248080E1
2.941526721E0,2.065873337E1,1.476909924E1,2.069462585E1,3.275938180E1
2.943913180E0,1.891586113E1,1.458006668E1,1.947368813E1,3.081578615E1
2.946299638E0,1.724716568E1,1.439342594E1,1.836281967E1,2.901428236E1
2.948686096E0,1.566461372E1,1.419213009E1,1.734288025E1,2.734176613E1
2.951072555E0,1.417538071E1,1.397438335E1,1.641147232E1,2.579847344E1
2.953459013E0,1.278455257E1,1.374676609E1,1.555693626E1,2.438107111E1
2.955845471E0,1.148913765E1,1.351466274E1,1.476670647E1,2.308033823E1
2.958231930E0,1.027537823E1,1.328734398E1,1.403899002E1,2.189132587E1
2.960618388E0,9.131011009E0,1.306929779E1,1.336630726E1,2.080480898E1
2.963004846E0,8.056035995E0,1.287547970E1,1.274626732E1,1.982788501E1
2.965391305E0,7.050751209E0,1.271516037E1,1.217408371E1,1.896303536E1
2.967777763E0,6.126523495E0,1.258804131E1,1.165693474E1,1.821749713E1
2.970164221E0,5.288437366E0,1.249950695E1,1.119003487E1,1.759039863E1
2.972550680E0,4.546362877E0,1.244447231E1,1.078295612E1,1.708234320E1
2.974937138E0,3.914358854E0,1.241575813E1,1.042642593E1,1.667883728E1
2.977323596E0,3.406781197E0,1.240379429E1,1.011505985E1,1.636382311E1
2.979710055E0,3.026023388E0,1.240379429E1,9.839884758E0,1.611937537E1
2.982096513E0,2.769991398E0,1.240379429E1,9.602696419E0,1.592917900E1
2.984482971E0,2.635993242E0,1.241097260E1,9.382556915E0,1.578014814E1
2.986869430E0,2.614457846E0,1.242533016E1,9.176474571E0,1.566626647E1
2.989255888E0,2.693420887E0,1.243729401E1,8.992227554E0,1.558207158E1
2.991642346E0,2.858525753E0,1.244686508E1,8.817551613E0,1.551917641E1
2.994028805E0,3.093321562E0,1.245404339E1,8.635397911E0,1.546744750E1
2.996415263E0,3.378067255E0,1.245882893E1,8.472685814E0,1.544086013E1
2.998801721E0,3.696611881E0,1.246122169E1,8.319544792E0,1.543249206E1
3.001188180E0,4.036392689E0,1.245404339E1,8.166404724E0,1.543003010E1
3.003574638E0,4.388436794E0,1.243729401E1,8.032107353E0,1.544213095E1
3.005961096E0,4.742574692E0,1.240618706E1,7.924430370E0,1.546615947E1
3.008347555E0,5.082654476E0,1.236311626E1,7.821538925E0,1.548730097E1
3.010734013E0,5.410770416E0,1.230808163E1,7.737790108E0,1.551253382E1
3.013120471E0,5.707480431E0,1.223868942E1,7.668398380E0,1.552949405E1
3.015506930E0,5.968596935E0,1.216211891E1,7.589435101E0,1.552870925E1
3.017893388E0,6.195915222E0,1.207597733E1,7.519744396E0,1.551660883E1
3.020279846E0,6.384948254E0,1.196800137E1,7.445566654E0,1.547375467E1
3.022666305E0,6.543173313E0,1.183878899E1,7.354639530E0,1.539677772E1
3.025052763E0,6.665207386E0,1.168325520E1,7.237390995E0,1.527426823E1
3.027439221E0,6.760920525E0,1.149631596E1,7.117750168E0,1.511746322E1
3.029825680E0,6.823133945E0,1.127617645E1,6.976274490E0,1.491226737E1
3.032212138E0,6.854240417E0,1.102732277E1,6.825526714E0,1.466868345E1
3.034598596E0,6.863811970E0,1.074467087E1,6.679564476E0,1.439362527E1
3.036985055E0,6.856633186E0,1.044078255E1,6.535995007E0,1.409760936E1
3.039371513E0,6.842276573E0,1.011745262E1,6.392126560E0,1.378545894E1
3.041757971E0,6.825526714E0,9.779765129E0,6.260521412E0,1.346943760E1
3.044144430E0,6.808776855E0,9.423234940E0,6.138487339E0,1.314678005E1
3.046530888E0,6.787241459E0,9.042476654E0,6.016453266E0,1.280744864E1
3.048917346E0,6.768098831E0,8.644968987E0,5.901597977E0,1.246481084E1
3.051303805E0,6.751348972E0,8.231010437E0,5.786443233E0,1.211664851E1
3.053690263E0,6.736992359E0,7.809575081E0,5.654838085E0,1.176238593E1
3.056076721E0,6.727420807E0,7.385746002E0,5.520840168E0,1.141433795E1
3.058463180E0,6.708278179E0,6.957131863E0,5.377270699E0,1.105973418E1
3.060849638E0,6.679564476E0,6.524031162E0,5.209474087E0,1.069196822E1
3.063236096E0,6.641279221E0,6.097809315E0,5.030012131E0,1.032428642E1
3.065622555E0,6.591030121E0,5.678766251E0,4.848157883E0,9.959653560E0
3.068009013E0,6.521637917E0,5.269294739E0,4.642076015E0,9.583636987E0
3.070395471E0,6.439982891E0,4.879264355E0,4.436293125E0,9.217445252E0
3.072781930E0,6.341877460E0,4.508078098E0,4.216153622E0,8.849753060E0
3.075168388E0,6.222236156E0,4.151247978E0,3.988536358E0,8.476880608E0
3.077554846E0,6.081059456E0,3.816252947E0,3.744468451E0,8.097167075E0
3.079941305E0,5.920740604E0,3.495315790E0,3.514458179E0,7.721646073E0
3.082327763E0,5.740979671E0,3.186641455E0,3.275176048E0,7.337595621E0
3.084714221E0,5.544768333E0,2.882453918E0,3.049951553E0,6.953790401E0
3.087100680E0,5.329114914E0,2.590529680E0,2.839383125E0,6.570571233E0
3.089487138E0,5.099404335E0,2.298306227E0,2.640778780E0,6.185454603E0
3.091873596E0,4.852943420E0,2.008774519E0,2.470589399E0,5.804312784E0
3.094260055E0,4.596612453E0,1.723729610E0,2.319841623E0,5.429710395E0
3.096646513E0,4.335794449E0,1.446162224E0,2.202593327E0,5.073649184E0
3.099032971E0,4.067499161E0,1.177866936E0,2.109273195E0,4.730851229E0
3.101419430E0,3.801896095E0,9.218349457E-1,2.032702923E0,4.408636383E0
3.103805888E0,3.543172121E0,6.774678826E-1,1.960619092E0,4.105734847E0
3.106192346E0,3.294318676E0,4.429712892E-1,1.900798440E0,3.829072187E0
3.108578805E0,3.054737091E0,2.225325108E-1,1.838585138E0,3.572301041E0
3.110965263E0,2.832204819E0,1.196411345E-2,1.769193292E0,3.339396978E0
3.113351721E0,2.631207705E0,-1.890329868E-1,1.699801445E0,3.138202098E0
3.115738180E0,2.451446772E0,-3.831507266E-1,1.620838284E0,2.963699124E0
3.118124638E0,2.281556368E0,-5.673980713E-1,1.529910922E0,2.805007569E0
3.120511096E0,2.111665964E0,-7.444669604E-1,1.424626827E0,2.653851125E0
3.122897555E0,1.939083695E0,-9.074779749E-1,1.311864972E0,2.510886608E0
3.125284013E0,1.762014747E0,-1.060618639E0,1.182652593E0,2.372398579E0
3.127670471E0,1.572981834E0,-1.187438250E0,1.034297585E0,2.225770191E0
3.130056930E0,1.374078393E0,-1.297508121E0,8.668000102E-1,2.079173156E0
3.132443388E0,1.168295622E0,-1.386042476E0,6.918248534E-1,1.940270608E0
3.134829846E0,9.577272534E-1,-1.458126307E0,5.099703074E-1,1.817537766E0
3.137216305E0,7.468597889E-1,-1.510768414E0,3.185445070E-1,1.715135956E0
3.139602763E0,5.338985324E-1,-1.546660781E0,1.292124242E-1,1.641311386E0
3.141989221E0,3.233301640E-1,-1.570588946E0,-6.460621208E-2,1.604825846E0
3.144375680E0,1.244267747E-1,-1.584945917E0,-2.560320199E-1,1.610306796E0
3.146762138E0,-7.178468257E-2,-1.596910000E0,-4.429712892E-1,1.658764043E0
3.149148596E0,-2.775674164E-1,-1.613659739E0,-6.535396576E-1,1.762967813E0
3.151535055E0,-4.932205677E-1,-1.623231053E0,-8.668000102E-1,1.905121476E0
3.153921513E0,-7.037889361E-1,-1.625623941E0,-1.067797065E0,2.068371977E0
3.156307919E0,-9.098708034E-1,-1.625623941E0,-1.275972724E0,2.258013390E0
3.158694430E0,-1.108475089E0,-1.620838284E0,-1.484447360E0,2.461588457E0
3.161080888E0,-1.285543919E0,-1.601695657E0,-1.673480392E0,2.649261928E0
3.163467346E0,-1.443769336E0,-1.587338686E0,-1.852941990E0,2.835049914E0
3.165853805E0,-1.587338686E0,-1.568196177E0,-2.025524378E0,3.013574681E0
3.168240263E0,-1.718943954E0,-1.553839207E0,-2.169093609E0,3.173980416E0
3.170626669E0,-1.840977907E0,-1.541875124E0,-2.288734913E0,3.317361309E0
3.173013128E0,-1.955833435E0,-1.539482236E0,-2.391626120E0,3.451835088E0
3.175399638E0,-2.063809633E0,-1.546660781E0,-2.472982168E0,3.573109371E0
3.177786044E0,-2.161915302E0,-1.568196177E0,-2.518445730E0,3.670924396E0
3.180172503E0,-2.248056889E0,-1.596910000E0,-2.545065880E0,3.752498055E0
3.182558961E0,-2.322234392E0,-1.630409479E0,-2.542673111E0,3.810012361E0
3.184945419E0,-2.389233351E0,-1.666301847E0,-2.511267424E0,3.845966968E0
3.187331930E0,-2.449054003E0,-1.699801445E0,-2.475374937E0,3.874876971E0
3.189718336E0,-2.499303341E0,-1.733300924E0,-2.429911375E0,3.892983249E0
3.192104794E0,-2.540280342E0,-1.762014747E0,-2.367697954E0,3.894061349E0
3.194491253E0,-2.571387053E0,-1.785943031E0,-2.305484533E0,3.888043572E0
3.196877711E0,-2.590529680E0,-1.807478428E0,-2.252842426E0,3.879835214E0
3.199264169E0,-2.602493763E0,-1.829013824E0,-2.193022013E0,3.863626652E0
3.201650628E0,-2.612065077E0,-1.850549221E0,-2.135594130E0,3.848139638E0
3.204037086E0,-2.621636391E0,-1.869691849E0,-2.099701881E0,3.844147885E0
3.206423544E0,-2.631207705E0,-1.881655931E0,-2.075773716E0,3.843529569E0
3.208810003E0,-2.633600473E0,-1.896012783E0,-2.063809633E0,3.845780302E0
3.211196461E0,-2.624029160E0,-1.907976985E0,-2.078166485E0,3.852879591E0
3.213582919E0,-2.602493763E0,-1.915155411E0,-2.106880426E0,3.857426495E0
3.215969378E0,-2.568994284E0,-1.919941068E0,-2.145165443E0,3.858450481E0
3.218355836E0,-2.523231506E0,-1.922333837E0,-2.185843468E0,3.852268978E0
3.220742294E0,-2.475374937E0,-1.917548299E0,-2.236092806E0,3.847672490E0
3.223128753E0,-2.422732830E0,-1.907976985E0,-2.281556368E0,3.836080031E0
3.225515211E0,-2.362912416E0,-1.900798440E0,-2.319841623E0,3.818121915E0
3.227901669E0,-2.300698996E0,-1.891227245E0,-2.343769789E0,3.789883004E0
3.230288128E0,-2.240878344E0,-1.872084618E0,-2.353341103E0,3.750260113E0
3.232674586E0,-2.183450699E0,-1.845763564E0,-2.348555326E0,3.700001650E0
3.235061044E0,-2.128415823E0,-1.812264085E0,-2.324627161E0,3.635704398E0
3.237447503E0,-2.075773716E0,-1.771586061E0,-2.286342144E0,3.560156470E0
3.239833961E0,-2.025524378E0,-1.728515267E0,-2.240878344E0,3.480237030E0
3.242220419E0,-1.975275040E0,-1.680658817E0,-2.188236237E0,3.393332193E0
3.244606878E0,-1.922333837E0,-1.628016710E0,-2.145165443E0,3.308706782E0
3.246993336E0,-1.862513304E0,-1.575374603E0,-2.099701881E0,3.218619104E0
3.249379794E0,-1.807478428E0,-1.520339727E0,-2.047059774E0,3.125518337E0
3.251766253E0,-1.757229090E0,-1.465304732E0,-1.999203324E0,3.038385421E0
3.254152711E0,-1.714158297E0,-1.410269856E0,-1.951047778E0,2.955298152E0
3.256539169E0,-1.673480392E0,-1.352542996E0,-1.896012783E0,2.867886618E0
3.258925628E0,-1.635195136E0,-1.295115232E0,-1.843370795E0,2.783738940E0
3.261312086E0,-1.596910000E0,-1.240080357E0,-1.802692771E0,2.708804545E0
3.263698544E0,-1.558624864E0,-1.192223907E0,-1.764407635E0,2.638909549E0
3.266085003E0,-1.522732496E0,-1.153938770E0,-1.733300924E0,2.579655216E0
3.268471461E0,-1.489233017E0,-1.125224829E0,-1.709372640E0,2.530988091E0
3.270857919E0,-1.448554993E0,-1.108475089E0,-1.675873160E0,2.477010182E0
3.273244378E0,-1.400399446E0,-1.106082320E0,-1.632802367E0,2.418797279E0
3.275630836E0,-1.354935765E0,-1.115653515E0,-1.580160260E0,2.361660463E0
3.278017294E0,-1.302293777E0,-1.134796143E0,-1.527518153E0,2.305871435E0
3.280403753E0,-1.242473125E0,-1.170688510E0,-1.438983679E0,2.232694579E0
3.282790211E0,-1.182652593E0,-1.206580877E0,-1.347757339E0,2.161239092E0
3.285176669E0,-1.122832060E0,-1.242473125E0,-1.240080357E0,2.083816353E0
3.287563128E0,-1.041476011E0,-1.256830096E0,-1.137188911E0,1.989344815E0
3.289949586E0,-9.314061999E-1,-1.249651670E0,-1.029511929E0,1.867897646E0
3.292336044E0,-7.827520967E-1,-1.211366415E0,-9.457631707E-1,1.724696324E0
3.294722503E0,-6.391827464E-1,-1.185045362E0,-8.691928387E-1,1.602617635E0
3.297108961E0,-5.338985324E-1,-1.194616675E0,-8.090731502E-1,1.538426471E0
3.299495419E0,-4.716851711E-1,-1.230509043E0,-7.564310431E-1,1.519482586E0
3.301881878E0,-4.573282301E-1,-1.295115232E0,-6.798607111E-1,1.532541406E0
3.304268336E0,-4.908277392E-1,-1.374078393E0,-5.937191248E-1,1.575279562E0
3.306654794E0,-5.650052428E-1,-1.455733418E0,-5.171487927E-1,1.644941818E0
3.309041253E0,-6.655037999E-1,-1.537089467E0,-4.166502357E-1,1.726017600E0
3.311427711E0,-7.899305820E-1,-1.604088426E0,-3.376871049E-1,1.819649027E0
3.313814169E0,-9.218349457E-1,-1.654337764E0,-2.679961324E-1,1.912703592E0
3.316200628E0,-1.046261668E0,-1.678265929E0,-2.129612118E-1,1.989118520E0
3.318587086E0,-1.153938770E0,-1.687837243E0,-1.770688742E-1,2.052248189E0
3.320973544E0,-1.244866014E0,-1.690230131E0,-1.579262912E-1,2.105115199E0
3.323360003E0,-1.319043517E0,-1.680658817E0,-1.316052526E-1,2.140516247E0
3.325746461E0,-1.374078393E0,-1.675873160E0,-1.292124242E-1,2.171022370E0
3.328132919E0,-1.415055513E0,-1.680658817E0,-1.292124242E-1,2.200838935E0
3.330519378E0,-1.446162224E0,-1.685444474E0,-1.268195957E-1,2.224453071E0
3.332905836E0,-1.467697620E0,-1.702194214E0,-1.268195957E-1,2.251151851E0
3.335292294E0,-1.486840129E0,-1.716551185E0,-1.292124242E-1,2.274629066E0
3.337678753E0,-1.505982757E0,-1.733300924E0,-1.268195957E-1,2.299652010E0
3.340065211E0,-1.532303810E0,-1.747657895E0,-1.220339537E-1,2.327478329E0
3.342451669E0,-1.563410521E0,-1.757229090E0,-1.148554832E-1,2.354845709E0
3.344838128E0,-1.599302888E0,-1.769193292E0,-1.100698411E-1,2.387452617E0
3.347224586E0,-1.642373681E0,-1.776371717E0,-1.100698411E-1,2.421776859E0
3.349611044E0,-1.683051586E0,-1.778764486E0,-1.172483116E-1,2.451614347E0
3.351997503E0,-1.726122379E0,-1.776371717E0,-1.316052526E-1,2.480386036E0
3.354383961E0,-1.759621978E0,-1.771586061E0,-1.627119333E-1,2.502251356E0
3.356770419E0,-1.788335800E0,-1.762014747E0,-2.033899277E-1,2.518771201E0
3.359156826E0,-1.802692771E0,-1.750050664E0,-2.512463629E-1,2.524975898E0
3.361543284E0,-1.817049742E0,-1.733300924E0,-3.185445070E-1,2.531298572E0
3.363929742E0,-1.829013824E0,-1.716551185E0,-3.951148391E-1,2.539282433E0
3.366316201E0,-1.840977907E0,-1.695015788E0,-4.812564552E-1,2.548310411E0
3.368702711E0,-1.855334878E0,-1.666301847E0,-5.769693851E-1,2.559633377E0
3.371089117E0,-1.872084618E0,-1.639980793E0,-6.631109715E-1,2.575646322E0
3.373475576E0,-1.886441588E0,-1.616052628E0,-7.564310431E-1,2.596627791E0
3.375862034E0,-1.898405671E0,-1.592124343E0,-8.548358679E-1,2.620982330E0
3.378248492E0,-1.910369754E0,-1.568196177E0,-9.481559992E-1,2.647215829E0
3.380634951E0,-1.919941068E0,-1.549053550E0,-1.039083242E0,2.676832940E0
3.383021461E0,-1.929512382E0,-1.525125384E0,-1.132403374E0,2.707648956E0
3.385407867E0,-1.943869352E0,-1.503589988E0,-1.220937729E0,2.744102740E0
3.387794326E0,-1.960619092E0,-1.482054472E0,-1.316650629E0,2.788204003E0
3.390180784E0,-1.980060697E0,-1.465304732E0,-1.417448282E0,2.841991899E0
3.392567242E0,-1.996810555E0,-1.455733418E0,-1.508375525E0,2.895100846E0
3.394953701E0,-2.011167526E0,-1.446162224E0,-1.596910000E0,2.947253220E0
3.397340159E0,-2.023131609E0,-1.434198022E0,-1.673480392E0,2.991742317E0
3.399726617E0,-2.030309916E0,-1.424626827E0,-1.733300924E0,3.025896899E0
3.402113076E0,-2.035095692E0,-1.412662625E0,-1.785943031E0,3.053984721E0
3.404499534E0,-2.030309916E0,-1.400399446E0,-1.821835399E0,3.066326986E0
3.406885992E0,-2.013560295E0,-1.386042476E0,-1.836192250E0,3.057309403E0
3.409272451E0,-1.984846354E0,-1.364507079E0,-1.857727647E0,3.041816337E0
3.411658909E0,-1.948654890E0,-1.333400369E0,-1.867298961E0,3.010318560E0
3.414045367E0,-1.905584097E0,-1.292722464E0,-1.845763564E0,2.951139653E0
3.416431826E0,-1.848156333E0,-1.247258782E0,-1.807478428E0,2.870246430E0
3.418818284E0,-1.781157374E0,-1.192223907E0,-1.747657895E0,2.765542904E0
3.421204742E0,-1.695015788E0,-1.139581800E0,-1.685444474E0,2.648102769E0
3.423591201E0,-1.587338686E0,-1.094118118E0,-1.599302888E0,2.504896862E0
3.425977659E0,-1.458126307E0,-1.058225870E0,-1.482054472E0,2.332908008E0
3.428364117E0,-1.302293777E0,-1.022333503E0,-1.340578914E0,2.130325491E0
3.430750576E0,-1.122832060E0,-9.744769931E-1,-1.199402332E0,1.910215485E0
3.433137034E0,-9.218349457E-1,-9.194421172E-1,-1.046261668E0,1.670274514E0
3.435523492E0,-6.918248534E-1,-8.524430394E-1,-8.883354068E-1,1.412239554E0
3.437909951E0,-4.334000051E-1,-7.755736113E-1,-7.133602500E-1,1.139400209E0
3.440296409E0,-1.483550072E-1,-6.774678826E-1,-5.434698462E-1,8.810967109E-1
3.442682867E0,1.627119333E-1,-5.578267574E-1,-3.568296731E-1,6.818894926E-1
3.445069326E0,5.027918816E-1,-4.166502357E-1,-1.579262912E-1,6.718167968E-1
3.447455784E0,8.763712645E-1,-2.464607358E-1,4.067798331E-2,9.112761304E-1
3.449842242E0,1.283151150E0,-4.307080805E-2,2.392822653E-1,1.305981612E0
3.452228701E0,1.728515267E0,1.938186288E-1,4.645066857E-1,1.800304739E0
3.454615159E0,2.221735716E0,4.621138871E-1,7.301099896E-1,2.383845514E0
3.457001617E0,2.769991398E0,7.660023570E-1,1.017547846E0,3.048772798E0
3.459388076E0,3.382853031E0,1.113260746E0,1.338186026E0,3.804442924E0
3.461774534E0,4.057928085E0,1.508375525E0,1.704586983E0,4.652697481E0
3.464160992E0,4.781158924E0,1.951047778E0,2.130808592E0,5.586270074E0
3.466547451E0,5.539982796E0,2.444268227E0,2.604886532E0,6.591759278E0
3.468933909E0,6.305984974E0,2.994916677E0,3.129213810E0,7.650290940E0
3.471320367E0,7.065107822E0,3.634099483E0,3.701397419E0,8.764859979E0
3.473706826E0,7.797610760E0,4.369294167E0,4.331008911E0,9.932326176E0
3.476093284E0,8.475078583E0,5.211866856E0,5.022833824E0,1.114537450E1
3.478479742E0,9.095118523E0,6.169594288E0,5.781657696E0,1.241823821E1
3.480866201E0,9.664909363E0,7.232605457E0,6.619743824E0,1.376742761E1
3.483252659E0,1.020120144E1,8.367402077E0,7.550850868E0,1.520175244E1
3.485639117E0,1.073031425E1,9.547661781E0,8.580363274E0,1.673081359E1
3.488025576E0,1.127378368E1,1.073749256E1,9.684052467E0,1.833501615E1
3.490412034E0,1.184596729E1,1.190818119E1,1.083799076E1,1.998984152E1
3.492798492E0,1.246600819E1,1.303579903E1,1.201825047E1,2.167421880E1
3.495184951E0,1.315783215E1,1.410598850E1,1.323230934E1,2.339233782E1
3.497571409E0,1.394327641E1,1.511157227E1,1.447956848E1,2.514821021E1
3.499957867E0,1.484566975E1,1.604537201E1,1.578425503E1,2.696276284E1
3.502344326E0,1.588236046E1,1.690708733E1,1.715384674E1,2.885053611E1
3.504730784E0,1.707458496E1,1.768535233E1,1.860928154E1,3.083210174E1
3.507117242E0,1.844656944E1,1.836999893E1,2.016072655E1,3.292700533E1
3.509503701E0,2.000997925E1,1.896132469E1,2.177438736E1,3.512911967E1
3.511890159E0,2.176003075E1,1.946650887E1,2.344308090E1,3.744358353E1
3.514276617E0,2.365843582E1,1.988046837E1,2.513331223E1,3.983262471E1
3.516663076E0,2.566960335E1,2.022054863E1,2.682114983E1,4.227497133E1
3.519049534E0,2.773311424E1,2.048884392E1,2.844916534E1,4.470205095E1
3.521435992E0,2.978735161E1,2.071616173E1,2.999552727E1,4.707629264E1
3.523822451E0,3.176262665E1,2.092433739E1,3.141776085E1,4.933323467E1
3.526208909E0,3.359881973E1,2.113759613E1,3.268655396E1,5.142071049E1
3.528595315E0,3.524837112E1,2.137209320E1,3.379981613E1,5.330705024E1
3.530981774E0,3.667987823E1,2.163321114E1,3.474797058E1,5.496208467E1
3.533368232E0,3.788436508E1,2.192513466E1,3.552354431E1,5.637250081E1
3.535754690E0,3.886572266E1,2.223171425E1,3.611248016E1,5.752308006E1
3.538141201E0,3.962963104E1,2.252842522E1,3.652912903E1,5.841587855E1
3.540527607E0,4.019224167E1,2.279432678E1,3.677349472E1,5.905326018E1
3.542914065E0,4.058705902E1,2.298336029E1,3.686203003E1,5.945042866E1
3.545300524E0,4.084099579E1,2.308864403E1,3.679981613E1,5.962632713E1
3.547686982E0,4.097738647E1,2.308625221E1,3.660809326E1,5.960095415E1
3.550073440E0,4.099892044E1,2.297378922E1,3.630899048E1,5.938896579E1
3.552459899E0,4.091278076E1,2.276082802E1,3.590669632E1,5.900170983E1
3.554846357E0,4.070221329E1,2.245903397E1,3.542544174E1,5.844690151E1
3.557232815E0,4.035495377E1,2.208784676E1,3.487479019E1,5.772907637E1
3.559619274E0,3.985455322E1,2.166192436E1,3.426910782E1,5.685064758E1
3.562005732E0,3.918426514E1,2.119502449E1,3.360360336E1,5.580177288E1
3.564392190E0,3.834139252E1,2.069941139E1,3.288785172E1,5.459064757E1
3.566778649E0,3.732653809E1,2.019183350E1,3.213590622E1,5.323248119E1
3.569165107E0,3.613640594E1,1.968425560E1,3.135076141E1,5.173180834E1
3.571551565E0,3.479343414E1,1.917667961E1,3.054856873E1,5.011529858E1
3.573938024E0,3.332813263E1,1.867867279E1,2.972513771E1,4.840703517E1
3.576324482E0,3.176502037E1,1.819741631E1,2.888705254E1,4.663286699E1
3.578710940E0,3.012743187E1,1.774517250E1,2.805644417E1,4.482987126E1
3.581097399E0,2.845155907E1,1.731177330E1,2.723062134E1,4.301970998E1
3.583483857E0,2.675893593E1,1.689990807E1,2.641885567E1,4.122624746E1
3.585870315E0,2.507109833E1,1.650479317E1,2.562174606E1,3.946444020E1
3.588256774E0,2.340958214E1,1.612911987E1,2.485544586E1,3.776175622E1
3.590643232E0,2.178395844E1,1.577707577E1,2.412055016E1,3.612835320E1
3.593029690E0,2.021336937E1,1.545404530E1,2.342393875E1,3.458451567E1
3.595416149E0,1.870738602E1,1.516421413E1,2.277757835E1,3.314721342E1
3.597802607E0,1.727588081E1,1.491296768E1,2.217667961E1,3.182228435E1
3.600189065E0,1.592543125E1,1.470210075E1,2.163081741E1,3.062128980E1
3.602575524E0,1.466381550E1,1.453699589E1,2.113520432E1,2.954739575E1
3.604961982E0,1.350030518E1,1.440778351E1,2.068984032E1,2.859916009E1
3.607348440E0,1.244207954E1,1.431685638E1,2.029233170E1,2.777690490E1
3.609734899E0,1.150110245E1,1.424716473E1,1.993580246E1,2.706830767E1
3.612121357E0,1.068485069E1,1.418973732E1,1.959572220E1,2.644819480E1
3.614507815E0,9.990633011E0,1.413709545E1,1.924128532E1,2.588237386E1
3.616894274E0,9.413662910E0,1.407248878E1,1.886800385E1,2.535061260E1
3.619280732E0,8.949156761E0,1.398634720E1,1.846571159E1,2.483319994E1
3.621667190E0,8.597112656E0,1.387867069E1,1.803470421E1,2.432649589E1
3.624053649E0,8.338687897E0,1.374945831E1,1.756541252E1,2.381438718E1
3.626440107E0,8.166404724E0,1.359841156E1,1.705544090E1,2.329152265E1
3.628826565E0,8.063214302E0,1.344287777E1,1.652872086E1,2.277992539E1
3.631213024E0,8.020143509E0,1.328973675E1,1.595414543E1,2.225925788E1
3.633599482E0,8.012965202E0,1.313868999E1,1.535803318E1,2.174171036E1
3.635985940E0,8.032107353E0,1.299512100E1,1.473081398E1,2.122227129E1
3.638372399E0,8.070392609E0,1.285872936E1,1.407488155E1,2.070218463E1
3.640758857E0,8.113463402E0,1.271994591E1,1.338544941E1,2.016917371E1
3.643145315E0,8.161619186E0,1.258086300E1,1.268166065E1,1.963961961E1
3.645531774E0,8.209475517E0,1.242772293E1,1.197517967E1,1.911148120E1
3.647918232E0,8.254939079E0,1.225543976E1,1.128335476E1,1.859177015E1
3.650304690E0,8.300402641E0,1.207119179E1,1.059392357E1,1.807876024E1
3.652691149E0,8.341080666E0,1.186511040E1,9.902098656E0,1.756149280E1
3.655077607E0,8.372187614E0,1.163779163E1,9.221938133E0,1.704628589E1
3.657464065E0,8.391329765E0,1.138146114E1,8.568398476E0,1.653389021E1
3.659850524E0,8.393722534E0,1.109192944E1,7.960322857E0,1.602660964E1
3.662236982E0,8.376973152E0,1.077817059E1,7.402495861E0,1.552866979E1
3.664623440E0,8.336295128E0,1.044078255E1,6.882954121E0,1.502926525E1
3.667009899E0,8.257331848E0,1.008156013E1,6.411269188E0,1.452328326E1
3.669396357E0,8.144868851E0,9.703194618E0,5.992525101E0,1.401432237E1
3.671782815E0,7.991429329E0,9.308379173E0,5.642873764E0,1.350373614E1
3.674169221E0,7.802396297E0,8.898907661E0,5.343770981E0,1.298552401E1
3.676555732E0,7.567600727E0,8.470293045E0,5.089832783E0,1.244672016E1
3.678942138E0,7.292426109E0,8.032107353E0,4.864907742E0,1.188955653E1
3.681328596E0,6.981060028E0,7.584649563E0,4.675575256E0,1.131914803E1
3.683715055E0,6.638886452E0,7.134500027E0,4.520041943E0,1.074275026E1
3.686101513E0,6.272485256E0,6.686742783E0,4.381258488E0,1.016130042E1
3.688487971E0,5.886941910E0,6.238986015E0,4.249652863E0,9.572908701E0
3.690874430E0,5.487340450E0,5.788836002E0,4.115355968E0,8.975393152E0
3.693260888E0,5.082654476E0,5.336592674E0,3.993321896E0,8.382077168E0
3.695647346E0,4.682754040E0,4.884049892E0,3.873680830E0,7.796635936E0
3.698033805E0,4.287938118E0,4.433900356E0,3.751646757E0,7.219469445E0
3.700420263E0,3.907180309E0,3.986143351E0,3.622135162E0,6.653965728E0
3.702806721E0,3.540779352E0,3.547957659E0,3.480958700E0,6.102638400E0
3.705193180E0,3.200998545E0,3.119642496E0,3.342175007E0,5.581101573E0
3.707579638E0,2.872882605E0,2.707777977E0,3.196212769E0,5.079497229E0
3.709966096E0,2.564208508E0,2.307877541E0,3.049951553E0,4.604744129E0
3.712352555E0,2.267199516E0,1.929512382E0,2.887239695E0,4.147211682E0
3.714739013E0,1.980060697E0,1.563410521E0,2.729313374E0,3.716724944E0
3.717125471E0,1.697408557E0,1.211366415E0,2.573779821E0,3.312543882E0
3.719511930E0,1.422233939E0,8.835497499E-1,2.427518606E0,2.948941526E0
3.721898388E0,1.149153113E0,5.817549825E-1,2.288734913E0,2.626270976E0
3.724284846E0,8.859425783E-1,2.970091105E-1,2.145165443E0,2.339838337E0
3.726671305E0,6.367899179E-1,3.110669367E-2,2.008774519E0,2.107520841E0
3.729057763E0,3.975076675E-1,-2.129612118E-1,1.876870275E0,1.930286728E0
3.731444221E0,1.722832322E-1,-4.381856322E-1,1.754836321E0,1.816903595E0
3.733830680E0,-3.828516230E-2,-6.439684033E-1,1.620838284E0,1.744499299E0
3.736217138E0,-2.225325108E-1,-8.377870321E-1,1.486840129E0,1.721075652E0
3.738603596E0,-3.879363835E-1,-1.017547846E0,1.338186026E0,1.725294205E0
3.740990055E0,-5.386841893E-1,-1.194616675E0,1.197009563E0,1.774858178E0
3.743376513E0,-6.726822853E-1,-1.354935765E0,1.046261668E0,1.839297655E0
3.745762971E0,-7.875377536E-1,-1.508375525E0,8.955138922E-1,1.922851417E0
3.748149430E0,-8.955138922E-1,-1.654337764E0,7.205387354E-1,2.014436556E0
3.750535888E0,-9.912267923E-1,-1.783550143E0,5.506483316E-1,2.113479419E0
3.752922346E0,-1.074975610E0,-1.903191328E0,3.783650696E-1,2.218303387E0
3.755308805E0,-1.156331539E0,-2.008774519E0,2.057827413E-1,2.326934514E0
3.757695263E0,-1.232901812E0,-2.099701881E0,2.392822690E-2,2.435029246E0
3.760081721E0,-1.307079315E0,-2.173879385E0,-1.579262912E-1,2.541485516E0
3.762468180E0,-1.378864050E0,-2.231307030E0,-3.496512175E-1,2.646177073E0
3.764854638E0,-1.450947881E0,-2.274377823E0,-5.434698462E-1,2.751981778E0
3.767241096E0,-1.520339727E0,-2.315055847E0,-7.301099896E-1,2.864258553E0
3.769627555E0,-1.596910000E0,-2.341377020E0,-9.194421172E-1,2.979520381E0
3.772014013E0,-1.671087503E0,-2.358126640E0,-1.113260746E0,3.097199410E0
3.774400419E0,-1.742872238E0,-2.367697954E0,-1.302293777E0,3.215519604E0
3.776786878E0,-1.814656854E0,-2.367697954E0,-1.489233017E0,3.334184770E0
3.779173388E0,-1.884048700E0,-2.365305185E0,-1.673480392E0,3.456131471E0
3.781559794E0,-1.946262121E0,-2.362912416E0,-1.840977907E0,3.572182944E0
3.783946253E0,-2.006381750E0,-2.367697954E0,-2.008774519E0,3.696854933E0
3.786332711E0,-2.066202402E0,-2.384447813E0,-2.181057930E0,3.835596099E0
3.788719169E0,-2.123630047E0,-2.417947292E0,-2.355733871E0,3.988202071E0
3.791105628E0,-2.178664923E0,-2.463410854E0,-2.533101797E0,4.151093663E0
3.793492086E0,-2.231307030E0,-2.516052961E0,-2.724527597E0,4.328083201E0
3.795878544E0,-2.279163599E0,-2.568994284E0,-2.930310488E0,4.514536288E0
3.798265003E0,-2.319841623E0,-2.621636391E0,-3.122035265E0,4.690601957E0
3.800651461E0,-2.353341103E0,-2.671885490E0,-3.315854073E0,4.865395631E0
3.803037919E0,-2.396411896E0,-2.714956284E0,-3.504886866E0,5.039643791E0
3.805424378E0,-2.449054003E0,-2.758027315E0,-3.670290947E0,5.203423471E0
3.807810836E0,-2.511267424E0,-2.796312332E0,-3.823431492E0,5.361385558E0
3.810197294E0,-2.585743904E0,-2.829811811E0,-3.950251102E0,5.504397351E0
3.812583753E0,-2.664707184E0,-2.863311291E0,-4.053142548E0,5.632688562E0
3.814970211E0,-2.748456001E0,-2.899203777E0,-4.141676903E0,5.754379245E0
3.817356669E0,-2.836990356E0,-2.930310488E0,-4.196712017E0,5.852147092E0
3.819743128E0,-2.935096025E0,-2.961417198E0,-4.237689018E0,5.944980127E0
3.822129586E0,-3.040380239E0,-2.990130901E0,-4.244867325E0,6.016950508E0
3.824516044E0,-3.148356438E0,-3.018844843E0,-4.218546391E0,6.068089163E0
3.826902503E0,-3.258426189E0,-3.042773008E0,-4.184747696E0,6.114566386E0
3.829288961E0,-3.366103172E0,-3.066701412E0,-4.124927044E0,6.144129819E0
3.831675419E0,-3.466601849E0,-3.095714331E0,-4.033999920E0,6.154179957E0
3.834061878E0,-3.569493294E0,-3.122035265E0,-3.928715706E0,6.158181036E0
3.836448336E0,-3.658326626E0,-3.145963669E0,-3.804288864E0,6.144351460E0
3.838834794E0,-3.734897137E0,-3.167499065E0,-3.660719633E0,6.114194565E0
3.841221253E0,-3.801896095E0,-3.184248686E0,-3.507279873E0,6.074114398E0
3.843607711E0,-3.864109516E0,-3.203391314E0,-3.344567776E0,6.031516548E0
3.845994169E0,-3.916751623E0,-3.217748165E0,-3.169891834E0,5.978550056E0
3.848380628E0,-3.969393730E0,-3.224926710E0,-2.997309446E0,5.927908804E0
3.850767086E0,-4.022035599E0,-3.227319479E0,-2.827419043E0,5.881042409E0
3.853153544E0,-4.074677944E0,-3.222533941E0,-2.662314177E0,5.837434550E0
3.855540003E0,-4.129712582E0,-3.215355396E0,-2.496910334E0,5.798930724E0
3.857926461E0,-4.182354927E0,-3.200998545E0,-2.355733871E0,5.769572470E0
3.860312919E0,-4.225724697E0,-3.177070379E0,-2.224128723E0,5.735614526E0
3.862699378E0,-4.266402721E0,-3.148356438E0,-2.099701881E0,5.702901755E0
3.865085836E0,-4.295116425E0,-3.119642496E0,-1.980060697E0,5.665759858E0
3.867472294E0,-4.309473515E0,-3.095714331E0,-1.876870275E0,5.628290257E0
3.869858701E0,-4.304687977E0,-3.071486950E0,-1.788335800E0,5.582339617E0
3.872245211E0,-4.283152580E0,-3.057130098E0,-1.704586983E0,5.531460679E0
3.874631617E0,-4.242474556E0,-3.049951553E0,-1.635195136E0,5.474911686E0
3.877018076E0,-4.179962158E0,-3.047558784E0,-1.568196177E0,5.405454416E0
3.879404534E0,-4.105784416E0,-3.049951553E0,-1.513161182E0,5.333791045E0
3.881790992E0,-4.019642830E0,-3.059522867E0,-1.462911963E0,5.259117803E0
3.884177451E0,-3.919144392E0,-3.069094181E0,-1.427019596E0,5.178360434E0
3.886563909E0,-3.806681633E0,-3.078665495E0,-1.400399446E0,5.092163086E0
3.888950367E0,-3.687040567E0,-3.093321562E0,-1.376471281E0,5.005754650E0
3.891336826E0,-3.564707518E0,-3.102892876E0,-1.354935765E0,4.916394493E0
3.893723284E0,-3.445066452E0,-3.110071182E0,-1.338186026E0,4.830296829E0
3.896109742E0,-3.325425386E0,-3.110071182E0,-1.326221943E0,4.742347668E0
3.898496201E0,-3.210569859E0,-3.102892876E0,-1.304686546E0,4.651656694E0
3.900882659E0,-3.095714331E0,-3.090928555E0,-1.302293777E0,4.564346134E0
3.903269117E0,-2.985345364E0,-3.071486950E0,-1.292722464E0,4.474086543E0
3.905655576E0,-2.875275612E0,-3.047558784E0,-1.275972724E0,4.379832278E0
3.908042034E0,-2.774776936E0,-3.021237612E0,-1.278365493E0,4.296682683E0
3.910428492E0,-2.683849812E0,-2.990130901E0,-1.278365493E0,4.216414466E0
3.912814951E0,-2.597707987E0,-2.956631422E0,-1.278365493E0,4.138112430E0
3.915201409E0,-2.523231506E0,-2.920739174E0,-1.290329576E0,4.069688559E0
3.917587867E0,-2.451446772E0,-2.882453918E0,-1.299900889E0,4.000984152E0
3.919974326E0,-2.386840582E0,-2.839383125E0,-1.311864972E0,3.934475086E0
3.922360784E0,-2.334198475E0,-2.789133787E0,-1.333400369E0,3.873719962E0
3.924747242E0,-2.293520451E0,-2.743670225E0,-1.342971683E0,3.819886818E0
3.927133701E0,-2.257628202E0,-2.693420887E0,-1.362114310E0,3.769185133E0
3.929520159E0,-2.226521492E0,-2.655135870E0,-1.376471281E0,3.728514132E0
3.931906617E0,-2.200200319E0,-2.616850615E0,-1.388435364E0,3.690059802E0
3.934293076E0,-2.183450699E0,-2.573779821E0,-1.402792215E0,3.655082150E0
3.936679534E0,-2.176272154E0,-2.530709028E0,-1.410269856E0,3.623466537E0
3.939065992E0,-2.173879385E0,-2.484946251E0,-1.429412484E0,3.597767294E0
3.941452451E0,-2.169093609E0,-2.437089920E0,-1.434198022E0,3.563888091E0
3.943838909E0,-2.164308071E0,-2.384447813E0,-1.443769336E0,3.529063714E0
3.946225367E0,-2.161915302E0,-2.327019930E0,-1.436590910E0,3.486071280E0
3.948611774E0,-2.157129526E0,-2.267199516E0,-1.427019596E0,3.439445648E0
3.950998284E0,-2.145165443E0,-2.204986095E0,-1.407876968E0,3.383166567E0
3.953384690E0,-2.126022816E0,-2.140379906E0,-1.381256819E0,3.317991795E0
3.955771149E0,-2.104487419E0,-2.082952023E0,-1.345364571E0,3.252316444E0
3.958157607E0,-2.078166485E0,-2.025524378E0,-1.307079315E0,3.182763152E0
3.960544065E0,-2.047059774E0,-1.965703845E0,-1.264008522E0,3.106793020E0
3.962930524E0,-2.013560295E0,-1.910369754E0,-1.223330617E0,3.033228553E0
3.965316982E0,-1.975275040E0,-1.855334878E0,-1.192223907E0,2.960637910E0
3.967703440E0,-1.936690807E0,-1.800299883E0,-1.163509965E0,2.888876320E0
3.970089899E0,-1.893620014E0,-1.745265007E0,-1.132403374E0,2.813198198E0
3.972476357E0,-1.852941990E0,-1.685444474E0,-1.110867858E0,2.740099358E0
3.974862815E0,-1.814656854E0,-1.628016710E0,-1.089332461E0,2.670217803E0
3.977249274E0,-1.766800404E0,-1.575374603E0,-1.074975610E0,2.599800255E0
3.979635732E0,-1.711765528E0,-1.522732496E0,-1.070189953E0,2.528668031E0
3.982022190E0,-1.654337764E0,-1.465304732E0,-1.065404296E0,2.453372721E0
3.984408649E0,-1.589731574E0,-1.415055513E0,-1.065404296E0,2.380066154E0
3.986795107E0,-1.522732496E0,-1.369292736E0,-1.074975610E0,2.312844442E0
3.989181565E0,-1.448554993E0,-1.323829174E0,-1.086939692E0,2.243272864E0
3.991568024E0,-1.371685624E0,-1.278365493E0,-1.103689432E0,2.175745883E0
3.993954482E0,-1.295115232E0,-1.228116274E0,-1.127617717E0,2.111187998E0
3.996340940E0,-1.216152072E0,-1.173081279E0,-1.158724308E0,2.048850305E0
3.998727399E0,-1.141974568E0,-1.113260746E0,-1.194616675E0,1.992627513E0
