"Time (s)","Acceleration x (m/s^2)","Acceleration y (m/s^2)","Acceleration z (m/s^2)","Absolute acceleration (m/s^2)"
3.485266900E-2,1.776371717E0,5.216652393E0,7.110571384E0,8.996064922E0
3.723938800E-2,1.788335800E0,5.199902534E0,7.060322285E0,8.949038053E0
3.962615900E-2,1.788335800E0,5.180759907E0,7.017251492E0,8.903945004E0
4.201293000E-2,1.819442511E0,5.159224510E0,6.997809887E0,8.882415877E0
4.439964800E-2,1.836192250E0,5.130510807E0,6.971488953E0,8.848468870E0
4.678641900E-2,1.864906192E0,5.070690155E0,6.981060028E0,8.827512270E0
4.917313800E-2,1.869691849E0,5.075475693E0,6.954739094E0,8.810482222E0
5.155990900E-2,1.881655931E0,5.049154758E0,6.961917400E0,8.803572383E0
5.394668000E-2,1.898405671E0,5.010869503E0,6.954739094E0,8.779587298E0
5.633339800E-2,1.915155411E0,5.003691196E0,6.985845566E0,8.803793734E0
5.872016900E-2,1.915155411E0,4.996512890E0,7.022037029E0,8.828474690E0
6.110688800E-2,1.927119493E0,4.994120121E0,7.055536747E0,8.856388887E0
6.349365900E-2,1.919941068E0,4.989334106E0,7.072286606E0,8.865487373E0
6.588037800E-2,1.917548299E0,5.018048286E0,7.086643219E0,8.892598731E0
6.826714800E-2,1.941476464E0,5.032404900E0,7.093822002E0,8.911607068E0
7.065391900E-2,1.946262121E0,5.051547527E0,7.089035988E0,8.919669271E0
7.304063800E-2,2.056631088E0,5.104189873E0,7.096214771E0,8.979908116E0
7.542740900E-2,2.130808592E0,5.190331459E0,7.098607540E0,9.048210592E0
7.781412800E-2,2.145165443E0,5.228616714E0,7.093822002E0,9.069866489E0
8.020089800E-2,2.147558212E0,5.231009483E0,7.096214771E0,9.073683407E0
8.258766900E-2,2.130808592E0,5.207081318E0,7.081857681E0,9.044708360E0
8.497438800E-2,2.094916344E0,5.175974369E0,7.036394119E0,8.982773923E0
8.736115900E-2,2.087737799E0,5.118546963E0,7.026822567E0,8.940604427E0
8.974787800E-2,2.099701881E0,5.120939732E0,7.007380962E0,8.929510607E0
9.213464800E-2,2.183450699E0,5.187938690E0,6.993024349E0,8.976890016E0
9.452136700E-2,2.221735716E0,5.202295303E0,6.985845566E0,8.988994620E0
9.690813800E-2,2.209771633E0,5.228616714E0,6.990631580E0,9.005023782E0
9.929490900E-2,2.181057930E0,5.245366573E0,7.004988194E0,9.018910343E0
1.016816280E-1,2.140379906E0,5.283651352E0,7.024429798E0,9.046591167E0
1.040683980E-1,2.114058733E0,5.314758301E0,7.036394119E0,9.067896246E0
1.064551170E-1,2.109273195E0,5.355735302E0,7.057929516E0,9.107541001E0
1.088418880E-1,2.073380709E0,5.408377171E0,7.045965195E0,9.121133521E0
1.112286590E-1,2.059023857E0,5.444269657E0,7.034001350E0,9.129995966E0
1.136153780E-1,2.059023857E0,5.468197823E0,7.036394119E0,9.146125348E0
1.160021480E-1,2.035095692E0,5.513661385E0,7.031608582E0,9.164365531E0
1.183888670E-1,1.999203324E0,5.551946640E0,6.985845566E0,9.144559240E0
1.207756380E-1,1.970489502E0,5.597410202E0,6.949953556E0,9.138691606E0
1.231623570E-1,1.929512382E0,5.630909920E0,6.923632145E0,9.130544706E0
1.255491280E-1,1.886441588E0,5.650052547E0,6.868597507E0,9.091720815E0
1.279358980E-1,1.857727647E0,5.662016392E0,6.837490559E0,9.069777217E0
1.303226170E-1,1.833799481E0,5.669195175E0,6.815955162E0,9.053167360E0
1.327093880E-1,1.795514345E0,5.681159019E0,6.796812534E0,9.038589503E0
1.350961070E-1,1.766800404E0,5.671587944E0,6.763313293E0,9.001716513E0
1.374828780E-1,1.747657895E0,5.640480995E0,6.753741741E0,8.971196212E0
1.398696480E-1,1.735693693E0,5.614160061E0,6.739385128E0,8.941517639E0
1.422563670E-1,1.709372640E0,5.597410202E0,6.736992359E0,8.924125830E0
1.446431380E-1,1.668694735E0,5.559125423E0,6.739385128E0,8.894252610E0
1.470298570E-1,1.647159338E0,5.523232937E0,6.744170666E0,8.871475296E0
1.494166280E-1,1.587338686E0,5.487340450E0,6.756134510E0,8.847367000E0
1.518033460E-1,1.541875124E0,5.434698582E0,6.753741741E0,8.804905171E0
1.541901170E-1,1.462911963E0,5.425127029E0,6.763313293E0,8.792867644E0
1.565768880E-1,1.405484200E0,5.429912567E0,6.760920525E0,8.784610558E0
1.589636070E-1,1.342971683E0,5.410770416E0,6.760920525E0,8.762993540E0
1.613503780E-1,1.287936807E0,5.401198864E0,6.777669907E0,8.761765789E0
1.637370960E-1,1.252044439E0,5.413163185E0,6.803991318E0,8.784318346E0
1.661238670E-1,1.201795220E0,5.401198864E0,6.859025955E0,8.812689599E0
1.685106380E-1,1.132403374E0,5.401198864E0,6.914061069E0,8.846441490E0
1.708973570E-1,1.065404296E0,5.417948723E0,6.981060028E0,8.900811974E0
1.732841280E-1,9.936196208E-1,5.403591633E0,7.031608582E0,8.923541995E0
1.756708460E-1,9.122636318E-1,5.377270699E0,7.079464912E0,8.936782897E0
1.780576170E-1,8.452646136E-1,5.370092392E0,7.117750168E0,8.956267750E0
1.804443360E-1,7.803592682E-1,5.350949764E0,7.127321243E0,8.946526257E0
1.828311070E-1,7.492526174E-1,5.343770981E0,7.120142937E0,8.933851533E0
1.852178780E-1,7.444669604E-1,5.341378212E0,7.146463871E0,8.953016146E0
1.876045960E-1,7.277171612E-1,5.365306377E0,7.170392036E0,8.985021244E0
1.899913670E-1,7.061817646E-1,5.386841774E0,7.232605457E0,9.045846488E0
1.923780860E-1,7.301099896E-1,5.422734261E0,7.313961506E0,9.134174312E0
1.947648570E-1,7.420741320E-1,5.446662426E0,7.392924786E0,9.212607800E0
1.971516280E-1,7.588238716E-1,5.499304771E0,7.447959423E0,9.289255417E0
1.995383460E-1,7.516453862E-1,5.520840168E0,7.514958382E0,9.355172175E0
2.019251170E-1,7.420741320E-1,5.559125423E0,7.558029652E0,9.411607817E0
2.043118360E-1,7.396813035E-1,5.563910961E0,7.596613884E0,9.445251512E0
2.066986070E-1,7.516453862E-1,5.595017433E0,7.618149281E0,9.481845249E0
2.090853780E-1,7.923234105E-1,5.597410202E0,7.630113125E0,9.496178371E0
2.114720960E-1,8.548358679E-1,5.628517151E0,7.651648521E0,9.537225738E0
2.138588670E-1,9.194421172E-1,5.676373482E0,7.670791149E0,9.586846539E0
2.162455860E-1,9.864411354E-1,5.745765209E0,7.697112083E0,9.655693573E0
2.186323570E-1,1.060618639E0,5.815157413E0,7.749754429E0,9.746776972E0
2.210190750E-1,1.103689432E0,5.867799282E0,7.776075363E0,9.803904673E0
2.234058460E-1,1.144367456E0,5.911169052E0,7.797610760E0,9.851610528E0
2.257926170E-1,1.175474167E0,5.947061539E0,7.831110477E0,9.903311152E0
2.281793360E-1,1.230509043E0,6.002096653E0,7.862216949E0,9.967636234E0
2.305661070E-1,1.271187067E0,6.040381432E0,7.912466049E0,1.003539951E1
2.329528250E-1,1.323829174E0,6.023632050E0,7.943572998E0,1.005669025E1
2.353395960E-1,1.364507079E0,5.999703884E0,7.965108395E0,1.006485360E1
2.377263150E-1,1.427019596E0,5.966204166E0,8.008178711E0,1.008776008E1
2.401130860E-1,1.489233017E0,5.932704449E0,8.036892891E0,1.009982398E1
2.424998570E-1,1.532303810E0,5.863013744E0,8.048856735E0,1.007506724E1
2.448865750E-1,1.553839207E0,5.815157413E0,8.048856735E0,1.005060032E1
2.472733460E-1,1.616052628E0,5.769693375E0,8.063214302E0,1.004571613E1
2.496600650E-1,1.647159338E0,5.774479389E0,8.070392609E0,1.005927348E1
2.520468360E-1,1.683051586E0,5.784050465E0,8.079963684E0,1.007837862E1
2.544336070E-1,1.695015788E0,5.810371399E0,8.099106789E0,1.011083701E1
2.568203250E-1,1.742872238E0,5.874977589E0,8.077570915E0,1.013903926E1
2.592070960E-1,1.776371717E0,5.927918911E0,8.087141991E0,1.018320110E1
2.615938150E-1,1.766800404E0,5.959025860E0,8.067999840E0,1.018450756E1
2.639805860E-1,1.735693693E0,5.949454308E0,8.120641708E0,1.021535417E1
2.663673050E-1,1.668694735E0,5.860620975E0,8.147261620E0,1.017395165E1
2.687540750E-1,1.556231976E0,5.810371399E0,8.056035995E0,1.005395393E1
2.711408460E-1,1.448554993E0,5.772086620E0,7.922037601E0,9.908278119E0
2.735275650E-1,1.402792215E0,5.738586903E0,7.809575081E0,9.792275965E0
2.759143360E-1,1.474876046E0,5.769693375E0,7.800003529E0,9.813494588E0
2.783010550E-1,1.596910000E0,5.841478348E0,7.914859295E0,9.965841083E0
2.806878250E-1,1.752443433E0,5.877370834E0,8.063214302E0,1.013064513E1
2.830745440E-1,1.843370795E0,5.894419670E0,8.115856171E0,1.019849599E1
2.854613150E-1,1.840977907E0,5.944668770E0,8.065607071E0,1.018736000E1
2.878480860E-1,1.809871197E0,5.966204166E0,7.893323898E0,1.005861760E1
2.902348050E-1,1.750050664E0,5.982954025E0,7.677969456E0,9.889875184E0
2.926215750E-1,1.699801445E0,6.047560215E0,7.526922703E0,9.803921403E0
2.950082940E-1,1.649552107E0,6.109773636E0,7.455138206E0,9.779030714E0
2.973950650E-1,1.620838284E0,6.090631008E0,7.428816795E0,9.742187732E0
2.997817840E-1,1.611266971E0,6.076273918E0,7.433602810E0,9.735283083E0
3.021685550E-1,1.616052628E0,6.073881149E0,7.421638489E0,9.725449921E0
3.045553250E-1,1.601695657E0,6.078666687E0,7.404888630E0,9.713289520E0
3.069420440E-1,1.592124343E0,6.069095612E0,7.404888630E0,9.705728055E0
3.093288150E-1,1.584945917E0,6.030810356E0,7.349853992E0,9.638624426E0
3.117155340E-1,1.563410521E0,5.978168488E0,7.301997185E0,9.565663271E0
3.141023050E-1,1.556231976E0,5.949454308E0,7.256533623E0,9.511842342E0
3.164890750E-1,1.517946839E0,5.923133373E0,7.194320202E0,9.441711430E0
3.188757940E-1,1.496411443E0,5.925526142E0,7.167999268E0,9.419730398E0
3.212625650E-1,1.412662625E0,5.901597977E0,7.165606499E0,9.389908991E0
3.236492840E-1,1.180259824E0,5.870192051E0,7.160820961E0,9.334319729E0
3.260360550E-1,8.330013752E-1,5.683551788E0,7.074679375E0,9.113053302E0
3.284227730E-1,5.578267574E-1,5.408377171E0,6.945167542E0,8.820264536E0
3.308095440E-1,4.525425732E-1,5.144867897E0,6.837490559E0,8.568881934E0
3.331963150E-1,4.836492836E-1,4.963013172E0,6.725028038E0,8.372061782E0
3.355830340E-1,6.487540603E-1,4.972584724E0,6.674778938E0,8.348661842E0
3.379698050E-1,9.074779749E-1,5.075475693E0,6.729813576E0,8.477874766E0
3.403565230E-1,1.161117196E0,5.257330418E0,6.861418724E0,8.721627324E0
3.427432940E-1,1.393221021E0,5.453841209E0,7.007380962E0,8.988261050E0
3.451300650E-1,1.527518153E0,5.623731613E0,7.091429234E0,9.178672973E0
3.475167840E-1,1.515554070E0,5.714658737E0,7.115357399E0,9.251083155E0
3.499035550E-1,1.427019596E0,5.769693375E0,7.048357964E0,9.219820852E0
3.522902730E-1,1.335793257E0,5.764907837E0,6.933203697E0,9.115252026E0
3.546770440E-1,1.244866014E0,5.736194134E0,6.859025955E0,9.027726823E0
3.570637630E-1,1.187438250E0,5.673980713E0,6.758527756E0,8.904030781E0
3.594505340E-1,1.192223907E0,5.628517151E0,6.722635269E0,8.848470383E0
3.618373050E-1,1.228116274E0,5.585446358E0,6.722635269E0,8.826058325E0
3.642240230E-1,1.295115232E0,5.520840168E0,6.763313293E0,8.826064034E0
3.666107940E-1,1.388435364E0,5.465805054E0,6.854240417E0,8.876000752E0
3.689975130E-1,1.482054472E0,5.396413326E0,6.990631580E0,8.954702236E0
3.713842840E-1,1.539482236E0,5.314758301E0,7.127321243E0,9.023046573E0
3.737710030E-1,1.575374603E0,5.266901970E0,7.244569778E0,9.094275825E0
3.761577730E-1,1.587338686E0,5.197509766E0,7.335496902E0,9.129253347E0
3.785445440E-1,1.587338686E0,5.161617756E0,7.416852951E0,9.174510868E0
3.809312630E-1,1.582553029E0,5.175974369E0,7.505387306E0,9.253433059E0
3.833180340E-1,1.541875124E0,5.214259624E0,7.572386265E0,9.322387895E0
3.857047530E-1,1.508375525E0,5.195116997E0,7.649255753E0,9.368860705E0
3.880915230E-1,1.486840129E0,5.187938690E0,7.764111042E0,9.455518055E0
3.904782940E-1,1.460519075E0,5.199902534E0,7.881359577E0,9.554471787E0
3.928650130E-1,1.434198022E0,5.238187790E0,7.993822098E0,9.664198209E0
3.952517840E-1,1.422233939E0,5.288437366E0,8.113463402E0,9.788697949E0
3.976385030E-1,1.369292736E0,5.331807137E0,8.226224899E0,9.898176904E0
4.000252730E-1,1.319043517E0,5.346164227E0,8.317152023E0,9.974786490E0
4.024119920E-1,1.275972724E0,5.372485161E0,8.441578865E0,1.008721750E1
4.047987630E-1,1.261615753E0,5.420341492E0,8.554041862E0,1.020506778E1
4.071855340E-1,1.208973646E0,5.453841209E0,8.654540062E0,1.030082836E1
4.095722530E-1,1.168295622E0,5.437091351E0,8.793622971E0,1.040455102E1
4.119590230E-1,1.144367456E0,5.506483078E0,8.898907661E0,1.052717865E1
4.143457420E-1,1.130010486E0,5.551946640E0,9.016156197E0,1.064857304E1
4.167325130E-1,1.130010486E0,5.571089268E0,9.140582085E0,1.076402342E1
4.191192320E-1,1.134796143E0,5.523232937E0,9.294022560E0,1.087072765E1
4.215060030E-1,1.144367456E0,5.477769375E0,9.437591553E0,1.097194917E1
4.238927730E-1,1.153938770E0,5.427519798E0,9.573982239E0,1.106574362E1
4.262794920E-1,1.173081279E0,5.370092392E0,9.686445236E0,1.113738000E1
4.286662630E-1,1.185045362E0,5.334199905E0,9.789336205E0,1.121111611E1
4.310529820E-1,1.218544960E0,5.278865814E0,9.902098656E0,1.128728638E1
4.334397530E-1,1.259222865E0,5.228616714E0,9.993025780E0,1.134833200E1
4.358265230E-1,1.271187067E0,5.190331459E0,1.008873844E1,1.141657131E1
4.382132420E-1,1.252044439E0,5.135296345E0,1.015334511E1,1.144680308E1
4.406000130E-1,1.230509043E0,5.089832783E0,1.020359421E1,1.146882230E1
4.429867320E-1,1.206580877E0,5.056333542E0,1.027298546E1,1.151332170E1
4.453735030E-1,1.204187989E0,5.027619362E0,1.033280659E1,1.155395677E1
4.477602210E-1,1.192223907E0,5.025226593E0,1.038814068E1,1.160119679E1
4.501469920E-1,1.187438250E0,5.013262749E0,1.045274639E1,1.165344241E1
4.525337110E-1,1.165902853E0,5.027619362E0,1.048624611E1,1.168749945E1
4.549204820E-1,1.149153113E0,5.008476734E0,1.052453136E1,1.171200890E1
4.573072530E-1,1.113260746E0,5.030012131E0,1.053888798E1,1.173066628E1
4.596939710E-1,1.086939692E0,5.046761990E0,1.053888798E1,1.173539110E1
4.620807420E-1,1.077368379E0,5.065904617E0,1.052453136E1,1.172987096E1
4.644674610E-1,1.063011408E0,5.082654476E0,1.050778198E1,1.172078717E1
4.668542320E-1,1.063011408E0,5.094618320E0,1.046949673E1,1.169168469E1
4.692409500E-1,1.051047325E0,5.082654476E0,1.042164040E1,1.164253690E1
4.716277210E-1,1.065404296E0,5.075475693E0,1.038814068E1,1.161072808E1
4.740144920E-1,1.091725349E0,5.037190914E0,1.033998489E1,1.155337371E1
4.764012110E-1,1.079761267E0,4.972584724E0,1.030409241E1,1.149203218E1
4.787879820E-1,1.084546804E0,4.910371304E0,1.025862885E1,1.142486122E1
4.811747000E-1,1.086939692E0,4.855336189E0,1.020837975E1,1.135635260E1
4.835614710E-1,1.094118118E0,4.781158924E0,1.017248726E1,1.129318698E1
4.859482420E-1,1.115653515E0,4.706682205E0,1.015573788E1,1.124884670E1
4.883349610E-1,1.151545882E0,4.630111694E0,1.014377308E1,1.120982268E1
4.907217320E-1,1.153938770E0,4.563112736E0,1.014855862E1,1.118690371E1
4.931084500E-1,1.146760225E0,4.496113777E0,1.012463093E1,1.113724605E1
4.954952210E-1,1.141974568E0,4.407579422E0,1.014138031E1,1.111658477E1
4.978819400E-1,1.122832060E0,4.345366001E0,1.013420200E1,1.108354671E1
5.002687110E-1,1.113260746E0,4.292723656E0,1.013659477E1,1.106423877E1
5.026554300E-1,1.089332461E0,4.244867325E0,1.013898754E1,1.104556980E1
5.050422000E-1,1.084546804E0,4.175176620E0,1.015813065E1,1.103612069E1
5.074289710E-1,1.067797065E0,4.100998878E0,1.015334511E1,1.100221792E1
5.098156900E-1,1.053440213E0,4.072285175E0,1.017248726E1,1.100784901E1
5.122024610E-1,1.041476011E0,4.005286217E0,1.019880867E1,1.100648392E1
5.145891800E-1,1.034297585E0,3.957429647E0,1.022752190E1,1.101513618E1
5.169759500E-1,1.036690354E0,3.921537161E0,1.025862885E1,1.103143900E1
5.193627210E-1,1.046261668E0,3.866502285E0,1.030169964E1,1.105303211E1
5.217494400E-1,1.067797065E0,3.813860178E0,1.035912704E1,1.109041177E1
5.241362110E-1,1.096511006E0,3.746861219E0,1.040010452E1,1.110871187E1
5.265229300E-1,1.106082320E0,3.684647799E0,1.043599701E1,1.112250336E1
5.289097000E-1,1.134796143E0,3.629313707E0,1.048146057E1,1.114991910E1
5.312964190E-1,1.170688510E0,3.579064369E0,1.051256752E1,1.116665972E1
5.336831900E-1,1.170688510E0,3.533600807E0,1.051256752E1,1.115217118E1
5.360699610E-1,1.168295622E0,3.464209080E0,1.053410244E1,1.115046965E1
5.384566800E-1,1.185045362E0,3.394817114E0,1.053649521E1,1.113314183E1
5.408434500E-1,1.204187989E0,3.344567776E0,1.053649521E1,1.111997903E1
5.432301690E-1,1.204187989E0,3.301496983E0,1.054128075E1,1.111164033E1
5.456169400E-1,1.170688510E0,3.253640652E0,1.056042385E1,1.111212135E1
5.480036590E-1,1.144367456E0,3.217748165E0,1.053649521E1,1.107615508E1
5.503904300E-1,1.130010486E0,3.169891834E0,1.051735306E1,1.104263797E1
5.527772000E-1,1.098903775E0,3.112463951E0,1.051974583E1,1.102542850E1
5.551639190E-1,1.072582722E0,3.057130098E0,1.049581718E1,1.098447343E1
5.575506900E-1,1.039083242E0,3.035594702E0,1.045753193E1,1.093867008E1
5.599374090E-1,9.864411354E-1,3.028416157E0,1.044556808E1,1.092036003E1
5.623241800E-1,9.314061999E-1,3.028416157E0,1.043121147E1,1.090178860E1
5.647108980E-1,8.931210637E-1,3.023630619E0,1.039771175E1,1.086519291E1
5.670976690E-1,8.401798606E-1,3.018844843E0,1.037587738E1,1.083873414E1
5.694844400E-1,8.066803217E-1,3.028416157E0,1.033280659E1,1.079763537E1
5.718711590E-1,7.420741320E-1,3.045166016E0,1.026341438E1,1.073132727E1
5.742579300E-1,6.870391965E-1,3.061915636E0,1.020120144E1,1.067294997E1
5.766446480E-1,6.104688644E-1,3.071486950E0,1.013180923E1,1.060472832E1
5.790314190E-1,5.410770178E-1,3.083451033E0,1.006241703E1,1.053815312E1
5.814181380E-1,4.908277392E-1,3.102892876E0,9.945169449E0,1.042953745E1
5.838049090E-1,4.381856322E-1,3.136392355E0,9.851848602E0,1.034832762E1
5.861916280E-1,3.855435550E-1,3.155534744E0,9.755837440E0,1.026072159E1
5.885783980E-1,3.424727321E-1,3.150749207E0,9.626625061E0,1.013491086E1
5.909651690E-1,3.065803945E-1,3.145963669E0,9.521340370E0,1.003229791E1
5.933518880E-1,2.368894368E-1,3.148356438E0,9.432806015E0,9.947165133E0
5.957386590E-1,1.842473447E-1,3.181855917E0,9.344271660E0,9.872870252E0
5.981253780E-1,1.435693651E-1,3.222533941E0,9.236295700E0,9.783378528E0
6.005121480E-1,8.853443712E-2,3.246462107E0,9.159725189E0,9.718431977E0
6.028989190E-1,5.503492057E-2,3.277568817E0,9.059226990E0,9.634058327E0
6.052856380E-1,1.435693540E-2,3.337389469E0,8.951549530E0,9.553460817E0
6.076724090E-1,-2.153540403E-2,3.368496180E0,8.884550095E0,9.501708303E0
6.100591280E-1,-3.589234129E-2,3.413959742E0,8.798408508E0,9.437605716E0
6.124458980E-1,-3.828516230E-2,3.425923824E0,8.683254242E0,9.334737491E0
6.148326170E-1,-3.110669367E-2,3.454637766E0,8.589934349E0,9.258642549E0
6.172193880E-1,-3.589234129E-2,3.473780155E0,8.496614456E0,9.179373293E0
6.196061590E-1,-2.871387079E-2,3.514458179E0,8.420043945E0,9.124109865E0
6.219928780E-1,-2.632104978E-2,3.540779352E0,8.345866203E0,9.065941424E0
6.243796480E-1,-3.589234129E-2,3.586242914E0,8.271688461E0,9.015722739E0
6.267663670E-1,-4.307080805E-2,3.626920938E0,8.219046593E0,8.983826439E0
6.291531380E-1,-3.589234129E-2,3.667897940E0,8.183154106E0,8.967651570E0
6.315398570E-1,-3.828516230E-2,3.691826344E0,8.118248940E0,8.918352614E0
6.339266280E-1,-2.632104978E-2,3.727718592E0,8.087141991E0,8.904967393E0
6.363133460E-1,-4.785645287E-3,3.751646757E0,8.036892891E0,8.869415067E0
6.387001170E-1,7.178467698E-3,3.775574923E0,7.998608112E0,8.844927883E0
6.410868880E-1,2.392822644E-3,3.787539244E0,7.989036560E0,8.841389280E0
6.434736070E-1,1.914258115E-2,3.813860178E0,7.967501163E0,8.833287649E0
6.458603780E-1,2.153540403E-2,3.809074640E0,7.936394691E0,8.803174092E0
6.482470960E-1,4.546362907E-2,3.821038723E0,7.905287743E0,8.780431547E0
6.506338670E-1,5.982056633E-2,3.828217030E0,7.881359577E0,8.762114637E0
6.530205860E-1,7.178468257E-2,3.856930971E0,7.867002487E0,8.761894640E0
6.554073570E-1,7.896314561E-2,3.866502285E0,7.886145115E0,8.783356982E0
6.577941280E-1,7.417750359E-2,3.871287823E0,7.926823139E0,8.821955383E0
6.601808460E-1,9.092725813E-2,3.873680830E0,7.955537319E0,8.848968583E0
6.625676170E-1,1.076770201E-1,3.888037682E0,8.010572433E0,8.904925719E0
6.649543360E-1,1.124626622E-1,3.892823458E0,8.036892891E0,8.930754149E0
6.673411070E-1,1.100698411E-1,3.904787540E0,8.077570915E0,8.972548857E0
6.697278780E-1,1.148554832E-1,3.911965847E0,8.099106789E0,8.995120863E0
6.721145960E-1,1.148554832E-1,3.959822416E0,8.130212784E0,9.043989455E0
6.745013670E-1,1.244267747E-1,3.950251102E0,8.221439362E0,9.122062868E0
6.768880860E-1,1.339980662E-1,3.928715706E0,8.305188179E0,9.188520733E0
6.792748570E-1,1.459621787E-1,3.938287020E0,8.374580383E0,9.255539217E0
6.816615750E-1,1.651047617E-1,3.940679789E0,8.443971634E0,9.319703522E0
6.840483460E-1,1.890329868E-1,3.919144392E0,8.501399994E0,9.363184720E0
6.864351170E-1,1.890329868E-1,3.890430450E0,8.589934349E0,9.431763074E0
6.888218360E-1,2.057827413E-1,3.878466368E0,8.642576218E0,9.475176599E0
6.912086070E-1,2.057827413E-1,3.871287823E0,8.690432549E0,9.515925274E0
6.935953250E-1,2.249253243E-1,3.854538202E0,8.726624489E0,9.542642775E0
6.959820960E-1,2.440679073E-1,3.861716747E0,8.774480820E0,9.589783055E0
6.983688150E-1,2.536391914E-1,3.842574120E0,8.807980537E0,9.613023970E0
7.007555860E-1,2.560320199E-1,3.844966888E0,8.822337151E0,9.627198739E0
7.031423570E-1,2.751746178E-1,3.830610037E0,8.846264839E0,9.643946077E0
7.055290750E-1,2.727817893E-1,3.854538202E0,8.874979019E0,9.679727643E0
7.079158460E-1,2.775674164E-1,3.849752426E0,8.886942863E0,9.688931359E0
7.103025650E-1,2.632105052E-1,3.847359657E0,8.894122124E0,9.694166517E0
7.126893360E-1,2.584248483E-1,3.861716747E0,8.884550095E0,9.690968477E0
7.150760550E-1,2.512463629E-1,3.873680830E0,8.889336586E0,9.699939837E0
7.174628250E-1,2.392822653E-1,3.895216227E0,8.865407944E0,9.686352433E0
7.198495440E-1,2.177468538E-1,3.892823458E0,8.863015175E0,9.682692092E0
7.222363150E-1,1.914258152E-1,3.900001764E0,8.851051331E0,9.674077075E0
7.246230860E-1,1.579262912E-1,3.911965847E0,8.815158844E0,9.645488217E0
7.270098050E-1,1.316052526E-1,3.923929930E0,8.776873589E0,9.614991213E0
7.293965750E-1,1.004985496E-1,3.931108475E0,8.752944946E0,9.595715660E0
7.317832940E-1,4.067798331E-2,3.943072557E0,8.709874153E0,9.560930062E0
7.341700650E-1,7.178467698E-3,3.983750582E0,8.678468704E0,9.549143379E0
7.365567840E-1,-1.674975827E-2,3.998107433E0,8.637790680E0,9.518223124E0
7.389435550E-1,-5.742774159E-2,4.024428368E0,8.582756042E0,9.479610905E0
7.413303250E-1,-9.810572863E-2,4.038785458E0,8.518149376E0,9.427633929E0
7.437170440E-1,-1.316052526E-1,4.057928085E0,8.446364403E0,9.371508519E0
7.461038150E-1,-1.555334777E-1,4.089034557E0,8.369794846E0,9.316536912E0
7.484905340E-1,-1.746760458E-1,4.134498596E0,8.286046028E0,9.261919301E0
7.508773050E-1,-1.962114573E-1,4.151247978E0,8.223832130E0,9.214270108E0
7.532640230E-1,-2.297109663E-1,4.175176620E0,8.144868851E0,9.155531417E0
7.556507940E-1,-2.392822653E-1,4.194318771E0,8.072785378E0,9.100518101E0
7.580375650E-1,-2.512463629E-1,4.199104786E0,8.048856735E0,9.081833542E0
7.604242840E-1,-2.679961324E-1,4.232903481E0,8.001000404E0,9.055677847E0
7.628110550E-1,-2.994019389E-1,4.271188259E0,7.955537319E0,9.034559464E0
7.651977730E-1,-2.874378264E-1,4.321437836E0,7.914859295E0,9.022330249E0
7.675845440E-1,-2.970091105E-1,4.340580463E0,7.871788502E0,8.994104035E0
7.699712630E-1,-3.041875660E-1,4.352544308E0,7.831110477E0,8.964567103E0
7.723580340E-1,-3.185445070E-1,4.366901398E0,7.785646915E0,8.932390291E0
7.747448050E-1,-3.281157911E-1,4.426722050E0,7.756932735E0,8.937199424E0
7.771315230E-1,-3.472583890E-1,4.453042984E0,7.728219032E0,8.926116155E0
7.795182940E-1,-3.448655605E-1,4.476971149E0,7.699504852E0,8.913168791E0
7.819050130E-1,-3.855435550E-1,4.520041943E0,7.682755470E0,8.922116039E0
7.842917840E-1,-3.783650696E-1,4.570291042E0,7.654041290E0,8.922727633E0
7.866785030E-1,-3.783650696E-1,4.613361835E0,7.632505894E0,8.926444632E0
7.890652730E-1,-3.711866140E-1,4.632504463E0,7.615756035E0,8.921749665E0
7.914519920E-1,-4.022932947E-1,4.656432629E0,7.603792191E0,8.925349315E0
7.938387630E-1,-3.927220106E-1,4.685146809E0,7.587042332E0,8.925695633E0
7.962254820E-1,-3.903291821E-1,4.711467743E0,7.579864025E0,8.933343372E0
7.986122530E-1,-3.951148391E-1,4.737788677E0,7.572386265E0,8.941129181E0
8.009990230E-1,-3.855435550E-1,4.788337231E0,7.582256794E0,8.975936461E0
8.033857420E-1,-3.903291821E-1,4.824229717E0,7.599006653E0,9.009464543E0
8.057725130E-1,-4.190430641E-1,4.867300510E0,7.615756035E0,9.047980511E0
8.081592320E-1,-4.190430641E-1,4.893621445E0,7.615756035E0,9.062166844E0
8.105460030E-1,-4.286143482E-1,4.924727917E0,7.608577728E0,9.073428809E0
8.129327210E-1,-4.262215197E-1,4.970191956E0,7.620542049E0,9.108080697E0
8.153194920E-1,-4.453641176E-1,5.025226593E0,7.625327587E0,9.143132522E0
8.177062630E-1,-4.692923427E-1,5.051547527E0,7.630113125E0,9.162804921E0
8.200929820E-1,-4.764707983E-1,5.087440014E0,7.637291908E0,9.188976984E0
8.224797530E-1,-4.812564552E-1,5.123332500E0,7.649255753E0,9.219070303E0
8.248664710E-1,-5.147559643E-1,5.168796062E0,7.673183918E0,9.266022765E0
8.272532420E-1,-5.027918816E-1,5.168796062E0,7.697112083E0,9.285191804E0
8.296400130E-1,-4.836492836E-1,5.192724228E0,7.704290867E0,9.303461684E0
8.320267320E-1,-4.788636267E-1,5.211866856E0,7.721040249E0,9.327771921E0
8.344134500E-1,-4.908277392E-1,5.233402252E0,7.737790108E0,9.354293493E0
8.368002210E-1,-4.956133962E-1,5.257330418E0,7.723433495E0,9.356098583E0
8.391869920E-1,-5.003990531E-1,5.269294739E0,7.742575645E0,9.378877538E0
8.415737110E-1,-4.788636267E-1,5.283651352E0,7.754539967E0,9.395699659E0
8.439604820E-1,-4.668995142E-1,5.307579517E0,7.752147198E0,9.406603089E0
8.463472000E-1,-4.405784607E-1,5.326722145E0,7.766504288E0,9.427972584E0
8.487339710E-1,-4.310071766E-1,5.343770981E0,7.783253670E0,9.450962553E0
8.511207420E-1,-4.357928336E-1,5.370092392E0,7.778468132E0,9.462154838E0
8.535074610E-1,-4.405784607E-1,5.394020557E0,7.802396297E0,9.495628212E0
8.558942320E-1,-4.334000051E-1,5.422734261E0,7.823931694E0,9.529312125E0
8.582809500E-1,-4.453641176E-1,5.415555954E0,7.847859859E0,9.545443932E0
8.606677210E-1,-4.525425732E-1,5.461019516E0,7.874181271E0,9.593240309E0
8.630544400E-1,-4.525425732E-1,5.477769375E0,7.890930653E0,9.616524251E0
8.654412110E-1,-4.477569461E-1,5.513661385E0,7.919644833E0,9.660316890E0
8.678279820E-1,-4.453641176E-1,5.523232937E0,7.943572998E0,9.685287980E0
8.702147000E-1,-4.453641176E-1,5.516054630E0,7.938787460E0,9.677269978E0
8.726014190E-1,-4.549354017E-1,5.542375565E0,7.953144073E0,9.704503788E0
8.749881900E-1,-4.429712892E-1,5.544768333E0,7.967501163E0,9.717085686E0
8.773749610E-1,-4.381856322E-1,5.571089268E0,7.972286701E0,9.735830603E0
8.797616800E-1,-4.238287210E-1,5.595017433E0,7.981858253E0,9.756736752E0
8.821484500E-1,-4.046861231E-1,5.595017433E0,8.020143509E0,9.787271981E0
8.845351690E-1,-3.855435550E-1,5.585446358E0,8.032107353E0,9.790842833E0
8.869219400E-1,-3.687937856E-1,5.587839127E0,8.079963684E0,9.830857953E0
8.893087110E-1,-3.735794425E-1,5.592624664E0,8.113463402E0,9.861303190E0
8.916954300E-1,-3.735794425E-1,5.590231895E0,8.156833649E0,9.895665183E0
8.940822000E-1,-3.400799036E-1,5.580660820E0,8.199904442E0,9.924608929E0
8.964689190E-1,-3.305086195E-1,5.561518192E0,8.247760773E0,9.953154189E0
8.988556900E-1,-3.065803945E-1,5.583053589E0,8.312366486E0,1.001797961E1
9.012424090E-1,-3.017947674E-1,5.559125423E0,8.379365921E0,1.006025491E1
9.036291800E-1,-3.137588799E-1,5.556732178E0,8.451150894E0,1.011917331E1
9.060158980E-1,-3.113660514E-1,5.539982796E0,8.503792763E0,1.015395733E1
9.084026690E-1,-3.041875660E-1,5.542375565E0,8.566005707E0,1.020719897E1
9.107894400E-1,-3.185445070E-1,5.525625706E0,8.630612373E0,1.025287667E1
9.131761590E-1,-3.161516786E-1,5.530411243E0,8.680861473E0,1.029770636E1
9.155629300E-1,-3.329014480E-1,5.542375565E0,8.740981102E0,1.035536097E1
9.179496480E-1,-3.400799036E-1,5.549553871E0,8.796015739E0,1.040591637E1
9.203364190E-1,-3.544368446E-1,5.561518192E0,8.839086533E0,1.044918948E1
9.227231380E-1,-3.759722710E-1,5.559125423E0,8.920442581E0,1.051758178E1
9.251099090E-1,-3.927220106E-1,5.561518192E0,8.958727837E0,1.055194388E1
9.274966280E-1,-3.975076675E-1,5.575874805E0,8.989834785E0,1.058610040E1
9.298833980E-1,-3.783650696E-1,5.578267574E0,9.013762474E0,1.060698558E1
9.322701690E-1,-3.951148391E-1,5.604588985E0,9.023334503E0,1.062958602E1
9.346568880E-1,-4.118646085E-1,5.606981754E0,9.049654961E0,1.065383179E1
9.370436590E-1,-4.262215197E-1,5.597410202E0,9.075976372E0,1.067173898E1
9.394303780E-1,-4.238287210E-1,5.628517151E0,9.078369141E0,1.069002443E1
9.418171480E-1,-4.549354017E-1,5.633302689E0,9.097511292E0,1.071007830E1
9.442039190E-1,-4.764707983E-1,5.623731613E0,9.133403778E0,1.073650065E1
9.465906380E-1,-4.980062246E-1,5.630909920E0,9.178867340E0,1.077992404E1
9.489774090E-1,-5.482555032E-1,5.640480995E0,9.221938133E0,1.082403589E1
9.513641280E-1,-5.841478109E-1,5.642873764E0,9.262915611E0,1.086208353E1
9.537508980E-1,-6.320042610E-1,5.673980713E0,9.301200867E0,1.091356148E1
9.561376170E-1,-6.607181430E-1,5.690730572E0,9.322735786E0,1.094231993E1
9.585243880E-1,-7.013961077E-1,5.712265968E0,9.353842735E0,1.098254583E1
9.609111070E-1,-7.325028181E-1,5.745765209E0,9.358628273E0,1.100610291E1
9.632978780E-1,-7.564310431E-1,5.757729530E0,9.380164146E0,1.103227613E1
9.656845960E-1,-7.731808424E-1,5.796014786E0,9.396913528E0,1.106768178E1
9.680713670E-1,-7.755736113E-1,5.815157413E0,9.416056633E0,1.109412875E1
9.704581380E-1,-7.947162390E-1,5.836692810E0,9.420842171E0,1.111084264E1
9.728448570E-1,-7.875377536E-1,5.841478348E0,9.404091835E0,1.109864984E1
9.752316280E-1,-8.090731502E-1,5.858228207E0,9.377771378E0,1.108675034E1
9.776183460E-1,-8.138588071E-1,5.874977589E0,9.351449966E0,1.107372315E1
9.800051170E-1,-8.282157183E-1,5.918347836E0,9.317950249E0,1.106964224E1
9.823918360E-1,-8.401798606E-1,5.939883232E0,9.305986404E0,1.107201418E1
9.847786070E-1,-8.739784956E-1,5.954239845E0,9.262915611E0,1.104619465E1
9.871653780E-1,-8.907282352E-1,5.975775242E0,9.200403214E0,1.100684813E1
9.895520960E-1,-8.931210637E-1,5.968596935E0,9.190832138E0,1.099514484E1
9.919388670E-1,-8.955138922E-1,5.987739563E0,9.178867340E0,1.099575263E1
9.943255860E-1,-9.002995491E-1,6.014060497E0,9.152546883E0,1.098856576E1
9.967123570E-1,-9.050851464E-1,6.011667728E0,9.123832703E0,1.096374257E1
9.990990750E-1,-9.218349457E-1,6.023632050E0,9.095118523E0,1.094783557E1
1.001485846E0,-9.218349457E-1,6.049952984E0,9.068798065E0,1.094051229E1
1.003872617E0,-9.314061999E-1,6.064310074E0,9.037691116E0,1.092351751E1
1.006259336E0,-9.625129104E-1,6.088238239E0,9.030512810E0,1.093358302E1
1.008646107E0,-9.888339639E-1,6.119344711E0,9.020941734E0,1.094538999E1
1.011032825E0,-9.912267923E-1,6.152844429E0,9.035298347E0,1.097618519E1
1.013419596E0,-1.000798106E0,6.174379826E0,9.040083885E0,1.099307417E1
1.015806315E0,-1.024726272E0,6.200700760E0,9.047262192E0,1.101597508E1
1.018193086E0,-1.039083242E0,6.207879066E0,9.054440498E0,1.102725484E1
1.020579805E0,-1.041476011E0,6.243771553E0,9.037691116E0,1.103400273E1
1.022966575E0,-1.055832982E0,6.246164322E0,9.054440498E0,1.105044093E1
1.025353346E0,-1.053440213E0,6.262914181E0,9.040083885E0,1.104793858E1
1.027740065E0,-1.051047325E0,6.265306950E0,9.025727272E0,1.103732415E1
1.030126836E0,-1.070189953E0,6.241378784E0,9.042476654E0,1.103931609E1
1.032513555E0,-1.077368379E0,6.231807709E0,9.035298347E0,1.102872459E1
1.034900325E0,-1.067797065E0,6.210271835E0,9.035298347E0,1.101563811E1
1.037287044E0,-1.051047325E0,6.179165363E0,9.030512810E0,1.099258599E1
1.039673815E0,-1.058225870E0,6.138487339E0,9.037691116E0,1.097637142E1
1.042060534E0,-1.074975610E0,6.136094570E0,9.025727272E0,1.096681275E1
1.044447305E0,-1.077368379E0,6.107380867E0,9.028120041E0,1.095298019E1
1.046834075E0,-1.058225870E0,6.116951942E0,9.032905579E0,1.096039809E1
1.049220794E0,-1.060618639E0,6.114559174E0,9.011369705E0,1.094155061E1
1.051607565E0,-1.072582722E0,6.136094570E0,9.006584167E0,1.095082867E1
1.053994284E0,-1.072582722E0,6.131309032E0,9.006584167E0,1.094814790E1
1.056381055E0,-1.072582722E0,6.143272877E0,9.030512810E0,1.097453402E1
1.058767773E0,-1.074975610E0,6.169594288E0,9.032905579E0,1.099148986E1
1.061154544E0,-1.063011408E0,6.176772594E0,9.078369141E0,1.103174053E1
1.063541263E0,-1.043868899E0,6.174379826E0,9.107083321E0,1.105222128E1
1.065928034E0,-1.036690354E0,6.160022736E0,9.164510727E0,1.109093611E1
1.068314805E0,-1.051047325E0,6.195915222E0,9.214759827E0,1.115373770E1
1.070701523E0,-1.055832982E0,6.198307991E0,9.272486687E0,1.120325018E1
1.073088294E0,-1.065404296E0,6.219843388E0,9.322735786E0,1.125766142E1
1.075475013E0,-1.055832982E0,6.238986015E0,9.368199348E0,1.130499398E1
1.077861784E0,-1.060618639E0,6.236593246E0,9.442377090E0,1.136567166E1
1.080248503E0,-1.072582722E0,6.258128643E0,9.504590988E0,1.143030436E1
1.082635273E0,-1.074975610E0,6.255735874E0,9.588339806E0,1.149895926E1
1.085021992E0,-1.072582722E0,6.236593246E0,9.662516594E0,1.155031411E1
1.087408763E0,-1.060618639E0,6.229414463E0,9.734301567E0,1.160547903E1
1.089795482E0,-1.039083242E0,6.198307991E0,9.820742607E0,1.165957552E1
1.092182253E0,-1.031904817E0,6.162415504E0,9.902098656E0,1.170861863E1
1.094569023E0,-1.010369420E0,6.140880108E0,1.001934624E1,1.179485286E1
1.096955742E0,-9.984052777E-1,6.078666687E0,1.012223816E1,1.184933362E1
1.099342513E0,-9.792626500E-1,6.006882191E0,1.021316528E1,1.188908466E1
1.101729232E0,-9.361918569E-1,5.949454308E0,1.031844902E1,1.194750400E1
1.104116003E0,-8.715856671E-1,5.882156372E0,1.043121147E1,1.200706450E1
1.106502721E0,-8.042874932E-1,5.788836002E0,1.053410244E1,1.204677612E1
1.108889492E0,-7.325028181E-1,5.700301647E0,1.062024403E1,1.207557793E1
1.111276263E0,-6.272186637E-1,5.616552830E0,1.073031425E1,1.212760129E1
1.113662982E0,-5.291129351E-1,5.513661385E0,1.083320522E1,1.216711789E1
1.116049753E0,-4.310071766E-1,5.413163185E0,1.094836044E1,1.222107603E1
1.118436471E0,-3.496512175E-1,5.307579517E0,1.105125141E1,1.226469788E1
1.120823242E0,-2.751746178E-1,5.204688549E0,1.115653515E1,1.231392628E1
1.123209961E0,-1.962114573E-1,5.101797104E0,1.126181984E1,1.236508871E1
1.125596732E0,-1.124626622E-1,4.991727352E0,1.134796143E1,1.239783119E1
1.127983450E0,-4.546362907E-2,4.893621445E0,1.144128132E1,1.244397509E1
1.130370221E0,2.153540403E-2,4.793122768E0,1.151575851E1,1.247345918E1
1.132756992E0,6.939185411E-2,4.704289436E0,1.156361485E1,1.248408357E1
1.135143711E0,1.292124242E-1,4.632504463E0,1.158993530E1,1.248212297E1
1.137530482E0,1.722832322E-1,4.560719967E0,1.160907841E1,1.247399493E1
1.139917200E0,2.105683982E-1,4.472185612E0,1.162343502E1,1.245588314E1
1.142303971E0,2.057827413E-1,4.424329281E0,1.159472084E1,1.241187284E1
1.144690690E0,2.033899277E-1,4.366901398E0,1.155404282E1,1.235342465E1
1.147077461E0,1.914258152E-1,4.304687977E0,1.144606686E1,1.223026692E1
1.149464180E0,1.339980662E-1,4.295116425E0,1.130489063E1,1.209407015E1
1.151850950E0,7.896314561E-2,4.252045631E0,1.112303638E1,1.190831918E1
1.154237721E0,-9.571290575E-3,4.273581028E0,1.094836044E1,1.175287977E1
1.156624440E0,-6.939185411E-2,4.264009953E0,1.071117115E1,1.152891077E1
1.159011211E0,-1.555334777E-1,4.256831646E0,1.047428226E1,1.130731601E1
1.161397930E0,-2.440679073E-1,4.268795490E0,1.025384331E1,1.110961235E1
1.163784700E0,-3.209373355E-1,4.256831646E0,1.000977516E1,1.088205933E1
1.166171419E0,-4.142574072E-1,4.254438877E0,9.779765129E0,1.067312819E1
1.168558190E0,-4.645066857E-1,4.235296249E0,9.566803932E0,1.047269012E1
1.170944909E0,-5.554339290E-1,4.220939159E0,9.356235504E0,1.027929847E1
1.173331680E0,-6.224330068E-1,4.201497555E0,9.164510727E0,1.010090399E1
1.175718450E0,-7.181459069E-1,4.206283092E0,8.973084450E0,9.936035202E0
1.178105169E0,-7.660023570E-1,4.213760853E0,8.776873589E0,9.766066256E0
1.180491940E0,-8.210372925E-1,4.235296249E0,8.594719887E0,9.616706634E0
1.182878659E0,-8.787640929E-1,4.249652863E0,8.405686378E0,9.459774801E0
1.185265430E0,-9.218349457E-1,4.275974274E0,8.223832130E0,9.314781295E0
1.187652148E0,-9.744769931E-1,4.311866283E0,8.039285660E0,9.174525065E0
1.190038919E0,-9.864411354E-1,4.338187218E0,7.881359577E0,9.050346028E0
1.192425638E0,-1.000798106E0,4.371686935E0,7.737790108E0,8.943524991E0
1.194812409E0,-1.003190875E0,4.417150497E0,7.589435101E0,8.838389876E0
1.197199128E0,-9.888339639E-1,4.453042984E0,7.459923744E0,8.744017766E0
1.199585898E0,-9.744769931E-1,4.496113777E0,7.330711365E0,8.654708177E0
1.201972669E0,-9.816554785E-1,4.563112736E0,7.227819920E0,8.603895984E0
1.204359388E0,-9.337990284E-1,4.606183529E0,7.156035423E0,8.561410533E0
1.206746159E0,-8.907282352E-1,4.622933388E0,7.086643219E0,8.507962271E0
1.209132878E0,-8.330013752E-1,4.646861553E0,7.038786888E0,8.475360431E0
1.211519648E0,-7.803592682E-1,4.658825874E0,6.981060028E0,8.429046104E0
1.213906367E0,-7.085745931E-1,4.666004181E0,6.949953556E0,8.400924199E0
1.216293138E0,-6.415755749E-1,4.716253281E0,6.940382004E0,8.415673864E0
1.218679857E0,-5.745765567E-1,4.735395908E0,6.942774773E0,8.423552349E0
1.221066628E0,-5.075774789E-1,4.756931305E0,6.997809887E0,8.476754895E0
1.223453398E0,-4.286143482E-1,4.764110088E0,7.036394119E0,8.508307552E0
1.225840117E0,-3.592225015E-1,4.756931305E0,7.077072144E0,8.534775121E0
1.228226888E0,-3.257229924E-1,4.747360229E0,7.141678333E0,8.581788510E0
1.230613607E0,-2.874378264E-1,4.764110088E0,7.203891754E0,8.641494190E0
1.233000378E0,-2.297109663E-1,4.747360229E0,7.280461788E0,8.694556925E0
1.235387096E0,-1.579262912E-1,4.735395908E0,7.342675209E0,8.738638014E0
1.237773867E0,-1.100698411E-1,4.730610371E0,7.407281399E0,8.789687569E0
1.240160638E0,-4.785645381E-2,4.706682205E0,7.443173885E0,8.806587597E0
1.242547357E0,-2.392822644E-3,4.663611412E0,7.486244678E0,8.820041752E0
1.244934075E0,5.982056633E-2,4.642076015E0,7.548458099E0,8.861809517E0
1.247320846E0,1.028913707E-1,4.615755081E0,7.584649563E0,8.879340662E0
1.249707617E0,1.387837082E-1,4.555934429E0,7.615756035E0,8.875558541E0
1.252094336E0,1.818545163E-1,4.488935471E0,7.634898663E0,8.858628015E0
1.254481107E0,2.273181528E-1,4.445864677E0,7.646862984E0,8.848271004E0
1.256867825E0,2.656033039E-1,4.395615101E0,7.644470215E0,8.822125713E0
1.259254596E0,2.874378264E-1,4.338187218E0,7.632505894E0,8.783941886E0
1.261641315E0,3.185445070E-1,4.287938118E0,7.630113125E0,8.758225289E0
1.264028086E0,3.640081584E-1,4.211368084E0,7.620542049E0,8.714400966E0
1.266414857E0,3.831507266E-1,4.175176620E0,7.610970497E0,8.689405975E0
1.268801575E0,3.999004960E-1,4.132105827E0,7.579864025E0,8.642254198E0
1.271188346E0,4.046861231E-1,4.100998878E0,7.562815189E0,8.612673002E0
1.273575065E0,4.142574072E-1,4.053142548E0,7.522137165E0,8.554654946E0
1.275961836E0,4.166502357E-1,4.033999920E0,7.483851910E0,8.512038074E0
1.278348555E0,4.405784607E-1,4.026821613E0,7.457530975E0,8.486705482E0
1.280735325E0,4.525425732E-1,4.019642830E0,7.414460182E0,8.446096320E0
1.283122044E0,4.405784607E-1,4.012464523E0,7.385746002E0,8.416841744E0
1.285508815E0,4.453641176E-1,4.017250061E0,7.352246761E0,8.390004749E0
1.287895586E0,4.262215197E-1,4.007678986E0,7.309175968E0,8.346688503E0
1.290282305E0,4.166502357E-1,3.998107433E0,7.292426109E0,8.326940556E0
1.292669075E0,3.783650696E-1,4.012464523E0,7.280461788E0,8.321547664E0
1.295055794E0,3.520440459E-1,4.024428368E0,7.261319637E0,8.309435695E0
1.297442565E0,3.137588799E-1,4.053142548E0,7.249355316E0,8.311411531E0
1.299829284E0,2.946162820E-1,4.031607151E0,7.242177010E0,8.293960623E0
1.302216055E0,2.850449979E-1,4.010071754E0,7.242177010E0,8.283178977E0
1.304602773E0,2.703889608E-1,4.031607151E0,7.258926392E0,8.307766172E0
1.306989544E0,2.512463629E-1,4.005286217E0,7.256533623E0,8.292329144E0
1.309376315E0,2.344966233E-1,4.019642830E0,7.256533623E0,8.298782885E0
1.311763034E0,2.153540403E-1,4.012464523E0,7.261319637E0,8.298976551E0
1.314149805E0,2.177468538E-1,4.019642830E0,7.273283482E0,8.312977492E0
1.316536523E0,1.962114573E-1,4.029214382E0,7.294818878E0,8.335913264E0
1.318923294E0,1.938186288E-1,4.036392689E0,7.318747044E0,8.360268530E0
1.321310013E0,1.866401732E-1,4.038785458E0,7.328318596E0,8.369640134E0
1.323696784E0,1.986042857E-1,4.038785458E0,7.321139812E0,8.363630778E0
1.326083503E0,1.914258152E-1,4.041178226E0,7.323532581E0,8.366713499E0
1.328470273E0,2.033899277E-1,4.048357010E0,7.323532581E0,8.370465424E0
1.330856992E0,2.033899277E-1,4.050749779E0,7.313961506E0,8.363251410E0
1.333243763E0,2.057827413E-1,4.043570995E0,7.328318596E0,8.372399081E0
1.335630534E0,2.153540403E-1,4.057928085E0,7.294818878E0,8.350301801E0
1.338017253E0,2.321037948E-1,4.074677944E0,7.294818878E0,8.358902738E0
1.340404023E0,2.225325108E-1,4.093820572E0,7.275676250E0,8.351308430E0
1.342790742E0,2.321037948E-1,4.103391647E0,7.254140854E0,8.337520897E0
1.345177513E0,2.392822653E-1,4.122534275E0,7.234998226E0,8.330530846E0
1.347564232E0,2.344966233E-1,4.160819530E0,7.206284523E0,8.324538693E0
1.349951003E0,2.321037948E-1,4.165605068E0,7.177570820E0,8.302027501E0
1.352337721E0,2.321037948E-1,4.184747696E0,7.170392036E0,8.305450464E0
1.354724492E0,2.009970993E-1,4.216153622E0,7.151249409E0,8.304018262E0
1.357111263E0,1.914258152E-1,4.237689018E0,7.134500027E0,8.300345938E0
1.359497982E0,1.579262912E-1,4.273581028E0,7.122535706E0,8.307764464E0
1.361884753E0,1.411765367E-1,4.292723656E0,7.103393078E0,8.300939731E0
1.364271471E0,1.124626622E-1,4.309473515E0,7.086643219E0,8.294861176E0
1.366658242E0,8.614161611E-2,4.335794449E0,7.079464912E0,8.302129686E0
1.369044961E0,7.417750359E-2,4.347758770E0,7.069893837E0,8.300114908E0
1.371431732E0,6.939185411E-2,4.369294167E0,7.062715054E0,8.305268850E0
1.373818450E0,5.264209956E-2,4.386044025E0,7.053143978E0,8.305840918E0
1.376205221E0,2.632104978E-2,4.419543266E0,7.050751209E0,8.321427047E0
1.378591992E0,-7.178467698E-3,4.409972191E0,7.043572426E0,8.310223750E0
1.380978711E0,-3.589234129E-2,4.419543266E0,7.074679375E0,8.341746771E0
1.383365430E0,-5.503492057E-2,4.409972191E0,7.084250450E0,8.344907909E0
1.385752200E0,-7.178468257E-2,4.424329281E0,7.120142937E0,8.383094778E0
1.388138971E0,-7.178468257E-2,4.417150497E0,7.122535706E0,8.381341565E0
1.390525690E0,-7.417750359E-2,4.433900356E0,7.129714012E0,8.396296598E0
1.392912461E0,-9.332008660E-2,4.448257446E0,7.148856640E0,8.420323878E0
1.395299180E0,-1.028913707E-1,4.460221291E0,7.165606499E0,8.440976074E0
1.397685950E0,-1.076770201E-1,4.443471432E0,7.189534664E0,8.452540529E0
1.400072669E0,-1.100698411E-1,4.455435753E0,7.206284523E0,8.473108033E0
1.402459440E0,-9.571290761E-2,4.469792843E0,7.211070061E0,8.484558942E0
1.404846211E0,-1.052841991E-1,4.484149456E0,7.218248844E0,8.498340866E0
1.407232930E0,-9.332008660E-2,4.481756687E0,7.234998226E0,8.511172127E0
1.409619700E0,-7.896314561E-2,4.469792843E0,7.254140854E0,8.521023575E0
1.412006419E0,-6.460621208E-2,4.469792843E0,7.287640572E0,8.549440164E0
1.414393190E0,-3.349951655E-2,4.469792843E0,7.299604416E0,8.559462302E0
1.416779909E0,-2.632104978E-2,4.467400074E0,7.342675209E0,8.594954069E0
1.419166680E0,-1.196411345E-2,4.465006828E0,7.373782158E0,8.620272178E0
1.421553398E0,2.153540403E-2,4.481756687E0,7.419245720E0,8.667860972E0
1.423940169E0,7.178468257E-2,4.484149456E0,7.445566654E0,8.691904980E0
1.426326888E0,7.178468257E-2,4.498506546E0,7.476673603E0,8.725959108E0
1.428713659E0,1.124626622E-1,4.500899315E0,7.495816231E0,8.744026730E0
1.431100430E0,1.507478207E-1,4.524827480E0,7.550850868E0,8.804097766E0
1.433487148E0,2.009970993E-1,4.546362877E0,7.630113125E0,8.884168027E0
1.435873919E0,2.225325108E-1,4.532006264E0,7.668398380E0,8.910271332E0
1.438260638E0,2.799602449E-1,4.546362877E0,7.711469173E0,8.956257587E0
1.440647409E0,3.305086195E-1,4.522434711E0,7.771289825E0,8.997477270E0
1.443034128E0,4.022932947E-1,4.527220249E0,7.838288784E0,9.060702740E0
1.445420898E0,4.645066857E-1,4.524827480E0,7.926823139E0,9.139166005E0
1.447807617E0,5.243272781E-1,4.524827480E0,8.015357971E0,9.219270374E0
1.450194388E0,6.032904387E-1,4.527220249E0,8.084749222E0,9.285626124E0
1.452581107E0,6.607181430E-1,4.541577339E0,8.178368568E0,9.378069398E0
1.454967878E0,7.372884750E-1,4.541577339E0,8.245368004E0,9.442224978E0
1.457354596E0,8.258228898E-1,4.541577339E0,8.302795410E0,9.499701037E0
1.459741367E0,9.002995491E-1,4.543970108E0,8.365009308E0,9.561986422E0
1.462128138E0,9.696913958E-1,4.546362877E0,8.420043945E0,9.618048495E0
1.464514857E0,1.031904817E0,4.553541660E0,8.470293045E0,9.671888826E0
1.466901628E0,1.098903775E0,4.551148891E0,8.513363838E0,9.715858664E0
1.469288346E0,1.146760225E0,4.558327198E0,8.539685249E0,9.747801291E0
1.471675117E0,1.185045362E0,4.560719967E0,8.573184013E0,9.782841267E0
1.474061836E0,1.213759303E0,4.584648132E0,8.616254807E0,9.835245652E0
1.476448607E0,1.228116274E0,4.596612453E0,8.637790680E0,9.861467612E0
1.478835325E0,1.237687469E0,4.615755081E0,8.656932831E0,9.888354326E0
1.481222096E0,1.223330617E0,4.627718925E0,8.690432549E0,9.921488705E0
1.483608867E0,1.223330617E0,4.632504463E0,8.721838951E0,9.951236611E0
1.485995586E0,1.206580877E0,4.639683247E0,8.729017258E0,9.958827257E0
1.488382357E0,1.175474167E0,4.658825874E0,8.736195564E0,9.970331538E0
1.490769075E0,1.130010486E0,4.709074974E0,8.743373871E0,9.994943594E0
1.493155846E0,1.086939692E0,4.730610371E0,8.743373871E0,1.000033495E1
1.495542565E0,1.051047325E0,4.776372910E0,8.748159409E0,1.002241147E1
1.497929336E0,1.015154958E0,4.790730000E0,8.731410027E0,1.001095173E1
1.500316055E0,9.601200819E-1,4.805087090E0,8.717052460E0,9.999884804E0
1.502702825E0,9.337990284E-1,4.805087090E0,8.707481384E0,9.989047733E0
1.505089544E0,8.907282352E-1,4.819443703E0,8.700303078E0,9.985775285E0
1.507476315E0,8.476574421E-1,4.840979099E0,8.673683167E0,9.969271862E0
1.509863086E0,8.018946648E-1,4.845765114E0,8.635397911E0,9.934514164E0
1.512249805E0,7.660023570E-1,4.850550652E0,8.589934349E0,9.894522391E0
1.514636575E0,7.396813035E-1,4.857728958E0,8.539685249E0,9.852455695E0
1.517023294E0,7.085745931E-1,4.869693279E0,8.501399994E0,9.822921788E0
1.519410065E0,6.966105103E-1,4.886443138E0,8.463114738E0,9.797290637E0
1.521796784E0,6.655037999E-1,4.912764072E0,8.446364403E0,9.793835702E0
1.524183555E0,6.559324861E-1,4.939085007E0,8.436793327E0,9.798177880E0
1.526570273E0,6.367899179E-1,4.943870544E0,8.403293610E0,9.770501566E0
1.528957044E0,6.320042610E-1,4.948656559E0,8.384151459E0,9.756158404E0
1.531343763E0,6.224330068E-1,4.984548569E0,8.357830048E0,9.751229173E0
1.533730534E0,6.296114326E-1,4.998905659E0,8.326724052E0,9.732409865E0
1.536117305E0,6.463612318E-1,5.044369221E0,8.314759254E0,9.746725868E0
1.538504023E0,6.631109715E-1,5.077868938E0,8.309973717E0,9.761154250E0
1.540890794E0,6.726822853E-1,5.123332500E0,8.283653259E0,9.763193570E0
1.543277513E0,6.894320250E-1,5.168796062E0,8.276473999E0,9.782218108E0
1.545664284E0,6.966105103E-1,5.199902534E0,8.278866768E0,9.801218676E0
1.548051003E0,6.966105103E-1,5.238187790E0,8.307580948E0,9.845800055E0
1.550437773E0,7.205387354E-1,5.257330418E0,8.331509590E0,9.877892044E0
1.552824492E0,7.229315639E-1,5.290830135E0,8.372187614E0,9.930208408E0
1.555211263E0,7.277171612E-1,5.317151070E0,8.391329765E0,9.960727031E0
1.557597982E0,7.516453862E-1,5.329114914E0,8.429615021E0,1.000114223E1
1.559984753E0,7.731808424E-1,5.346164227E0,8.487042427E0,1.006027682E1
1.562371523E0,8.018946648E-1,5.348556995E0,8.546863556E0,1.011429551E1
1.564758242E0,8.452646136E-1,5.377270699E0,8.640183449E0,1.021186968E1
1.567145013E0,8.835497499E-1,5.391627789E0,8.736195564E0,1.030395183E1
1.569531732E0,9.146564603E-1,5.401198864E0,8.836693764E0,1.039695640E1
1.571918503E0,9.505487680E-1,5.405984402E0,8.953942299E0,1.050244224E1
1.574305221E0,9.864411354E-1,5.389235020E0,9.071190834E0,1.059733095E1
1.576691992E0,1.017547846E0,5.389235020E0,9.159725189E0,1.067613335E1
1.579078711E0,1.063011408E0,5.396413326E0,9.262915611E0,1.077278403E1
1.581465482E0,1.103689432E0,5.374877930E0,9.382556915E0,1.086921420E1
1.583852200E0,1.144367456E0,5.370092392E0,9.514162064E0,1.098484178E1
1.586238971E0,1.175474167E0,5.358128071E0,9.655338287E0,1.110481127E1
1.588625690E0,1.189831018E0,5.365306377E0,9.796515465E0,1.123271675E1
1.591012461E0,1.225723386E0,5.377270699E0,9.906884193E0,1.133859746E1
1.593399232E0,1.247258782E0,5.394020557E0,1.000498962E1,1.143463728E1
1.595785950E0,1.242473125E0,5.391627789E0,1.008156013E1,1.150005411E1
1.598172721E0,1.247258782E0,5.394020557E0,1.017966557E1,1.158778250E1
1.600559440E0,1.264008522E0,5.386841774E0,1.024427223E1,1.164306211E1
1.602946211E0,1.254437327E0,5.379663467E0,1.030648518E1,1.169350370E1
1.605332930E0,1.244866014E0,5.355735302E0,1.037348461E1,1.174064628E1
1.607719700E0,1.240080357E0,5.341378212E0,1.042164040E1,1.177619247E1
1.610106419E0,1.242473125E0,5.290830135E0,1.046949673E1,1.179605802E1
1.612493190E0,1.240080357E0,5.254937649E0,1.049103165E1,1.179889461E1
1.614879961E0,1.240080357E0,5.219045162E0,1.047906780E1,1.177230197E1
1.617266680E0,1.252044439E0,5.192724228E0,1.048146057E1,1.176405610E1
1.619653450E0,1.252044439E0,5.154438972E0,1.047906780E1,1.174507209E1
1.622040169E0,1.247258782E0,5.130510807E0,1.045992470E1,1.171698853E1
1.624426940E0,1.237687469E0,5.101797104E0,1.043599701E1,1.168204766E1
1.626813659E0,1.213759303E0,5.063511848E0,1.042642593E1,1.165430056E1
1.629200430E0,1.230509043E0,5.051547527E0,1.043121147E1,1.165514726E1
1.631587148E0,1.228116274E0,5.034798145E0,1.042164040E1,1.163907430E1
1.633973919E0,1.206580877E0,5.018048286E0,1.041924667E1,1.162743941E1
1.636360638E0,1.216152072E0,5.008476734E0,1.042642593E1,1.163074472E1
1.638747409E0,1.211366415E0,4.979763031E0,1.045274639E1,1.164153579E1
1.641134180E0,1.213759303E0,4.946263313E0,1.050060272E1,1.167053512E1
1.643520898E0,1.213759303E0,4.936692238E0,1.053170967E1,1.169448804E1
1.645907669E0,1.235294700E0,4.900799751E0,1.058195877E1,1.172696221E1
1.648294388E0,1.278365493E0,4.869693279E0,1.064177990E1,1.177266369E1
1.650681159E0,1.314257860E0,4.843372345E0,1.069920731E1,1.181772255E1
1.653067878E0,1.333400369E0,4.783551693E0,1.076381397E1,1.185411383E1
1.655454648E0,1.359721422E0,4.768895626E0,1.083799076E1,1.191860946E1
1.657841367E0,1.390828133E0,4.764110088E0,1.093131161E1,1.200519560E1
1.660228138E0,1.410269856E0,4.728217602E0,1.100100231E1,1.205682191E1
1.662614857E0,1.429412484E0,4.685146809E0,1.106800079E1,1.210348967E1
1.665001628E0,1.470090389E0,4.658825874E0,1.114217854E1,1.216609908E1
1.667388346E0,1.505982757E0,4.608576298E0,1.123549843E1,1.223696795E1
1.669775117E0,1.541875124E0,4.567898273E0,1.130728340E1,1.229218172E1
1.672161836E0,1.541875124E0,4.500899315E0,1.137906837E1,1.233363980E1
1.674548607E0,1.549053550E0,4.445864677E0,1.141256714E1,1.234552422E1
1.676935378E0,1.568196177E0,4.400400639E0,1.144606686E1,1.236265390E1
1.679322096E0,1.577767372E0,4.352544308E0,1.148195934E1,1.238020122E1
1.681708867E0,1.582553029E0,4.304687977E0,1.150618649E1,1.238657096E1
1.684095586E0,1.572981834E0,4.254438877E0,1.151336479E1,1.237465518E1
1.686482357E0,1.570588946E0,4.189533234E0,1.153011513E1,1.236780066E1
1.688869075E0,1.568196177E0,4.148855209E0,1.154207897E1,1.236494342E1
1.691255846E0,1.561017632E0,4.091427803E0,1.154207897E1,1.234488333E1
1.693642565E0,1.565803289E0,4.041178226E0,1.153490067E1,1.232220738E1
1.696029336E0,1.549053550E0,3.990929127E0,1.150857925E1,1.227902596E1
1.698416055E0,1.529910922E0,3.967000723E0,1.145563793E1,1.221922103E1
1.700802825E0,1.505982757E0,3.928715706E0,1.140060329E1,1.215222394E1
1.703189596E0,1.498804331E0,3.902394533E0,1.132881927E1,1.207548110E1
1.705576315E0,1.470090389E0,3.904787540E0,1.123310566E1,1.198295432E1
1.707963086E0,1.455733418E0,3.885644913E0,1.114696407E1,1.189420885E1
1.710349805E0,1.424626827E0,3.868895054E0,1.105364418E1,1.179749805E1
1.712736575E0,1.405484200E0,3.840181351E0,1.094088268E1,1.168012382E1
1.715123294E0,1.362114310E0,3.840181351E0,1.081645584E1,1.155846292E1
1.717510065E0,1.335793257E0,3.861716747E0,1.068724346E1,1.144178188E1
1.719896784E0,1.285543919E0,3.897608995E0,1.053170967E1,1.130313619E1
1.722283555E0,1.252044439E0,3.943072557E0,1.037827015E1,1.117246292E1
1.724670273E0,1.206580877E0,3.998107433E0,1.023709393E1,1.105616536E1
1.727057044E0,1.168295622E0,4.045963764E0,1.009352398E1,1.093681689E1
1.729443763E0,1.101296663E0,4.077070713E0,9.971489906E0,1.082894136E1
1.731830534E0,1.058225870E0,4.117748737E0,9.849455833E0,1.072788315E1
1.734217305E0,1.022333503E0,4.144069672E0,9.727123260E0,1.062240115E1
1.736604023E0,9.864411354E-1,4.144069672E0,9.602696419E0,1.050514912E1
1.738990794E0,9.481559992E-1,4.167997837E0,9.475876808E0,1.039535699E1
1.741377513E0,9.098708034E-1,4.187140465E0,9.344271660E0,1.027985520E1
1.743764284E0,8.811569214E-1,4.194318771E0,9.219545364E0,1.016704304E1
1.746151003E0,8.691928387E-1,4.216153622E0,9.080761909E0,1.004946190E1
1.748537773E0,8.715856671E-1,4.240081787E0,8.982656479E0,9.971262335E0
1.750924492E0,8.691928387E-1,4.280759811E0,8.882157326E0,9.898137174E0
1.753311263E0,8.715856671E-1,4.316651821E0,8.772088051E0,9.815430367E0
1.755697982E0,8.859425783E-1,4.354937077E0,8.683254242E0,9.754449007E0
1.758084753E0,8.763712645E-1,4.407579422E0,8.568398476E0,9.675341616E0
1.760471471E0,8.907282352E-1,4.450650215E0,8.463114738E0,9.603436635E0
1.762858242E0,8.955138922E-1,4.491328239E0,8.360222816E0,9.532434108E0
1.765245013E0,8.979067206E-1,4.536791801E0,8.257331848E0,9.464261491E0
1.767631732E0,9.218349457E-1,4.572684288E0,8.168797493E0,9.406831228E0
1.770018503E0,9.194421172E-1,4.584648132E0,8.084749222E0,9.339568635E0
1.772405221E0,9.553344250E-1,4.606183529E0,8.017750740E0,9.295908643E0
1.774791992E0,9.768698215E-1,4.630111694E0,7.934001446E0,9.237996963E0
1.777178711E0,1.007976532E0,4.601397991E0,7.869395256E0,9.171491801E0
1.779565482E0,1.036690354E0,4.591826439E0,7.809575081E0,9.118610633E0
1.781952200E0,1.060618639E0,4.582255363E0,7.761718273E0,9.075585197E0
1.784338971E0,1.082154036E0,4.565505505E0,7.692326546E0,9.010371000E0
1.786725690E0,1.120439172E0,4.515256405E0,7.656434059E0,8.959012604E0
1.789112461E0,1.141974568E0,4.498506546E0,7.622934818E0,8.924673793E0
1.791499180E0,1.163509965E0,4.467400074E0,7.615756035E0,8.905681268E0
1.793885950E0,1.189831018E0,4.412364960E0,7.596613884E0,8.865280869E0
1.796272669E0,1.211366415E0,4.381258488E0,7.599006653E0,8.854814320E0
1.798659440E0,1.237687469E0,4.350151539E0,7.610970497E0,8.853392603E0
1.801046211E0,1.273579836E0,4.328616142E0,7.634898663E0,8.868517401E0
1.803432930E0,1.283151150E0,4.295116425E0,7.677969456E0,8.890765824E0
1.805819700E0,1.290329576E0,4.254438877E0,7.699504852E0,8.890870348E0
1.808206419E0,1.290329576E0,4.199104786E0,7.754539967E0,8.912369018E0
1.810593190E0,1.285543919E0,4.148855209E0,7.819146156E0,8.944532930E0
1.812979909E0,1.268794179E0,4.127319813E0,7.867002487E0,8.974092469E0
1.815366680E0,1.249651670E0,4.098606110E0,7.910073280E0,8.996080293E0
1.817753398E0,1.223330617E0,4.084249020E0,7.965108395E0,9.034410860E0
1.820140169E0,1.206580877E0,4.077070713E0,8.020143509E0,9.077502130E0
1.822526940E0,1.180259824E0,4.024428368E0,8.077570915E0,9.101438833E0
1.824913659E0,1.161117196E0,3.998107433E0,8.149654388E0,9.151498393E0
1.827300430E0,1.137188911E0,3.986143351E0,8.204689980E0,9.192359604E0
1.829687148E0,1.084546804E0,3.969393730E0,8.264510155E0,9.232250888E0
1.832073919E0,1.051047325E0,3.955036640E0,8.326724052E0,9.278003489E0
1.834460638E0,9.912267923E-1,3.933501244E0,8.357830048E0,9.290225277E0
1.836847409E0,9.481559992E-1,3.940679789E0,8.403293610E0,9.329699914E0
1.839234128E0,9.218349457E-1,3.952643871E0,8.427222252E0,9.353675648E0
1.841620898E0,8.715856671E-1,3.938287020E0,8.451150894E0,9.364385600E0
1.844007617E0,8.282157183E-1,3.952643871E0,8.439186096E0,9.355703972E0
1.846394388E0,7.923234105E-1,3.943072557E0,8.443971634E0,9.352874132E0
1.848781107E0,7.612167001E-1,3.940679789E0,8.446364403E0,9.351442653E0
1.851167878E0,7.492526174E-1,3.947858334E0,8.439186096E0,9.347022353E0
1.853554596E0,7.181459069E-1,3.959822416E0,8.432007790E0,9.343162338E0
1.855941367E0,6.894320250E-1,3.967000723E0,8.415258408E0,9.328932700E0
1.858328138E0,6.583253145E-1,3.957429647E0,8.400900841E0,9.309660390E0
1.860714857E0,6.583253145E-1,3.947858334E0,8.345866203E0,9.255941893E0
1.863101628E0,6.463612318E-1,3.962215185E0,8.305188179E0,9.224591194E0
1.865488346E0,6.367899179E-1,3.967000723E0,8.252546310E0,9.178622813E0
1.867875117E0,6.391827464E-1,3.959822416E0,8.192725182E0,9.121923813E0
1.870261836E0,6.583253145E-1,3.967000723E0,8.140083313E0,9.079176356E0
1.872648607E0,6.631109715E-1,3.990929127E0,8.087141991E0,9.042626667E0
1.875035325E0,6.511468887E-1,3.993321896E0,8.044071198E0,9.004315269E0
1.877422096E0,6.750751138E-1,4.000500202E0,7.981858253E0,8.953758398E0
1.879808815E0,7.037889361E-1,4.022035599E0,7.929215908E0,8.918775372E0
1.882195586E0,7.085745931E-1,4.041178226E0,7.862216949E0,8.868351300E0
1.884582305E0,6.990033388E-1,4.038785458E0,7.800003529E0,8.811381769E0
1.886969075E0,7.109674215E-1,4.074677944E0,7.733004570E0,8.769711210E0
1.889355846E0,7.157530785E-1,4.108177185E0,7.658827305E0,8.720496427E0
1.891742565E0,7.372884750E-1,4.122534275E0,7.599006653E0,8.676622918E0
1.894129336E0,7.444669604E-1,4.151247978E0,7.524529934E0,8.625870481E0
1.896516055E0,7.683951855E-1,4.172783375E0,7.459923744E0,8.582133448E0
1.898902825E0,7.779664397E-1,4.189533234E0,7.373782158E0,8.516459582E0
1.901289544E0,7.995018363E-1,4.208974838E0,7.311568737E0,8.474297008E0
1.903676315E0,8.066803217E-1,4.235296249E0,7.239784241E0,8.426324425E0
1.906063034E0,8.186444640E-1,4.247260094E0,7.177570820E0,8.380150353E0
1.908449805E0,8.282157183E-1,4.292723656E0,7.115357399E0,8.351151332E0
1.910836523E0,8.138588071E-1,4.309473515E0,7.041179657E0,8.295308258E0
1.913223294E0,8.258228898E-1,4.335794449E0,6.983452797E0,8.261338264E0
1.915610013E0,8.428717852E-1,4.357329845E0,6.918846607E0,8.219926679E0
1.917996784E0,8.572286963E-1,4.388436794E0,6.854240417E0,8.183754043E0
1.920383503E0,8.644071817E-1,4.400400639E0,6.799205780E0,8.144932461E0
1.922770273E0,8.548358679E-1,4.412364960E0,6.763313293E0,8.120475085E0
1.925157044E0,8.739784956E-1,4.429114819E0,6.736992359E0,8.109744912E0
1.927543763E0,8.907282352E-1,4.450650215E0,6.708278179E0,8.099548151E0
1.929930534E0,9.194421172E-1,4.474578381E0,6.667600155E0,8.082333655E0
1.932317253E0,9.337990284E-1,4.503292084E0,6.636493683E0,8.074321558E0
1.934704023E0,9.481559992E-1,4.520041943E0,6.629314899E0,8.079455118E0
1.937090742E0,9.625129104E-1,4.536791801E0,6.598208427E0,8.065064501E0
1.939477513E0,9.768698215E-1,4.560719967E0,6.569494724E0,8.056841949E0
1.941864232E0,9.529415965E-1,4.599005222E0,6.538387775E0,8.050432375E0
1.944251003E0,9.601200819E-1,4.646861553E0,6.514459610E0,8.059363305E0
1.946637721E0,9.433703423E-1,4.673182487E0,6.500102520E0,8.061012029E0
1.949024492E0,9.529415965E-1,4.689932346E0,6.473781586E0,8.050677681E0
1.951411211E0,9.409775138E-1,4.723432064E0,6.449554443E0,8.049410020E0
1.953797982E0,9.194421172E-1,4.752145767E0,6.444768906E0,8.059981976E0
1.956184700E0,9.074779749E-1,4.788337231E0,6.439982891E0,8.076203895E0
1.958571471E0,8.931210637E-1,4.829015255E0,6.423233509E0,8.085479719E0
1.960958242E0,8.715856671E-1,4.857728958E0,6.432804585E0,8.107907685E0
1.963344961E0,8.377870321E-1,4.864907742E0,6.454638958E0,8.125981696E0
1.965731732E0,8.234301209E-1,4.884049892E0,6.432804585E0,8.118679409E0
1.968118450E0,8.114659786E-1,4.891228676E0,6.435197353E0,8.123691277E0
1.970505221E0,7.923234105E-1,4.915156841E0,6.449554443E0,8.147594472E0
1.972891940E0,7.827520967E-1,4.900799751E0,6.449554443E0,8.138015210E0
1.975278711E0,7.803592682E-1,4.905585289E0,6.461817741E0,8.150387484E0
1.977665430E0,7.755736113E-1,4.917549610E0,6.451947212E0,8.149320918E0
1.980052200E0,7.707880139E-1,4.929513931E0,6.480959892E0,8.179062470E0
1.982438919E0,7.516453862E-1,4.929513931E0,6.466603279E0,8.165906952E0
1.984825690E0,7.588238716E-1,4.936692238E0,6.480959892E0,8.182272609E0
1.987212409E0,7.420741320E-1,4.953442097E0,6.495316982E0,8.202219536E0
1.989599180E0,7.277171612E-1,4.958227634E0,6.519245148E0,8.222782427E0
1.991985898E0,6.942176819E-1,4.986941338E0,6.550352097E0,8.261878399E0
1.994372669E0,6.655037999E-1,5.003691196E0,6.545566559E0,8.265849168E0
1.996759388E0,6.391827464E-1,5.013262749E0,6.531209469E0,8.258211374E0
1.999146159E0,5.985047817E-1,5.041976452E0,6.526423931E0,8.268853841E0
2.001532930E0,5.841478109E-1,5.058726311E0,6.524031162E0,8.276165970E0
2.003919648E0,5.650052428E-1,5.101797104E0,6.547959328E0,8.320056248E0
2.006306419E0,5.219344497E-1,5.125725269E0,6.547959328E0,8.331941338E0
2.008693138E0,4.908277392E-1,5.156831741E0,6.571887493E0,8.368006376E0
2.011079909E0,4.429712892E-1,5.183153152E0,6.598208427E0,8.402241047E0
2.013466628E0,3.903291821E-1,5.202295303E0,6.622136593E0,8.430238807E0
2.015853398E0,3.592225015E-1,5.233402252E0,6.650850773E0,8.470617211E0
2.018240117E0,3.137588799E-1,5.240580559E0,6.689135551E0,8.503332503E0
2.020626888E0,2.874378264E-1,5.247759342E0,6.734599113E0,8.542623943E0
2.023013607E0,2.632105052E-1,5.250152111E0,6.763313293E0,8.565966593E0
2.025400378E0,2.416750938E-1,5.295615673E0,6.808776855E0,8.629101603E0
2.027787148E0,2.009970993E-1,5.305186749E0,6.859025955E0,8.673617661E0
2.030173867E0,1.890329868E-1,5.317151070E0,6.894918442E0,8.709060184E0
2.032560586E0,1.938186288E-1,5.334199905E0,6.940382004E0,8.755578602E0
2.034947357E0,2.057827413E-1,5.329114914E0,6.995417118E0,8.796457978E0
2.037334128E0,2.057827413E-1,5.334199905E0,7.041179657E0,8.835963226E0
2.039720846E0,2.033899277E-1,5.329114914E0,7.084250450E0,8.867211381E0
2.042107617E0,2.033899277E-1,5.326722145E0,7.158428192E0,8.925157167E0
2.044494336E0,1.986042857E-1,5.348556995E0,7.220641613E0,8.988001496E0
2.046881107E0,1.962114573E-1,5.365306377E0,7.301997185E0,9.063342339E0
2.049267825E0,2.033899277E-1,5.370092392E0,7.366603374E0,9.118448609E0
2.051654596E0,1.914258152E-1,5.398806095E0,7.438388348E0,9.193115484E0
2.054041315E0,1.770688742E-1,5.434698582E0,7.507780075E0,9.270062768E0
2.056428086E0,1.483550072E-1,5.441876888E0,7.587042332E0,9.338053578E0
2.058814805E0,1.292124242E-1,5.468197823E0,7.661220074E0,9.413404076E0
2.061201575E0,1.220339537E-1,5.492125988E0,7.735397339E0,9.487608347E0
2.063588294E0,1.196411327E-1,5.520840168E0,7.804789066E0,9.560790895E0
2.065975065E0,1.076770201E-1,5.523232937E0,7.859824181E0,9.607004349E0
2.068361836E0,9.332008660E-2,5.551946640E0,7.929215908E0,9.680149020E0
2.070748555E0,6.221338734E-2,5.585446358E0,7.996214867E0,9.754000908E0
2.073135325E0,4.307080805E-2,5.614160061E0,8.044071198E0,9.809573371E0
2.075522044E0,2.153540403E-2,5.652445316E0,8.108677864E0,9.884394697E0
2.077908815E0,-1.196411345E-2,5.685945034E0,8.166404724E0,9.950893437E0
2.080295534E0,-2.632104978E-2,5.712265968E0,8.233403206E0,1.002095822E1
2.082682305E0,-6.939185411E-2,5.745765209E0,8.290831566E0,1.008744374E1
2.085069023E0,-1.076770201E-1,5.774479389E0,8.365009308E0,1.016511620E1
2.087455794E0,-1.483550072E-1,5.781657696E0,8.403293610E0,1.020122142E1
2.089842513E0,-1.674975902E-1,5.824728489E0,8.458329201E0,1.027126332E1
2.092229284E0,-1.962114573E-1,5.874977589E0,8.494221687E0,1.032984330E1
2.094616003E0,-2.368894368E-1,5.923133373E0,8.508578300E0,1.036993396E1
2.097002773E0,-2.970091105E-1,5.954239845E0,8.530113220E0,1.040692164E1
2.099389492E0,-3.281157911E-1,5.978168488E0,8.568398476E0,1.045292356E1
2.101776263E0,-3.664009571E-1,6.002096653E0,8.592327118E0,1.048749251E1
2.104163034E0,-4.022932947E-1,6.049952984E0,8.633005142E0,1.054952837E1
2.106549753E0,-4.334000051E-1,6.112166405E0,8.688039780E0,1.063148385E1
2.108936523E0,-4.812564552E-1,6.128916264E0,8.748159409E0,1.069231104E1
2.111323242E0,-5.099703074E-1,6.183950901E0,8.796015739E0,1.076434909E1
2.113710013E0,-5.458626747E-1,6.231807709E0,8.843872070E0,1.083270357E1
2.116096732E0,-5.721837282E-1,6.270092487E0,8.889336586E0,1.089319783E1
2.118483503E0,-5.889334679E-1,6.294020653E0,8.918049812E0,1.093129229E1
2.120870221E0,-6.080760360E-1,6.303592205E0,8.939585686E0,1.095541982E1
2.123256992E0,-6.080760360E-1,6.334698677E0,8.968298912E0,1.099675176E1
2.125643711E0,-6.128616929E-1,6.327520370E0,8.985049248E0,1.100655366E1
2.128030482E0,-6.272186637E-1,6.363412857E0,9.004191399E0,1.104363569E1
2.130417200E0,-6.176473498E-1,6.363412857E0,9.008976936E0,1.104699855E1
2.132803971E0,-6.296114326E-1,6.346662998E0,9.011369705E0,1.103998758E1
2.135190690E0,-6.080760360E-1,6.356234074E0,8.994620323E0,1.103062386E1
2.137577461E0,-5.865406394E-1,6.349055767E0,8.989834785E0,1.102141863E1
2.139964180E0,-5.602195859E-1,6.341877460E0,8.975478172E0,1.100420211E1
2.142350950E0,-5.482555032E-1,6.339484692E0,8.939585686E0,1.097295960E1
2.144737669E0,-5.291129351E-1,6.329913139E0,8.920442581E0,1.095089296E1
2.147124440E0,-4.836492836E-1,6.332305908E0,8.898907661E0,1.093263794E1
2.149511211E0,-4.716851711E-1,6.315556049E0,8.877371788E0,1.090488262E1
2.151897930E0,-4.692923427E-1,6.332305908E0,8.855836868E0,1.089698032E1
2.154284700E0,-4.860421121E-1,6.353841305E0,8.841479301E0,1.089859131E1
2.156671419E0,-4.836492836E-1,6.368198395E0,8.822337151E0,1.089134979E1
2.159058190E0,-4.740779996E-1,6.377769470E0,8.810373306E0,1.088684395E1
2.161444909E0,-4.740779996E-1,6.420840263E0,8.800801277E0,1.090440474E1
2.163831680E0,-4.668995142E-1,6.451947212E0,8.776873589E0,1.090317055E1
2.166218398E0,-4.573282301E-1,6.490531445E0,8.776873589E0,1.092564220E1
2.168605169E0,-4.477569461E-1,6.543173313E0,8.779266357E0,1.095851820E1
2.170991888E0,-4.238287210E-1,6.555137634E0,8.796015739E0,1.097813067E1
2.173378659E0,-4.118646085E-1,6.547959328E0,8.819944382E0,1.099258035E1
2.175765378E0,-3.855435550E-1,6.555137634E0,8.836693764E0,1.100934285E1
2.178152148E0,-3.664009571E-1,6.533602238E0,8.855836868E0,1.101126943E1
2.180538867E0,-3.376871049E-1,6.514459610E0,8.867800713E0,1.100863779E1
2.182925638E0,-2.946162820E-1,6.488138676E0,8.870193481E0,1.099377436E1
2.185312409E0,-2.656033039E-1,6.454638958E0,8.894122124E0,1.099264834E1
2.187699128E0,-2.440679073E-1,6.432804585E0,8.913264275E0,1.099485443E1
2.190085846E0,-2.129612118E-1,6.406483650E0,8.930013657E0,1.099243054E1
2.192472617E0,-1.770688742E-1,6.416054726E0,8.953942299E0,1.101681416E1
2.194859388E0,-1.746760458E-1,6.428019047E0,8.977870941E0,1.104319280E1
2.197246107E0,-1.627119333E-1,6.432804585E0,8.985049248E0,1.105163155E1
2.199632878E0,-1.603191197E-1,6.444768906E0,9.028120041E0,1.109358824E1
2.202019596E0,-1.555334777E-1,6.492924213E0,9.099904060E0,1.117991545E1
2.204406367E0,-1.770688742E-1,6.524031162E0,9.162117958E0,1.124894402E1
2.206793086E0,-2.225325108E-1,6.543173313E0,9.253045082E0,1.133496718E1
2.209179857E0,-2.297109663E-1,6.593422890E0,9.332307816E0,1.142882154E1
2.211566575E0,-2.703889608E-1,6.638886452E0,9.435198784E0,1.153996965E1
2.213953346E0,-3.041875660E-1,6.672386169E0,9.538089752E0,1.164424422E1
2.216340065E0,-3.400799036E-1,6.710670948E0,9.657731056E0,1.176522537E1
2.218726836E0,-3.687937856E-1,6.713063717E0,9.758230209E0,1.185007553E1
2.221113555E0,-4.022932947E-1,6.734599113E0,9.880562782E0,1.196420436E1
2.223500325E0,-4.453641176E-1,6.736992359E0,1.002173901E1,1.208390119E1
2.225887044E0,-4.956133962E-1,6.720242500E0,1.017009449E1,1.219992270E1
2.228273815E0,-5.243272781E-1,6.648457527E0,1.032084274E1,1.228807151E1
2.230660534E0,-5.482555032E-1,6.598208427E0,1.045035362E1,1.237120970E1
2.233047305E0,-5.769693851E-1,6.547959328E0,1.061067295E1,1.248178855E1
2.235434075E0,-5.626124144E-1,6.480959892E0,1.076142120E1,1.257487814E1
2.237820794E0,-5.554339290E-1,6.394519329E0,1.088584709E1,1.263724856E1
2.240207513E0,-5.338985324E-1,6.325127602E0,1.102971554E1,1.272583638E1
2.242594284E0,-5.099703074E-1,6.248557091E0,1.116849995E1,1.280780725E1
2.244981055E0,-4.764707983E-1,6.126523495E0,1.130489063E1,1.286708463E1
2.247367773E0,-4.334000051E-1,6.002096653E0,1.143171024E1,1.291886214E1
2.249754544E0,-3.807578981E-1,5.894419670E0,1.158036423E1,1.299976905E1
2.252141263E0,-3.161516786E-1,5.776872158E0,1.171914768E1,1.306945394E1
2.254528034E0,-2.703889608E-1,5.664409637E0,1.187228870E1,1.315712301E1
2.256914753E0,-1.986042857E-1,5.518447399E0,1.201346493E1,1.322180188E1
2.259301523E0,-1.531406492E-1,5.405984402E0,1.215972614E1,1.330815762E1
2.261688242E0,-9.810572863E-2,5.266901970E0,1.232004547E1,1.339900748E1
2.264075013E0,-5.024927482E-2,5.104189873E0,1.244207954E1,1.344844313E1
2.266461732E0,-1.674975827E-2,4.958227634E0,1.255214977E1,1.349595368E1
2.268848503E0,4.546362907E-2,4.831408024E0,1.267687511E1,1.356641932E1
2.271235221E0,8.135596663E-2,4.711467743E0,1.273669624E1,1.358042629E1
2.273621992E0,1.028913707E-1,4.601397991E0,1.279412365E1,1.359680294E1
2.276008711E0,1.148554832E-1,4.481756687E0,1.282523060E1,1.358623843E1
2.278395482E0,9.571290761E-2,4.378865242E0,1.283240891E1,1.355928981E1
2.280782200E0,7.657032460E-2,4.285545349E0,1.285155106E1,1.354747676E1
2.283168971E0,5.982056633E-2,4.194318771E0,1.284676552E1,1.351426183E1
2.285555742E0,3.349951655E-2,4.081856251E0,1.281805134E1,1.345232741E1
2.287942461E0,-1.196411345E-2,4.007678986E0,1.271755314E1,1.333408384E1
2.290329232E0,-8.853443712E-2,3.986143351E0,1.256172085E1,1.317930225E1
2.292715950E0,-1.842473447E-1,3.945465326E0,1.234397411E1,1.296049153E1
2.295102721E0,-2.703889608E-1,3.919144392E0,1.212862015E1,1.274896975E1
2.297489440E0,-3.472583890E-1,3.890430450E0,1.187946701E1,1.250510991E1
2.299876211E0,-4.573282301E-1,3.859323740E0,1.163779163E1,1.226954453E1
2.302262930E0,-5.721837282E-1,3.806681633E0,1.140060329E1,1.203295370E1
2.304649700E0,-6.415755749E-1,3.777967930E0,1.113739300E1,1.177820800E1
2.307036419E0,-7.181459069E-1,3.744468451E0,1.087149048E1,1.152068065E1
2.309423190E0,-8.210372925E-1,3.689433336E0,1.061067295E1,1.126376496E1
2.311809909E0,-8.955138922E-1,3.648755312E0,1.036869907E1,1.102838524E1
2.314196680E0,-9.840483069E-1,3.634099483E0,1.011984539E1,1.079751364E1
2.316583398E0,-1.063011408E0,3.619742393E0,9.847063065E0,1.054500731E1
2.318970169E0,-1.141974568E0,3.622135162E0,9.593125343E0,1.031755896E1
2.321356888E0,-1.232901812E0,3.631706476E0,9.356235504E0,1.011179913E1
2.323743659E0,-1.302293777E0,3.663112402E0,9.107083321E0,9.902188049E0
2.326130378E0,-1.388435364E0,3.713361740E0,8.882157326E0,9.726742874E0
2.328517148E0,-1.467697620E0,3.775574923E0,8.685647011E0,9.583817939E0
2.330903867E0,-1.532303810E0,3.835395575E0,8.470293045E0,9.423591590E0
2.333290638E0,-1.546660781E0,3.883252144E0,8.288438797E0,9.282781074E0
2.335677357E0,-1.551446438E0,3.945465326E0,8.101499557E0,9.143739813E0
2.338064128E0,-1.568196177E0,4.033999920E0,7.931608677E0,9.035641140E0
2.340450898E0,-1.565803289E0,4.127319813E0,7.754539967E0,8.922970294E0
2.342837617E0,-1.570588946E0,4.223331928E0,7.584649563E0,8.822142098E0
2.345224388E0,-1.558624864E0,4.309473515E0,7.424031258E0,8.724512224E0
2.347611107E0,-1.537089467E0,4.414757729E0,7.263712406E0,8.637953910E0
2.349997878E0,-1.496411443E0,4.510470867E0,7.120142937E0,8.560375581E0
2.352384596E0,-1.453340650E0,4.610969067E0,7.000202656E0,8.507412768E0
2.354771367E0,-1.376471281E0,4.716253281E0,6.899703979E0,8.470161344E0
2.357158086E0,-1.309472203E0,4.814658165E0,6.815955162E0,8.447064311E0
2.359544857E0,-1.218544960E0,4.898406982E0,6.777669907E0,8.450801864E0
2.361931575E0,-1.151545882E0,4.974977493E0,6.760920525E0,8.472691740E0
2.364318346E0,-1.067797065E0,5.039583683E0,6.760920525E0,8.499861211E0
2.366705065E0,-9.553344250E-1,5.085047245E0,6.799205780E0,8.543978499E0
2.369091836E0,-8.644071817E-1,5.113760948E0,6.837490559E0,8.581901185E0
2.371478555E0,-7.564310431E-1,5.144867897E0,6.890132904E0,8.632252605E0
2.373865325E0,-6.726822853E-1,5.178367138E0,6.957131863E0,8.698831613E0
2.376252044E0,-5.841478109E-1,5.171188831E0,7.034001350E0,8.749834147E0
2.378638815E0,-5.147559643E-1,5.154438972E0,7.124928474E0,8.808962515E0
2.381025586E0,-4.286143482E-1,5.123332500E0,7.208677292E0,8.854223538E0
2.383412305E0,-3.400799036E-1,5.065904617E0,7.309175968E0,8.899612198E0
2.385799023E0,-2.775674164E-1,4.972584724E0,7.419245720E0,8.935818349E0
2.388185794E0,-1.914258152E-1,4.862514496E0,7.517351627E0,8.954957652E0
2.390572565E0,-1.076770201E-1,4.759324074E0,7.649255753E0,9.009654463E0
2.392959284E0,-3.828516230E-2,4.646861553E0,7.728219032E0,9.017768985E0
2.395346055E0,3.349951655E-2,4.505684853E0,7.823931694E0,9.028633638E0
2.397732773E0,9.092725813E-2,4.374079704E0,7.907680511E0,9.037270168E0
2.400119544E0,1.531406492E-1,4.297509670E0,8.029714584E0,9.108696818E0
2.402506263E0,1.674975902E-1,4.153641224E0,8.099106789E0,9.103643316E0
2.404893034E0,1.890329868E-1,4.062713623E0,8.173583031E0,9.129558314E0
2.407279753E0,2.105683982E-1,3.974179268E0,8.264510155E0,9.172816798E0
2.409666523E0,2.225325108E-1,3.916751623E0,8.357830048E0,9.232756203E0
2.412053242E0,2.129612118E-1,3.856930971E0,8.434400558E0,9.276873491E0
2.414440013E0,2.009970993E-1,3.794717550E0,8.508578300E0,9.318593554E0
2.416826732E0,1.914258152E-1,3.746861219E0,8.554041862E0,9.340623375E0
2.419213503E0,1.651047617E-1,3.715754509E0,8.570791245E0,9.343048416E0
2.421600221E0,1.387837082E-1,3.672683716E0,8.604290962E0,9.356371602E0
2.423986992E0,1.100698411E-1,3.643670797E0,8.623434067E0,9.362268280E0
2.426373711E0,1.028913707E-1,3.636492252E0,8.637790680E0,9.372624519E0
2.428760482E0,8.135596663E-2,3.624528170E0,8.635397911E0,9.365571009E0
2.431147200E0,2.632104978E-2,3.617349625E0,8.628219604E0,9.355858306E0
2.433533971E0,1.435693540E-2,3.612564087E0,8.635397911E0,9.360604814E0
2.435920690E0,-1.435693540E-2,3.595814228E0,8.604290962E0,9.325444174E0
2.438307461E0,-4.785645381E-2,3.602992773E0,8.597112656E0,9.321705486E0
2.440694232E0,-7.178468257E-2,3.619742393E0,8.575576782E0,9.308501769E0
2.443080950E0,-9.332008660E-2,3.619742393E0,8.518149376E0,9.255815060E0
2.445467721E0,-1.220339537E-1,3.622135162E0,8.489435196E0,9.230669822E0
2.447854440E0,-1.507478207E-1,3.651148319E0,8.463114738E0,9.218346925E0
2.450241211E0,-1.722832322E-1,3.672683716E0,8.432007790E0,9.198752228E0
2.452627930E0,-1.890329868E-1,3.691826344E0,8.386544228E0,9.165120801E0
2.455014700E0,-2.057827413E-1,3.715754509E0,8.365009308E0,9.155466063E0
2.457401419E0,-1.890329868E-1,3.737289906E0,8.305188179E0,9.109293057E0
2.459788190E0,-1.698904037E-1,3.761218071E0,8.262117386E0,9.079548878E0
2.462174909E0,-1.674975902E-1,3.789932013E0,8.216653824E0,9.050140339E0
2.464561680E0,-1.603191197E-1,3.797110319E0,8.149654388E0,8.992253091E0
2.466948398E0,-1.292124242E-1,3.806681633E0,8.096714020E0,8.947865602E0
2.469335169E0,-1.268195957E-1,3.818645954E0,8.063214302E0,8.922643387E0
2.471721888E0,-1.076770201E-1,3.837788343E0,8.015357971E0,8.887416785E0
2.474108659E0,-7.657032460E-2,3.840181351E0,7.948358536E0,8.827755051E0
2.476495378E0,-7.178468257E-2,3.842574120E0,7.922037601E0,8.805067215E0
2.478882148E0,-4.307080805E-2,3.864109516E0,7.883752346E0,8.779905951E0
2.481268867E0,-2.392822690E-2,3.856930971E0,7.845467091E0,8.742301925E0
2.483655638E0,0.000000000E0,3.878466368E0,7.807182312E0,8.717487999E0
2.486042357E0,9.571290575E-3,3.890430450E0,7.778468132E0,8.697132124E0
2.488429128E0,4.067798331E-2,3.916751623E0,7.747361660E0,8.681256284E0
2.490815846E0,6.939185411E-2,3.892823458E0,7.713861942E0,8.640749723E0
2.493202617E0,1.148554832E-1,3.897608995E0,7.694719315E0,8.626311668E0
2.495589336E0,1.555334777E-1,3.919144392E0,7.649255753E0,8.596219925E0
2.497976107E0,1.722832322E-1,3.914358854E0,7.594220638E0,8.545412445E0
2.500362825E0,2.105683982E-1,3.926322937E0,7.543672562E0,8.506899939E0
2.502749596E0,2.440679073E-1,3.923929930E0,7.510172844E0,8.476997781E0
2.505136367E0,2.560320199E-1,3.952643871E0,7.464709282E0,8.450492922E0
2.507523086E0,2.775674164E-1,3.950251102E0,7.400103092E0,8.393035995E0
2.509909857E0,2.994019389E-1,3.964607954E0,7.376174927E0,8.379481744E0
2.512296575E0,3.137588799E-1,3.983750582E0,7.325925827E0,8.344932747E0
2.514683346E0,3.305086195E-1,4.000500202E0,7.278069019E0,8.311650045E0
2.517070065E0,3.400799036E-1,4.005286217E0,7.230212688E0,8.272481341E0
2.519456836E0,3.352942765E-1,4.019642830E0,7.208677292E0,8.260446660E0
2.521843555E0,3.233301640E-1,4.026821613E0,7.184749126E0,8.242599997E0
2.524230325E0,3.161516786E-1,4.043570995E0,7.134500027E0,8.206796507E0
2.526617044E0,3.041875660E-1,4.062713623E0,7.132106781E0,8.213715310E0
2.529003815E0,3.424727321E-1,4.067499161E0,7.093822002E0,8.184384375E0
2.531390534E0,3.137588799E-1,4.093820572E0,7.062715054E0,8.169440338E0
2.533777305E0,2.826521695E-1,4.124927044E0,7.038786888E0,8.163298122E0
2.536164023E0,2.727817893E-1,4.172783375E0,7.000202656E0,8.154101313E0
2.538550794E0,2.464607358E-1,4.194318771E0,6.988238335E0,8.154049784E0
2.540937513E0,2.201396823E-1,4.218546391E0,6.969096184E0,8.149410822E0
2.543324284E0,1.962114573E-1,4.249652863E0,6.964310169E0,8.160861751E0
2.545711003E0,1.698904037E-1,4.280759811E0,6.940382004E0,8.156143063E0
2.548097773E0,1.531406492E-1,4.299902439E0,6.911668301E0,8.141484615E0
2.550484492E0,1.292124242E-1,4.316651821E0,6.926024914E0,8.162107565E0
2.552871263E0,1.004985496E-1,4.345366001E0,6.928418159E0,8.178953713E0
2.555258034E0,6.939185411E-2,4.369294167E0,6.930810928E0,8.193392879E0
2.557644753E0,5.024927482E-2,4.369294167E0,6.959524632E0,8.217556790E0
2.560031471E0,2.392822690E-2,4.388436794E0,6.976274490E0,8.241805374E0
2.562418242E0,4.785645287E-3,4.424329281E0,6.971488953E0,8.256898371E0
2.564804961E0,-4.785645287E-3,4.455435753E0,6.983452797E0,8.283691425E0
2.567191732E0,-1.196411345E-2,4.474578381E0,7.017251492E0,8.322488409E0
2.569578503E0,1.196411345E-2,4.503292084E0,7.041179657E0,8.358109457E0
2.571965221E0,4.785645287E-3,4.539184570E0,7.053143978E0,8.387553841E0
2.574351992E0,2.871387079E-2,4.584648132E0,7.062715054E0,8.420318694E0
2.576738711E0,5.503492057E-2,4.610969067E0,7.091429234E0,8.458867132E0
2.579125482E0,5.982056633E-2,4.637290478E0,7.077072144E0,8.461264185E0
2.581512200E0,8.853443712E-2,4.666004181E0,7.108178616E0,8.503272111E0
2.583898971E0,1.172483116E-1,4.689932346E0,7.127321243E0,8.532755750E0
2.586285690E0,1.531406492E-1,4.737788677E0,7.115357399E0,8.549760495E0
2.588672461E0,1.842473447E-1,4.773980141E0,7.136892796E0,8.588368427E0
2.591059180E0,2.225325108E-1,4.790730000E0,7.163213730E0,8.620455068E0
2.593445950E0,2.608176768E-1,4.805087090E0,7.184749126E0,8.647398904E0
2.595832669E0,2.898306549E-1,4.809872627E0,7.201498985E0,8.664898391E0
2.598219440E0,3.520440459E-1,4.836193562E0,7.234998226E0,8.709644224E0
2.600606159E0,4.118646085E-1,4.845765114E0,7.244569778E0,8.725529398E0
2.602992930E0,4.716851711E-1,4.848157883E0,7.261319637E0,8.743791205E0
2.605379648E0,5.386841893E-1,4.852943420E0,7.301997185E0,8.784099463E0
2.607766419E0,5.889334679E-1,4.869693279E0,7.357032299E0,8.842323197E0
2.610153138E0,6.607181430E-1,4.862514496E0,7.388139248E0,8.869340293E0
2.612539909E0,7.061817646E-1,4.888835907E0,7.419245720E0,8.913170943E0
2.614926628E0,7.636095285E-1,4.886443138E0,7.471887589E0,8.960442522E0
2.617313398E0,8.186444640E-1,4.905585289E0,7.517351627E0,9.013629750E0
2.619700117E0,8.620143533E-1,4.898406982E0,7.550850868E0,9.041725972E0
2.622086888E0,9.242277741E-1,4.896014214E0,7.615756035E0,9.100818213E0
2.624473659E0,9.601200819E-1,4.893621445E0,7.649255753E0,9.131290981E0
2.626860378E0,1.007976532E0,4.927121162E0,7.697112083E0,9.194458878E0
2.629247096E0,1.010369420E0,4.915156841E0,7.744968891E0,9.228442787E0
2.631633867E0,1.031904817E0,4.924727917E0,7.804789066E0,9.286145862E0
2.634020586E0,1.055832982E0,4.958227634E0,7.835896015E0,9.332741876E0
2.636407357E0,1.074975610E0,4.951049328E0,7.893323898E0,9.379393593E0
2.638794128E0,1.065404296E0,4.982155800E0,7.948358536E0,9.441046877E0
2.641180846E0,1.082154036E0,5.013262749E0,7.996214867E0,9.499648043E0
2.643567617E0,1.082154036E0,5.025226593E0,8.044071198E0,9.546257963E0
2.645954336E0,1.053440213E0,5.058726311E0,8.096714020E0,9.605062524E0
2.648341107E0,1.043868899E0,5.089832783E0,8.164011955E0,9.677145821E0
2.650727825E0,9.960124493E-1,5.140082359E0,8.221439362E0,9.747027887E0
2.653114596E0,9.696913958E-1,5.178367138E0,8.254939079E0,9.792844675E0
2.655501315E0,9.553344250E-1,5.199902534E0,8.309973717E0,9.849229077E0
2.657888086E0,9.170492887E-1,5.214259624E0,8.369794846E0,9.903683587E0
2.660274805E0,8.811569214E-1,5.252544880E0,8.429615021E0,9.971162151E0
2.662661575E0,8.524430394E-1,5.290830135E0,8.479864120E0,1.003133282E1
2.665048294E0,8.186444640E-1,5.326722145E0,8.532505989E0,1.009196740E1
2.667435065E0,7.995018363E-1,5.321936607E0,8.563612938E0,1.011423151E1
2.669821784E0,7.660023570E-1,5.334199905E0,8.618648529E0,1.016472089E1
2.672208555E0,7.109674215E-1,5.346164227E0,8.673683167E0,1.021370287E1
2.674595273E0,6.678966284E-1,5.360520840E0,8.685647011E0,1.022847660E1
2.676982044E0,6.559324861E-1,5.362913609E0,8.709874153E0,1.024953646E1
2.679368763E0,6.176473498E-1,5.353342533E0,8.740981102E0,1.026861798E1
2.681755534E0,5.889334679E-1,5.358128071E0,8.786444664E0,1.030815157E1
2.684142253E0,5.985047817E-1,5.341378212E0,8.817551613E0,1.032655536E1
2.686529023E0,5.961119533E-1,5.358128071E0,8.863015175E0,1.037390591E1
2.688915742E0,6.056832075E-1,5.350949764E0,8.886942863E0,1.039121114E1
2.691302513E0,6.200401783E-1,5.355735302E0,8.896514893E0,1.040270771E1
2.693689232E0,6.104688644E-1,5.370092392E0,8.941978455E0,1.044842300E1
2.696076003E0,6.272186637E-1,5.346164227E0,8.951549530E0,1.044533935E1
2.698462721E0,6.774678826E-1,5.365306377E0,8.961120605E0,1.046647781E1
2.700849492E0,7.253243923E-1,5.343770981E0,8.970691681E0,1.046686644E1
2.703236211E0,7.875377536E-1,5.321936607E0,9.018548965E0,1.050130708E1
2.705622982E0,8.524430394E-1,5.317151070E0,9.042476654E0,1.052450183E1
2.708009700E0,9.290133715E-1,5.305186749E0,9.056833267E0,1.053728149E1
2.710396471E0,1.012762189E0,5.276473045E0,9.090332985E0,1.055940381E1
2.712783190E0,1.106082320E0,5.278865814E0,9.138189316E0,1.061114256E1
2.715169961E0,1.187438250E0,5.257330418E0,9.157332420E0,1.062573620E1
2.717556680E0,1.259222865E0,5.278865814E0,9.195617676E0,1.067761448E1
2.719943450E0,1.304686546E0,5.300401211E0,9.245866776E0,1.073696942E1
2.722330221E0,1.381256819E0,5.319543839E0,9.277272224E0,1.078300501E1
2.724716940E0,1.446162224E0,5.367699623E0,9.315557480E0,1.084818859E1
2.727103711E0,1.467697620E0,5.413163185E0,9.372985840E0,1.092288128E1
2.729490430E0,1.532303810E0,5.465805054E0,9.404091835E0,1.098453108E1
2.731877200E0,1.575374603E0,5.537590027E0,9.442377090E0,1.105916785E1
2.734263919E0,1.577767372E0,5.590231895E0,9.495018959E0,1.113083229E1
2.736650690E0,1.596910000E0,5.638088226E0,9.533304214E0,1.119026584E1
2.739037409E0,1.568196177E0,5.683551788E0,9.566803932E0,1.123769272E1
2.741424180E0,1.568196177E0,5.721837044E0,9.643374443E0,1.132224929E1
2.743810898E0,1.549053550E0,5.757729530E0,9.734301567E0,1.141523733E1
2.746197669E0,1.549053550E0,5.774479389E0,9.779765129E0,1.146245982E1
2.748584388E0,1.496411443E0,5.774479389E0,9.851848602E0,1.151706474E1
2.750971159E0,1.472483277E0,5.760122299E0,9.918848038E0,1.156420176E1
2.753357878E0,1.443769336E0,5.726622581E0,9.969097137E0,1.158712966E1
2.755744648E0,1.390828133E0,5.714658737E0,9.985847473E0,1.158917068E1
2.758131367E0,1.347757339E0,5.683551788E0,1.003609657E1,1.161216798E1
2.760518138E0,1.326221943E0,5.666802406E0,1.007198906E1,1.163256110E1
2.762904857E0,1.287936807E0,5.638088226E0,1.008156013E1,1.162259329E1
2.765291628E0,1.247258782E0,5.618945599E0,1.007677460E1,1.160472276E1
2.767678346E0,1.220937729E0,5.614160061E0,1.008873844E1,1.161000110E1
2.770065117E0,1.185045362E0,5.592624664E0,1.008395290E1,1.159171641E1
2.772451836E0,1.144367456E0,5.575874805E0,1.010309505E1,1.159622725E1
2.774838607E0,1.110867858E0,5.549553871E0,1.013659477E1,1.160957058E1
2.777225325E0,1.094118118E0,5.542375565E0,1.015334511E1,1.161918406E1
2.779612096E0,1.065404296E0,5.508875847E0,1.016530895E1,1.161104240E1
2.781998815E0,1.034297585E0,5.520840168E0,1.022034359E1,1.166211262E1
2.784385586E0,1.029511929E0,5.518447399E0,1.021555805E1,1.165636233E1
2.786772305E0,9.936196208E-1,5.525625706E0,1.024427223E1,1.168182062E1
2.789159075E0,9.816554785E-1,5.525625706E0,1.027298546E1,1.170599919E1
2.791545794E0,9.720842242E-1,5.508875847E0,1.030648518E1,1.172673431E1
2.793932565E0,9.553344250E-1,5.532804012E0,1.034477043E1,1.177025316E1
2.796319284E0,9.409775138E-1,5.532804012E0,1.037827015E1,1.179855289E1
2.798706055E0,9.242277741E-1,5.530411243E0,1.043838978E1,1.184903484E1
2.801092773E0,9.122636318E-1,5.516054630E0,1.049103165E1,1.188784373E1
2.803479544E0,9.122636318E-1,5.494519234E0,1.056281662E1,1.194131741E1
2.805866263E0,9.218349457E-1,5.472983360E0,1.065613651E1,1.201484798E1
2.808253034E0,9.361918569E-1,5.417948723E0,1.074945641E1,1.207399837E1
2.810639753E0,9.696913958E-1,5.386841774E0,1.084756279E1,1.215022568E1
2.813026523E0,9.840483069E-1,5.319543839E0,1.095075321E1,1.221412681E1
2.815413242E0,9.696913958E-1,5.266901970E0,1.107757282E1,1.230419349E1
2.817800013E0,9.864411354E-1,5.219045162E0,1.119721317E1,1.239310620E1
2.820186732E0,1.012762189E0,5.190331459E0,1.129292679E1,1.246978041E1
2.822573503E0,1.041476011E0,5.125725269E0,1.140778160E1,1.254970967E1
2.824960273E0,1.055832982E0,5.056333542E0,1.151097202E1,1.261680503E1
2.827346992E0,1.086939692E0,5.010869503E0,1.161147118E1,1.269316800E1
2.829733763E0,1.103689432E0,4.948656559E0,1.171196938E1,1.276234926E1
2.832120482E0,1.118046403E0,4.881657124E0,1.176939774E1,1.279059526E1
2.834507253E0,1.113260746E0,4.848157883E0,1.182203960E1,1.282593485E1
2.836893971E0,1.118046403E0,4.783551693E0,1.188425255E1,1.285954327E1
2.839280742E0,1.156331539E0,4.733003139E0,1.191057396E1,1.286857387E1
2.841667461E0,1.156331539E0,4.673182487E0,1.191535950E1,1.285112949E1
2.844054232E0,1.165902853E0,4.634897232E0,1.189382362E1,1.281813724E1
2.846440950E0,1.175474167E0,4.596612453E0,1.188664532E1,1.279855158E1
2.848827721E0,1.168295622E0,4.551148891E0,1.185793209E1,1.275493725E1
2.851214440E0,1.156331539E0,4.500899315E0,1.181007481E1,1.269145635E1
2.853601211E0,1.163509965E0,4.481756687E0,1.175743294E1,1.263634155E1
2.855987930E0,1.139581800E0,4.445864677E0,1.167607689E1,1.254572162E1
2.858374700E0,1.120439172E0,4.419543266E0,1.160907841E1,1.247230725E1
2.860761419E0,1.106082320E0,4.364508629E0,1.151815128E1,1.236689786E1
2.863148190E0,1.070189953E0,4.347758770E0,1.142213917E1,1.226839745E1
2.865534909E0,1.019940615E0,4.331008911E0,1.130249786E1,1.214678455E1
2.867921680E0,9.337990284E-1,4.326223373E0,1.114696407E1,1.199345644E1
2.870308398E0,8.907282352E-1,4.323830605E0,1.102253723E1,1.187372035E1
2.872695169E0,8.306085467E-1,4.347758770E0,1.085713387E1,1.172477175E1
2.875081888E0,7.683951855E-1,4.374079704E0,1.069681454E1,1.158209159E1
2.877468659E0,7.157530785E-1,4.407579422E0,1.054606628E1,1.145244834E1
2.879855378E0,6.678966284E-1,4.417150497E0,1.038335514E1,1.130359980E1
2.882242148E0,6.320042610E-1,4.431507587E0,1.023709393E1,1.117299337E1
2.884628867E0,5.985047817E-1,4.421936035E0,1.006480980E1,1.100963771E1
2.887015638E0,5.721837282E-1,4.441078663E0,9.923633575E0,1.088710601E1
2.889402357E0,5.410770178E-1,4.472185612E0,9.770194054E0,1.075871276E1
2.891789128E0,5.027918816E-1,4.472185612E0,9.614660263E0,1.061578710E1
2.894175846E0,5.027918816E-1,4.481756687E0,9.473484039E0,1.049218007E1
2.896562617E0,5.243272781E-1,4.503292084E0,9.310771942E0,1.035591777E1
2.898949336E0,5.195416212E-1,4.536791801E0,9.176474571E0,1.024988238E1
2.901336107E0,5.123631358E-1,4.541577339E0,9.028120041E0,1.011906084E1
2.903722825E0,5.123631358E-1,4.577469826E0,8.901300430E0,1.002241963E1
2.906109596E0,5.267201066E-1,4.603790760E0,8.757730484E0,9.908085923E0
2.908496315E0,5.362913609E-1,4.642076015E0,8.649754524E0,9.831313823E0
2.910883086E0,5.506483316E-1,4.673182487E0,8.537292480E0,9.748190142E0
2.913269805E0,5.745765567E-1,4.721039295E0,8.408080101E0,9.659925529E0
2.915656575E0,5.913262963E-1,4.756931305E0,8.307580948E0,9.591348364E0
2.918043294E0,6.200401783E-1,4.793122768E0,8.190332413E0,9.509995832E0
2.920430065E0,6.559324861E-1,4.833800793E0,8.063214302E0,9.423974873E0
2.922816784E0,7.013961077E-1,4.855336189E0,7.974679470E0,9.362785839E0
2.925203555E0,7.540382147E-1,4.852943420E0,7.898109436E0,9.300525046E0
2.927590273E0,8.282157183E-1,4.862514496E0,7.826324463E0,9.251018490E0
2.929977044E0,8.907282352E-1,4.855336189E0,7.776075363E0,9.210593594E0
2.932363763E0,9.553344250E-1,4.862514496E0,7.737790108E0,9.188585682E0
2.934750534E0,1.012762189E0,4.864907742E0,7.668398380E0,9.137688346E0
2.937137305E0,1.079761267E0,4.862514496E0,7.634898663E0,9.116008403E0
2.939524023E0,1.132403374E0,4.862514496E0,7.596613884E0,9.090375522E0
2.941910794E0,1.185045362E0,4.838586330E0,7.550850868E0,9.046081971E0
2.944297513E0,1.249651670E0,4.831408024E0,7.495816231E0,9.005075999E0
2.946684284E0,1.328614831E0,4.819443703E0,7.462316513E0,8.982116828E0
2.949071003E0,1.366899967E0,4.805087090E0,7.433602810E0,8.956323364E0
2.951457773E0,1.412662625E0,4.800301552E0,7.402495861E0,8.935068867E0
2.953844492E0,1.450947881E0,4.800301552E0,7.385746002E0,8.927339399E0
2.956231263E0,1.508375525E0,4.771587372E0,7.345067978E0,8.887815613E0
2.958617982E0,1.549053550E0,4.754538536E0,7.330711365E0,8.873811622E0
2.961004700E0,1.594517231E0,4.737788677E0,7.316354275E0,8.861047716E0
2.963391471E0,1.620838284E0,4.733003139E0,7.299604416E0,8.849444056E0
2.965778242E0,1.668694735E0,4.711467743E0,7.311568737E0,8.856721053E0
2.968164961E0,1.702194214E0,4.711467743E0,7.309175968E0,8.861119950E0
2.970551732E0,1.702194214E0,4.699503899E0,7.337889671E0,8.878481112E0
2.972938450E0,1.721336842E0,4.689932346E0,7.364210606E0,8.898879917E0
2.975325221E0,1.742872238E0,4.658825874E0,7.390532017E0,8.908547898E0
2.977711940E0,1.773978829E0,4.658825874E0,7.426424026E0,8.944463832E0
2.980098711E0,1.805085540E0,4.642076015E0,7.462316513E0,8.971809811E0
2.982485430E0,1.821835399E0,4.634897232E0,7.519744396E0,9.019307754E0
2.984872200E0,1.824228168E0,4.608576298E0,7.565207958E0,9.044288549E0
2.987258919E0,1.824228168E0,4.603790760E0,7.634898663E0,9.100240401E0
2.989645690E0,1.845763564E0,4.579862595E0,7.658827305E0,9.112607761E0
2.992032409E0,1.857727647E0,4.579862595E0,7.701898098E0,9.151258258E0
2.994419180E0,1.829013824E0,4.565505505E0,7.752147198E0,9.180681797E0
2.996805898E0,1.800299883E0,4.555934429E0,7.766504288E0,9.182385694E0
2.999192669E0,1.781157374E0,4.527220249E0,7.780860901E0,9.176602919E0
3.001579388E0,1.764407635E0,4.508078098E0,7.811967850E0,9.190361480E0
3.003966159E0,1.745265007E0,4.505684853E0,7.819146156E0,9.191637098E0
3.006352878E0,1.709372640E0,4.505684853E0,7.814360619E0,9.180816014E0
3.008739648E0,1.678265929E0,4.512863636E0,7.819146156E0,9.182677243E0
3.011126367E0,1.620838284E0,4.520041943E0,7.804789066E0,9.163658018E0
3.013513138E0,1.577767372E0,4.541577339E0,7.759325504E0,9.128110806E0
3.015899857E0,1.503589988E0,4.582255363E0,7.711469173E0,9.095306695E0
3.018286628E0,1.448554993E0,4.608576298E0,7.673183918E0,9.067250879E0
3.020673346E0,1.369292736E0,4.620540619E0,7.610970497E0,9.008397755E0
3.023060117E0,1.302293777E0,4.656432629E0,7.529315472E0,8.948124126E0
3.025446836E0,1.225723386E0,4.668396950E0,7.471887589E0,8.895247722E0
3.027833607E0,1.165902853E0,4.675575256E0,7.409674644E0,8.838756235E0
3.030220325E0,1.098903775E0,4.692325115E0,7.352246761E0,8.790963368E0
3.032607096E0,1.031904817E0,4.725824833E0,7.273283482E0,8.734924184E0
3.034993815E0,9.649057388E-1,4.733003139E0,7.199106216E0,8.669457429E0
3.037380586E0,9.050851464E-1,4.749752998E0,7.139285564E0,8.622571022E0
3.039767305E0,8.739784956E-1,4.766502857E0,7.050751209E0,8.555494171E0
3.042154075E0,8.162516356E-1,4.776372910E0,6.983452797E0,8.499918698E0
3.044540794E0,7.588238716E-1,4.785944462E0,6.906882763E0,8.437185998E0
3.046927565E0,7.205387354E-1,4.826622486E0,6.851847649E0,8.412091113E0
3.049314284E0,6.822535396E-1,4.814658165E0,6.796812534E0,8.357216269E0
3.051701055E0,6.391827464E-1,4.843372345E0,6.725028038E0,8.312208634E0
3.054087773E0,6.008976102E-1,4.867300510E0,6.667600155E0,8.276991242E0
3.056474544E0,5.673980713E-1,4.869693279E0,6.636493683E0,8.250993977E0
3.058861263E0,5.338985324E-1,4.874478817E0,6.612565517E0,8.232351675E0
3.061248034E0,5.267201066E-1,4.891228676E0,6.600601196E0,8.232222554E0
3.063634753E0,5.386841893E-1,4.884049892E0,6.571887493E0,8.205719300E0
3.066021523E0,5.219344497E-1,4.912764072E0,6.574280262E0,8.223674809E0
3.068408242E0,5.315057039E-1,4.927121162E0,6.571887493E0,8.230961456E0
3.070795013E0,5.147559643E-1,4.965405941E0,6.571887493E0,8.252874353E0
3.073181732E0,5.075774789E-1,4.974977493E0,6.559923172E0,8.248674316E0
3.075568503E0,5.195416212E-1,4.958227634E0,6.576673031E0,8.252670654E0
3.077955221E0,5.003990531E-1,4.960620403E0,6.600601196E0,8.272006416E0
3.080341992E0,4.980062246E-1,4.998905659E0,6.617351055E0,8.308212983E0
3.082728711E0,5.147559643E-1,5.015655518E0,6.638886452E0,8.336461317E0
3.085115482E0,5.051847100E-1,5.027619362E0,6.650850773E0,8.352603429E0
3.087502200E0,4.884349108E-1,5.056333542E0,6.658029079E0,8.374630068E0
3.089888971E0,4.812564552E-1,5.087440014E0,6.686742783E0,8.415829294E0
3.092275690E0,4.764707983E-1,5.104189873E0,6.708278179E0,8.442794254E0
3.094662461E0,4.597210586E-1,5.144867897E0,6.715456963E0,8.472211715E0
3.097049180E0,4.621138871E-1,5.199902534E0,6.729813576E0,8.517213534E0
3.099435950E0,4.716851711E-1,5.231009483E0,6.748956203E0,8.551862777E0
3.101822669E0,4.573282301E-1,5.242973328E0,6.756134510E0,8.564068656E0
3.104209440E0,4.525425732E-1,5.245366573E0,6.760920525E0,8.569055468E0
3.106596159E0,4.668995142E-1,5.274080276E0,6.768098831E0,8.593083248E0
3.108982930E0,4.573282301E-1,5.293222904E0,6.777669907E0,8.611862005E0
3.111369648E0,4.692923427E-1,5.302793980E0,6.753741741E0,8.599586432E0
3.113756419E0,4.788636267E-1,5.329114914E0,6.732206345E0,8.599498730E0
3.116143138E0,4.860421121E-1,5.329114914E0,6.703492641E0,8.577442293E0
3.118529909E0,4.884349108E-1,5.336592674E0,6.665207386E0,8.552355204E0
3.120916628E0,5.195416212E-1,5.331807137E0,6.629314899E0,8.523256823E0
3.123303398E0,5.291129351E-1,5.336592674E0,6.559923172E0,8.473002649E0
3.125690117E0,5.458626747E-1,5.367699623E0,6.524031162E0,8.465999522E0
3.128076888E0,5.482555032E-1,5.362913609E0,6.471388817E0,8.422606466E0
3.130463607E0,5.769693851E-1,5.370092392E0,6.425626278E0,8.394013285E0
3.132850378E0,5.793621540E-1,5.384449005E0,6.372983932E0,8.363185745E0
3.135237096E0,6.056832075E-1,5.415555954E0,6.320342064E0,8.345167598E0
3.137623867E0,6.248258352E-1,5.425127029E0,6.284449577E0,8.325666166E0
3.140010586E0,6.343970895E-1,5.439484119E0,6.246164322E0,8.306925778E0
3.142397357E0,6.511468887E-1,5.470590591E0,6.215057850E0,8.305317439E0
3.144784075E0,6.942176819E-1,5.489733219E0,6.198307991E0,8.308918760E0
3.147170846E0,7.181459069E-1,5.511268616E0,6.145665646E0,8.286073951E0
3.149557565E0,7.348956466E-1,5.554339409E0,6.128916264E0,8.303876953E0
3.151944336E0,7.348956466E-1,5.590231895E0,6.090631008E0,8.299792186E0
3.154331055E0,7.588238716E-1,5.592624664E0,6.083452702E0,8.298292660E0
3.156717825E0,7.803592682E-1,5.650052547E0,6.073881149E0,8.332111773E0
3.159104544E0,7.971090674E-1,5.671587944E0,6.076273918E0,8.350053736E0
3.161491315E0,7.995018363E-1,5.705087185E0,6.069095612E0,8.367863796E0
3.163878034E0,8.234301209E-1,5.736194134E0,6.083452702E0,8.401806775E0
3.166264805E0,8.548358679E-1,5.740979671E0,6.107380867E0,8.425538143E0
3.168651523E0,8.811569214E-1,5.784050465E0,6.131309032E0,8.474941165E0
3.171038294E0,9.218349457E-1,5.807978630E0,6.174379826E0,8.526743908E0
3.173425013E0,9.409775138E-1,5.827121258E0,6.236593246E0,8.586959657E0
3.175811784E0,9.601200819E-1,5.851049423E0,6.296413898E0,8.648782452E0
3.178198503E0,9.936196208E-1,5.851049423E0,6.346662998E0,8.689199648E0
3.180585273E0,9.840483069E-1,5.874977589E0,6.396912098E0,8.740949441E0
3.182971992E0,1.003190875E0,5.882156372E0,6.451947212E0,8.788275050E0
3.185358763E0,1.017547846E0,5.889334679E0,6.535995007E0,8.856573677E0
3.187745534E0,1.024726272E0,5.901597977E0,6.598208427E0,8.911524957E0
3.190132253E0,1.022333503E0,5.903990746E0,6.643671989E0,8.946544026E0
3.192519023E0,1.000798106E0,5.899205208E0,6.703492641E0,8.985490111E0
3.194905742E0,9.888339639E-1,5.925526142E0,6.777669907E0,9.056846142E0
3.197292461E0,1.000798106E0,5.927918911E0,6.851847649E0,9.115351648E0
3.199679232E0,9.912267923E-1,5.930311680E0,6.894918442E0,9.148280029E0
3.202065950E0,9.529415965E-1,5.915955067E0,6.961917400E0,9.185581959E0
3.204452721E0,9.266205430E-1,5.925526142E0,7.017251492E0,9.231051088E0
3.206839440E0,8.979067206E-1,5.915955067E0,7.067500591E0,9.260363137E0
3.209226211E0,8.859425783E-1,5.899205208E0,7.127321243E0,9.294311402E0
3.211612982E0,8.691928387E-1,5.911169052E0,7.177570820E0,9.338893865E0
3.213999700E0,8.428717852E-1,5.901597977E0,7.215855598E0,9.359907240E0
3.216386419E0,7.899305820E-1,5.937490463E0,7.256533623E0,9.409307283E0
3.218773190E0,7.516453862E-1,5.959025860E0,7.301997185E0,9.454846528E0
3.221159909E0,7.109674215E-1,5.978168488E0,7.342675209E0,9.495201544E0
3.223546680E0,6.655037999E-1,5.973382473E0,7.388139248E0,9.524116496E0
3.225933450E0,5.985047817E-1,5.992525101E0,7.433602810E0,9.566975269E0
3.228320169E0,5.315057039E-1,6.009274960E0,7.481459141E0,9.610729147E0
3.230706888E0,4.645066857E-1,6.009274960E0,7.519744396E0,9.637100590E0
3.233093659E0,4.238287210E-1,6.021239281E0,7.596613884E0,9.702757122E0
3.235480378E0,3.472583890E-1,6.052345753E0,7.651648521E0,9.762131048E0
3.237867148E0,2.703889608E-1,6.071488380E0,7.721040249E0,9.826013631E0
3.240253867E0,1.746760458E-1,6.076273918E0,7.773682594E0,9.868219572E0
3.242640638E0,9.332008660E-2,6.093023777E0,7.845467091E0,9.934032477E0
3.245027357E0,2.153540403E-2,6.133701801E0,7.895716667E0,9.998255010E0
3.247414128E0,-7.178468257E-2,6.174379826E0,7.962715626E0,1.007635645E1
3.249800846E0,-1.674975902E-1,6.212665081E0,8.041678429E0,1.016335844E1
3.252187617E0,-2.201396823E-1,6.222236156E0,8.111070633E0,1.022517242E1
3.254574336E0,-2.922234535E-1,6.262914181E0,8.187939644E0,1.031270305E1
3.256961107E0,-3.664009571E-1,6.282056808E0,8.286046028E0,1.040466464E1
3.259347825E0,-4.310071766E-1,6.332305908E0,8.362615585E0,1.049843820E1
3.261734596E0,-4.980062246E-1,6.363412857E0,8.429615021E0,1.057352556E1
3.264121315E0,-5.793621540E-1,6.396912098E0,8.489435196E0,1.064549928E1
3.266508086E0,-6.200401783E-1,6.420840263E0,8.556434631E0,1.071560605E1
3.268894805E0,-6.511468887E-1,6.420840263E0,8.587541580E0,1.074230200E1
3.271281575E0,-6.774678826E-1,6.454638958E0,8.623434067E0,1.079281900E1
3.273668294E0,-6.798607111E-1,6.478567123E0,8.637790680E0,1.081875549E1
3.276055065E0,-6.894320250E-1,6.471388817E0,8.628219604E0,1.080742168E1
3.278441836E0,-6.894320250E-1,6.471388817E0,8.637790680E0,1.081506438E1
3.280828555E0,-6.702894568E-1,6.459424496E0,8.630612373E0,1.080096860E1
3.283215273E0,-6.343970895E-1,6.425626278E0,8.628219604E0,1.077670201E1
3.285602044E0,-6.176473498E-1,6.425626278E0,8.649754524E0,1.079297988E1
3.287988763E0,-5.721837282E-1,6.411269188E0,8.656932831E0,1.078768988E1
3.290375534E0,-5.410770178E-1,6.413661957E0,8.690432549E0,1.081440900E1
3.292762253E0,-4.788636267E-1,6.396912098E0,8.700303078E0,1.080948974E1
3.295149023E0,-4.214358926E-1,6.399304867E0,8.690432549E0,1.080057077E1
3.297535742E0,-3.664009571E-1,6.432804585E0,8.705088615E0,1.083022586E1
3.299922513E0,-3.329014480E-1,6.457031727E0,8.712266922E0,1.084931689E1
3.302309232E0,-2.898306549E-1,6.492924213E0,8.707481384E0,1.086564764E1
3.304696003E0,-2.608176768E-1,6.512066841E0,8.719446182E0,1.088594425E1
3.307082721E0,-2.416750938E-1,6.552744865E0,8.731410027E0,1.091945022E1
3.309469492E0,-2.057827413E-1,6.583851337E0,8.724231720E0,1.093168167E1
3.311856211E0,-1.914258152E-1,6.617351055E0,8.729017258E0,1.095544253E1
3.314242982E0,-1.531406492E-1,6.634100914E0,8.717052460E0,1.095544388E1
3.316629700E0,-1.292124242E-1,6.662814617E0,8.712266922E0,1.096874603E1
3.319016471E0,-1.172483116E-1,6.679564476E0,8.705088615E0,1.097309877E1
3.321403190E0,-7.896314561E-2,6.684350014E0,8.719446182E0,1.098706112E1
3.323789961E0,-4.546362907E-2,6.684350014E0,8.729017258E0,1.099446881E1
3.326176680E0,-2.392822690E-2,6.677171707E0,8.740981102E0,1.099954295E1
3.328563450E0,1.435693540E-2,6.669992924E0,8.750552177E0,1.100278034E1
3.330950169E0,5.024927482E-2,6.662814617E0,8.774480820E0,1.101758310E1
3.333336940E0,7.896314561E-2,6.646064758E0,8.810373306E0,1.103626249E1
3.335723659E0,8.614161611E-2,6.643671989E0,8.836693764E0,1.105590135E1
3.338110430E0,8.374879509E-2,6.629314899E0,8.913264275E0,1.110860522E1
3.340497148E0,6.939185411E-2,6.636493683E0,8.961120605E0,1.115121277E1
3.342883919E0,5.982056633E-2,6.669992924E0,9.023334503E0,1.122109396E1
3.345270638E0,3.589234129E-2,6.691528320E0,9.107083321E0,1.130118605E1
3.347657409E0,7.178467698E-3,6.713063717E0,9.176474571E0,1.136982680E1
3.350044128E0,-1.674975827E-2,6.717849731E0,9.262915611E0,1.144252556E1
3.352430898E0,-3.110669367E-2,6.744170666E0,9.349057198E0,1.152777845E1
3.354817617E0,-7.417750359E-2,6.736992359E0,9.456734657E0,1.161130478E1
3.357204388E0,-1.100698411E-1,6.763313293E0,9.552447319E0,1.170486104E1
3.359591107E0,-1.292124242E-1,6.751348972E0,9.655338287E0,1.178231583E1
3.361977878E0,-1.555334777E-1,6.746563435E0,9.770194054E0,1.187421579E1
3.364364596E0,-2.177468538E-1,6.736992359E0,9.861420631E0,1.194496114E1
3.366751367E0,-2.560320199E-1,6.713063717E0,9.949954987E0,1.200551461E1
3.369138086E0,-2.874378264E-1,6.698707104E0,1.004088211E1,1.207371570E1
3.371524857E0,-3.281157911E-1,6.662814617E0,1.012223816E1,1.212272510E1
3.373911575E0,-3.592225015E-1,6.624529362E0,1.019880867E1,1.216672217E1
3.376298346E0,-3.975076675E-1,6.576673031E0,1.026341438E1,1.219624185E1
3.378685065E0,-4.310071766E-1,6.526423931E0,1.036391354E1,1.225523073E1
3.381071836E0,-4.429712892E-1,6.471388817E0,1.042642593E1,1.227947289E1
3.383458555E0,-4.621138871E-1,6.404090881E0,1.049820995E1,1.230602866E1
3.385845325E0,-4.788636267E-1,6.329913139E0,1.056042385E1,1.232151219E1
3.388232044E0,-4.692923427E-1,6.253343105E0,1.062263680E1,1.233551571E1
3.390618815E0,-4.716851711E-1,6.186343670E0,1.064417267E1,1.232037932E1
3.393005534E0,-4.716851711E-1,6.064310074E0,1.069681454E1,1.230529093E1
3.395392305E0,-4.692923427E-1,5.980561256E0,1.072313595E1,1.228710677E1
3.397779023E0,-4.645066857E-1,5.889334679E0,1.073031425E1,1.224906827E1
3.400165794E0,-4.668995142E-1,5.793622017E0,1.075184917E1,1.222236932E1
3.402552513E0,-4.525425732E-1,5.702694416E0,1.075902748E1,1.218532686E1
3.404939284E0,-4.668995142E-1,5.616552830E0,1.074467087E1,1.213307928E1
3.407326003E0,-4.692923427E-1,5.537590027E0,1.073270702E1,1.208619620E1
3.409712773E0,-4.668995142E-1,5.489733219E0,1.070160007E1,1.203658632E1
3.412099492E0,-4.956133962E-1,5.422734261E0,1.066331482E1,1.197321855E1
3.414486263E0,-5.219344497E-1,5.350949764E0,1.061545849E1,1.189928728E1
3.416872982E0,-5.362913609E-1,5.305186749E0,1.054606628E1,1.181745019E1
3.419259753E0,-5.889334679E-1,5.254937649E0,1.047906780E1,1.173763495E1
3.421646471E0,-6.343970895E-1,5.211866856E0,1.041446114E1,1.166306206E1
3.424033242E0,-6.607181430E-1,5.168796062E0,1.034716320E1,1.158519691E1
3.426419961E0,-7.037889361E-1,5.120939732E0,1.027298546E1,1.150015534E1
3.428806732E0,-7.540382147E-1,5.085047245E0,1.018684387E1,1.141043677E1
3.431193450E0,-7.971090674E-1,5.013262749E0,1.006002426E1,1.126819748E1
3.433580221E0,-8.524430394E-1,4.965405941E0,9.942776680E0,1.114633228E1
3.435966940E0,-9.074779749E-1,4.907978535E0,9.803693771E0,1.100109909E1
3.438353711E0,-9.601200819E-1,4.857728958E0,9.645767212E0,1.084251753E1
3.440740430E0,-1.000798106E0,4.817050934E0,9.456734657E0,1.065999094E1
3.443127200E0,-1.067797065E0,4.795515537E0,9.270093918E0,1.049151091E1
3.445513919E0,-1.115653515E0,4.773980141E0,9.080761909E0,1.031968052E1
3.447900690E0,-1.175474167E0,4.740181446E0,8.886942863E0,1.014045429E1
3.450287409E0,-1.216152072E0,4.749752998E0,8.707481384E0,9.992968101E0
3.452674180E0,-1.273579836E0,4.778766155E0,8.503792763E0,9.837332104E0
3.455060898E0,-1.314257860E0,4.788337231E0,8.326724052E0,9.694832675E0
3.457447669E0,-1.350150228E0,4.807479858E0,8.161619186E0,9.568008987E0
3.459834388E0,-1.362114310E0,4.819443703E0,7.962715626E0,9.406765285E0
3.462221159E0,-1.383649707E0,4.864907742E0,7.780860901E0,9.280280718E0
3.464607878E0,-1.388435364E0,4.903192520E0,7.610970497E0,9.159471685E0
3.466994648E0,-1.388435364E0,4.946263313E0,7.431210041E0,9.034166049E0
3.469381367E0,-1.383649707E0,5.015655518E0,7.251748085E0,8.925196753E0
3.471768138E0,-1.381256819E0,5.080261707E0,7.101000309E0,8.839747440E0
3.474154857E0,-1.357328653E0,5.142475128E0,6.976274490E0,8.772445342E0
3.476541628E0,-1.323829174E0,5.199902534E0,6.839883327E0,8.693417854E0
3.478928346E0,-1.283151150E0,5.197509766E0,6.751348972E0,8.616338990E0
3.481315117E0,-1.228116274E0,5.242973328E0,6.667600155E0,8.570526864E0
3.483701836E0,-1.161117196E0,5.259723186E0,6.593422890E0,8.513877292E0
3.486088607E0,-1.094118118E0,5.271687508E0,6.567101955E0,8.492032250E0
3.488475325E0,-1.000798106E0,5.269294739E0,6.567101955E0,8.479026594E0
3.490862044E0,-9.122636318E-1,5.266901970E0,6.574280262E0,8.473112902E0
3.493248815E0,-8.018946648E-1,5.252544880E0,6.581458569E0,8.458596790E0
3.495635586E0,-6.990033388E-1,5.235795021E0,6.629314899E0,8.476436233E0
3.498022305E0,-6.224330068E-1,5.219045162E0,6.693921566E0,8.510842566E0
3.500409023E0,-5.147559643E-1,5.192724228E0,6.756134510E0,8.536668679E0
3.502795794E0,-4.286143482E-1,5.178367138E0,6.825526714E0,8.578287207E0
3.505182565E0,-3.520440459E-1,5.147260666E0,6.937989235E0,8.646035045E0
3.507569284E0,-3.017947674E-1,5.128118038E0,7.055536747E0,8.727500987E0
3.509956055E0,-2.249253243E-1,5.053940296E0,7.172784805E0,8.777342752E0
3.512342773E0,-1.722832322E-1,5.008476734E0,7.290033340E0,8.846417739E0
3.514729492E0,-1.076770201E-1,4.958227634E0,7.412067413E0,8.918203796E0
3.517116263E0,-7.178468257E-2,4.884049892E0,7.519744396E0,8.966919882E0
3.519502982E0,-2.871387079E-2,4.819443703E0,7.639684677E0,9.032864665E0
3.521889753E0,2.632104978E-2,4.754538536E0,7.761718273E0,9.102230498E0
3.524276471E0,4.546362907E-2,4.654039860E0,7.869395256E0,9.142731302E0
3.526663242E0,7.896314561E-2,4.613361835E0,7.953144073E0,9.194663847E0
3.529050013E0,6.221338734E-2,4.572684288E0,8.044071198E0,9.253128851E0
3.531436732E0,7.178468257E-2,4.510470867E0,8.123034477E0,9.291565509E0
3.533823503E0,8.614161611E-2,4.465006828E0,8.178368568E0,9.318230454E0
3.536210221E0,1.052841991E-1,4.409972191E0,8.223832130E0,9.332221300E0
3.538596940E0,1.076770201E-1,4.369294167E0,8.252546310E0,9.338460604E0
3.540983711E0,1.124626622E-1,4.326223373E0,8.245368004E0,9.312086235E0
3.543370430E0,1.076770201E-1,4.278367043E0,8.235795975E0,9.281398291E0
3.545757200E0,1.100698411E-1,4.252045631E0,8.219046593E0,9.254444031E0
3.548143919E0,9.092725813E-2,4.213760853E0,8.187939644E0,9.209039250E0
3.550530690E0,8.374879509E-2,4.187140465E0,8.142476082E0,9.156368050E0
3.552917409E0,5.982056633E-2,4.136891365E0,8.096714020E0,9.092536862E0
3.555304180E0,3.828516230E-2,4.108177185E0,8.048856735E0,9.036740578E0
3.557690898E0,2.392822690E-2,4.077070713E0,8.001000404E0,8.979926817E0
3.560077669E0,4.785645287E-3,4.084249020E0,7.955537319E0,8.942689025E0
3.562464388E0,-3.828516230E-2,4.091427803E0,7.888537884E0,8.886522220E0
3.564851159E0,-6.221338734E-2,4.091427803E0,7.845467091E0,8.848446521E0
3.567237878E0,-9.092725813E-2,4.098606110E0,7.788039684E0,8.801159124E0
3.569624648E0,-1.220339537E-1,4.134498596E0,7.737790108E0,8.773959578E0
3.572011367E0,-1.483550072E-1,4.172783375E0,7.701898098E0,8.760899760E0
3.574398138E0,-1.651047617E-1,4.199104786E0,7.654041290E0,8.731786109E0
3.576784857E0,-1.890329868E-1,4.223331928E0,7.618149281E0,8.712546385E0
3.579171628E0,-1.914258152E-1,4.249652863E0,7.574779034E0,8.687546875E0
3.581558346E0,-1.938186288E-1,4.287938118E0,7.546065331E0,8.681421597E0
3.583945117E0,-1.794617027E-1,4.287938118E0,7.536494255E0,8.672794559E0
3.586331836E0,-1.292124242E-1,4.290330887E0,7.498209000E0,8.639836409E0
3.588718607E0,-8.853443712E-2,4.331008911E0,7.491030216E0,8.653381434E0
3.591105325E0,-5.024927482E-2,4.347758770E0,7.467102051E0,8.640783781E0
3.593492096E0,-3.110669367E-2,4.338187218E0,7.433602810E0,8.606932479E0
3.595878815E0,1.914258115E-2,4.369294167E0,7.421638489E0,8.612306068E0
3.598265586E0,7.657032460E-2,4.388436794E0,7.385746002E0,8.591477435E0
3.600652305E0,1.363908947E-1,4.386044025E0,7.359425068E0,8.568379193E0
3.603039075E0,1.746760458E-1,4.381258488E0,7.328318596E0,8.539917511E0
3.605425794E0,2.201396823E-1,4.398007870E0,7.304390430E0,8.529071125E0
3.607812565E0,2.679961324E-1,4.402793884E0,7.282855034E0,8.514481391E0
3.610199284E0,3.017947674E-1,4.424329281E0,7.266105175E0,8.512464630E0
3.612586055E0,3.185445070E-1,4.448257446E0,7.225427151E0,8.490892911E0
3.614972773E0,3.496512175E-1,4.467400074E0,7.215855598E0,8.494026808E0
3.617359544E0,3.855435550E-1,4.481756687E0,7.211070061E0,8.499077494E0
3.619746263E0,4.070789516E-1,4.484149456E0,7.189534664E0,8.483084245E0
3.622133034E0,4.357928336E-1,4.491328239E0,7.172784805E0,8.474124534E0
3.624519753E0,4.405784607E-1,4.508078098E0,7.165606499E0,8.477192579E0
3.626906471E0,4.549354017E-1,4.498506546E0,7.151249409E0,8.460726651E0
3.629293242E0,4.668995142E-1,4.505684853E0,7.151249409E0,8.465196941E0
3.631679961E0,4.812564552E-1,4.496113777E0,7.141678333E0,8.452822977E0
3.634066732E0,4.908277392E-1,4.491328239E0,7.122535706E0,8.434658031E0
3.636453503E0,4.908277392E-1,4.500899315E0,7.103393078E0,8.423609662E0
3.638840221E0,5.195416212E-1,4.474578381E0,7.089035988E0,8.399178913E0
3.641226940E0,5.362913609E-1,4.460221291E0,7.084250450E0,8.388550937E0
3.643613711E0,5.602195859E-1,4.443471432E0,7.069893837E0,8.369090943E0
3.646000430E0,5.841478109E-1,4.436293125E0,7.045965195E0,8.346708985E0
3.648387200E0,5.961119533E-1,4.438685894E0,7.034001350E0,8.338732333E0
3.650773919E0,5.769693851E-1,4.438685894E0,7.002595425E0,8.310906618E0
3.653160690E0,5.817549825E-1,4.436293125E0,6.971488953E0,8.283766883E0
3.655547409E0,5.841478109E-1,4.426722050E0,6.954739094E0,8.264713705E0
3.657934180E0,5.841478109E-1,4.455435753E0,6.911668301E0,8.243985390E0
3.660320898E0,5.650052428E-1,4.484149456E0,6.885347366E0,8.236190601E0
3.662707669E0,5.362913609E-1,4.512863636E0,6.878168583E0,8.243952309E0
3.665094388E0,5.051847100E-1,4.539184570E0,6.854240417E0,8.236505318E0
3.667481159E0,4.836492836E-1,4.560719967E0,6.849454880E0,8.243125342E0
3.669867878E0,4.716851711E-1,4.589433670E0,6.835097790E0,8.246450758E0
3.672254648E0,4.621138871E-1,4.620540619E0,6.830312252E0,8.259304469E0
3.674641367E0,4.094717801E-1,4.656432629E0,6.830312252E0,8.276665840E0
3.677028138E0,3.783650696E-1,4.701896667E0,6.813562393E0,8.287075774E0
3.679414857E0,3.711866140E-1,4.742574692E0,6.789634228E0,8.290291138E0
3.681801628E0,3.233301640E-1,4.773980141E0,6.780063152E0,8.298474868E0
3.684188346E0,2.994019389E-1,4.797908306E0,6.770491600E0,8.303560811E0
3.686575117E0,2.850449979E-1,4.833800793E0,6.763313293E0,8.318009826E0
3.688961836E0,2.584248483E-1,4.850550652E0,6.784848690E0,8.344387142E0
3.691348607E0,2.416750938E-1,4.879264355E0,6.777669907E0,8.354785267E0
3.693735325E0,2.321037948E-1,4.891228676E0,6.763313293E0,8.349874061E0
3.696122096E0,2.129612118E-1,4.924727917E0,6.758527756E0,8.365165567E0
3.698508815E0,2.033899277E-1,4.955834866E0,6.768098831E0,8.390996870E0
3.700895586E0,1.794617027E-1,4.996512890E0,6.770491600E0,8.416466246E0
3.703282305E0,1.770688742E-1,5.041976452E0,6.782455921E0,8.453081583E0
3.705669075E0,1.674975902E-1,5.070690155E0,6.808776855E0,8.491136341E0
3.708055794E0,1.746760458E-1,5.087440014E0,6.839883327E0,8.526227862E0
3.710442565E0,1.842473447E-1,5.118546963E0,6.844669342E0,8.548857730E0
3.712829284E0,1.914258152E-1,5.137689114E0,6.851847649E0,8.566230762E0
3.715216055E0,1.986042857E-1,5.144867897E0,6.875775814E0,8.589842978E0
3.717602773E0,2.225325108E-1,5.147260666E0,6.909275532E0,8.618694881E0
3.719989544E0,2.512463629E-1,5.152046204E0,6.957131863E0,8.660738339E0
3.722376263E0,2.656033039E-1,5.135296345E0,7.007380962E0,8.691674270E0
3.724763034E0,2.970091105E-1,5.135296345E0,7.065107822E0,8.739292391E0
3.727149753E0,3.161516786E-1,5.116153717E0,7.115357399E0,8.769452187E0
3.729536523E0,3.472583890E-1,5.101797104E0,7.203891754E0,8.834306905E0
3.731923242E0,3.855435550E-1,5.089832783E0,7.270890713E0,8.883743206E0
3.734310013E0,3.999004960E-1,5.080261707E0,7.335496902E0,8.931880778E0
3.736696732E0,4.262215197E-1,5.058726311E0,7.419245720E0,8.989860050E0
3.739083450E0,4.549354017E-1,5.073082924E0,7.491030216E0,9.058624083E0
3.741470221E0,4.692923427E-1,5.049154758E0,7.553243637E0,9.097564977E0
3.743856940E0,4.740779996E-1,5.053940296E0,7.627720356E0,9.162378528E0
3.746243711E0,4.716851711E-1,5.049154758E0,7.701898098E0,9.221479544E0
3.748630430E0,4.788636267E-1,5.041976452E0,7.780860901E0,9.283998776E0
3.751017200E0,4.884349108E-1,5.063511848E0,7.843074322E0,9.348344009E0
3.753403919E0,4.812564552E-1,5.053940296E0,7.893323898E0,9.385013716E0
3.755790690E0,4.740779996E-1,5.058726311E0,7.922037601E0,9.411383617E0
3.758177409E0,4.908277392E-1,5.068297386E0,7.969893932E0,9.457682568E0
3.760564180E0,4.525425732E-1,5.073082924E0,7.996214867E0,9.480528325E0
3.762950898E0,4.381856322E-1,5.073082924E0,8.032107353E0,9.510148555E0
3.765337669E0,4.046861231E-1,5.082654476E0,8.056035995E0,9.533984652E0
3.767724388E0,3.687937856E-1,5.077868938E0,8.079963684E0,9.550213346E0
3.770111159E0,3.496512175E-1,5.097011566E0,8.120641708E0,9.594092174E0
3.772497878E0,3.113660514E-1,5.154438972E0,8.130212784E0,9.631487416E0
3.774884648E0,2.826521695E-1,5.171188831E0,8.147261620E0,9.653960746E0
3.777271367E0,2.368894368E-1,5.185545921E0,8.178368568E0,9.686677219E0
3.779658138E0,1.890329868E-1,5.216652393E0,8.168797493E0,9.694248199E0
3.782044857E0,1.244267747E-1,5.242973328E0,8.159226418E0,9.699341579E0
3.784431628E0,6.939185411E-2,5.271687508E0,8.190332413E0,9.740485072E0
3.786818346E0,4.785645287E-3,5.326722145E0,8.175975800E0,9.758102889E0
3.789205117E0,-3.589234129E-2,5.353342533E0,8.183154106E0,9.778730780E0
3.791591836E0,-1.076770201E-1,5.377270699E0,8.211868286E0,9.816385040E0
3.793978607E0,-1.746760458E-1,5.408377171E0,8.266902924E0,9.880422020E0
3.796365325E0,-2.249253243E-1,5.451447964E0,8.293224335E0,9.927056269E0
3.798752096E0,-2.922234535E-1,5.504090309E0,8.321938515E0,9.981736588E0
3.801138815E0,-3.544368446E-1,5.561518192E0,8.350651741E0,1.003939712E1
3.803525586E0,-4.166502357E-1,5.599802971E0,8.362615585E0,1.007297027E1
3.805912305E0,-4.597210586E-1,5.623731613E0,8.362615585E0,1.008816337E1
3.808299075E0,-5.003990531E-1,5.662016392E0,8.388936996E0,1.013326664E1
3.810685794E0,-5.219344497E-1,5.688337803E0,8.403293610E0,1.016095202E1
3.813072565E0,-5.195416212E-1,5.729015827E0,8.429615021E0,1.020538854E1
3.815459284E0,-5.386841893E-1,5.750551224E0,8.460721970E0,1.024416108E1
3.817846003E0,-5.219344497E-1,5.769693375E0,8.513363838E0,1.029753082E1
3.820232773E0,-4.956133962E-1,5.812764645E0,8.551649094E0,1.035203206E1
3.822619492E0,-4.645066857E-1,5.822335720E0,8.570791245E0,1.037178009E1
3.825006263E0,-4.381856322E-1,5.841478348E0,8.630612373E0,1.043083630E1
3.827392982E0,-3.735794425E-1,5.867799282E0,8.668897629E0,1.047475136E1
3.829779753E0,-3.233301640E-1,5.884549141E0,8.733802795E0,1.053621242E1
3.832166471E0,-2.560320199E-1,5.879763603E0,8.786444664E0,1.057538568E1
3.834553242E0,-1.866401732E-1,5.872584820E0,8.853444099E0,1.062570277E1
3.836939961E0,-1.244267747E-1,5.886941910E0,8.922835350E0,1.069058267E1
3.839326732E0,-7.657032460E-2,5.896812439E0,8.975478172E0,1.073952831E1
3.841713450E0,-2.392822690E-2,5.894419670E0,9.028120041E0,1.078200850E1
3.844100221E0,5.264209956E-2,5.901597977E0,9.085547447E0,1.083414982E1
3.846486940E0,9.092725813E-2,5.913562298E0,9.152546883E0,1.089713730E1
3.848873711E0,1.507478207E-1,5.925526142E0,9.231510162E0,1.097065927E1
3.851260430E0,1.962114573E-1,5.923133373E0,9.303593636E0,1.103081422E1
3.853647200E0,2.536391914E-1,5.944668770E0,9.384949684E0,1.111218701E1
3.856033919E0,2.874378264E-1,5.978168488E0,9.473484039E0,1.120571367E1
3.858420690E0,3.065803945E-1,5.999703884E0,9.562018394E0,1.129259200E1
3.860807409E0,3.329014480E-1,6.011667728E0,9.652945518E0,1.137674512E1
3.863194180E0,3.496512175E-1,6.047560215E0,9.748658180E0,1.147743773E1
3.865580898E0,3.664009571E-1,6.078666687E0,9.835099220E0,1.156778350E1
3.867967669E0,3.759722710E-1,6.104988098E0,9.928419113E0,1.166129242E1
3.870354388E0,3.664009571E-1,6.152844429E0,1.001216793E1,1.175734880E1
3.872741159E0,3.616153300E-1,6.160022736E0,1.010070229E1,1.183641975E1
3.875127878E0,3.640081584E-1,6.179165363E0,1.018205833E1,1.191590947E1
3.877514648E0,3.544368446E-1,6.207879066E0,1.026819992E1,1.200413752E1
3.879901367E0,3.329014480E-1,6.193522453E0,1.035673428E1,1.207197120E1
3.882288138E0,3.137588799E-1,6.183950901E0,1.041924667E1,1.212024730E1
3.884674857E0,3.065803945E-1,6.162415504E0,1.047906780E1,1.216060107E1
3.887061628E0,2.727817893E-1,6.112166405E0,1.055085278E1,1.219645368E1
3.889448346E0,2.416750938E-1,6.095416546E0,1.059392357E1,1.222471784E1
3.891835065E0,2.057827413E-1,6.095416546E0,1.063699436E1,1.226140687E1
3.894221836E0,1.531406492E-1,6.066702843E0,1.065374374E1,1.226093762E1
3.896608555E0,1.220339537E-1,6.059524059E0,1.068245792E1,1.228200437E1
3.898995325E0,6.460621208E-2,6.047560215E0,1.068485069E1,1.227775195E1
3.901382044E0,2.153540403E-2,6.033203125E0,1.071117115E1,1.229346132E1
3.903768815E0,-4.546362907E-2,6.052345753E0,1.074227810E1,1.233002412E1
3.906155534E0,-7.178468257E-2,6.018846035E0,1.078056335E1,1.234715380E1
3.908542305E0,-7.417750359E-2,6.002096653E0,1.082602692E1,1.237875298E1
3.910929023E0,-1.004985496E-1,5.985346794E0,1.087627602E1,1.241482405E1
3.913315794E0,-1.148554832E-1,5.980561256E0,1.092413235E1,1.245459643E1
3.915702513E0,-1.172483116E-1,5.954239845E0,1.099143124E1,1.250113115E1
3.918089284E0,-8.135596663E-2,5.927918911E0,1.106082249E1,1.254944762E1
3.920476003E0,-8.374879509E-2,5.894419670E0,1.109192944E1,1.256113433E1
3.922862773E0,-3.589234129E-2,5.865406513E0,1.111107159E1,1.256424266E1
3.925249492E0,-2.392822690E-2,5.831906796E0,1.112303638E1,1.255920570E1
3.927636263E0,0.000000000E0,5.803193092E0,1.114935684E1,1.256921668E1
3.930022982E0,1.196411345E-2,5.743372440E0,1.115892887E1,1.255022564E1
3.932409753E0,1.674975827E-2,5.714658737E0,1.116371441E1,1.254137650E1
3.934796471E0,6.460621208E-2,5.678766251E0,1.119721317E1,1.255508435E1
3.937183242E0,1.124626622E-1,5.618945599E0,1.120917797E1,1.253917335E1
3.939569961E0,1.555334777E-1,5.583053589E0,1.122832012E1,1.254072768E1
3.941956732E0,2.057827413E-1,5.542375565E0,1.123549843E1,1.252983234E1
3.944343450E0,2.440679073E-1,5.496912003E0,1.124267673E1,1.251692418E1
3.946730221E0,2.850449979E-1,5.449055195E0,1.122592735E1,1.248178265E1
3.949116940E0,3.257229924E-1,5.420341492E0,1.122353458E1,1.246811637E1
3.951503659E0,3.687937856E-1,5.348556995E0,1.122114182E1,1.243612055E1
3.953890430E0,4.070789516E-1,5.295615673E0,1.123549843E1,1.242761778E1
3.956277148E0,4.453641176E-1,5.245366573E0,1.123310566E1,1.240543762E1
3.958663919E0,4.980062246E-1,5.183153152E0,1.121874905E1,1.236824227E1
3.961050638E0,5.578267574E-1,5.128118038E0,1.122353458E1,1.235218579E1
3.963437409E0,6.200401783E-1,5.065904617E0,1.124267673E1,1.234688704E1
3.965824128E0,6.846463680E-1,5.013262749E0,1.123549843E1,1.232225503E1
3.968210898E0,7.420741320E-1,4.948656559E0,1.126660538E1,1.232786569E1
3.970597617E0,8.114659786E-1,4.888835907E0,1.126660538E1,1.230835449E1
3.972984388E0,8.476574421E-1,4.821836948E0,1.125224876E1,1.227117504E1
3.975371107E0,8.931210637E-1,4.764110088E0,1.127139091E1,1.226941984E1
3.977757878E0,9.505487680E-1,4.721039295E0,1.124746323E1,1.223508006E1
3.980144596E0,9.936196208E-1,4.649254322E0,1.123310566E1,1.219776654E1
3.982531367E0,1.024726272E0,4.584648132E0,1.119003487E1,1.213614200E1
3.984918086E0,1.051047325E0,4.508078098E0,1.116849995E1,1.208978328E1
3.987304857E0,1.079761267E0,4.443471432E0,1.112542915E1,1.202852845E1
3.989691575E0,1.084546804E0,4.378865242E0,1.107518005E1,1.195869206E1
3.992078346E0,1.079761267E0,4.290330887E0,1.104168034E1,1.189502115E1
3.994465065E0,1.053440213E0,4.244867325E0,1.098903847E1,1.182740890E1
3.996851836E0,1.015154958E0,4.191926003E0,1.093848991E1,1.175811825E1
3.999238555E0,9.720842242E-1,4.132105827E0,1.088345432E1,1.168198717E1
4.001625325E0,9.194421172E-1,4.089034557E0,1.081406307E1,1.159782469E1
4.004012044E0,8.500502706E-1,4.033999920E0,1.073031425E1,1.149501565E1
4.006398815E0,7.564310431E-1,4.029214382E0,1.063460159E1,1.139743425E1
4.008785534E0,6.631109715E-1,3.993321896E0,1.051256752E1,1.126500829E1
4.011172305E0,5.602195859E-1,3.978965044E0,1.038574791E1,1.113596733E1
4.013559023E0,4.549354017E-1,3.976572037E0,1.023470020E1,1.098950316E1
4.015945742E0,3.616153300E-1,3.971786499E0,1.010548782E1,1.086401113E1
4.018332513E0,2.656033039E-1,3.986143351E0,9.971489906E0,1.074199678E1
4.020719232E0,1.579262912E-1,4.005286217E0,9.830313683E0,1.061613515E1
4.023106003E0,8.135596663E-2,4.017250061E0,9.700801849E0,1.050002254E1
4.025492721E0,-1.674975827E-2,4.050749779E0,9.554840088E0,1.037804526E1
4.027879492E0,-1.004985496E-1,4.077070713E0,9.404091835E0,1.025034384E1
4.030266211E0,-1.627119333E-1,4.105784416E0,9.262915611E0,1.013338771E1
4.032652982E0,-1.914258152E-1,4.139284134E0,9.121439934E0,1.001853200E1
4.035039700E0,-2.129612118E-1,4.167997837E0,8.973084450E0,9.896150918E0
4.037426471E0,-2.560320199E-1,4.213760853E0,8.827122688E0,9.784652670E0
4.039813190E0,-2.536391914E-1,4.261617184E0,8.709874153E0,9.699877402E0
4.042199961E0,-2.632105052E-1,4.266402721E0,8.585148811E0,9.590425020E0
4.044586680E0,-2.392822653E-1,4.297509670E0,8.441578865E0,9.475552707E0
4.046973450E0,-2.057827413E-1,4.388436794E0,8.312366486E0,9.401923241E0
