"Time (s)","Acceleration x (m/s^2)","Acceleration y (m/s^2)","Acceleration z (m/s^2)","Absolute acceleration (m/s^2)"
3.576559000E-2,-1.709372640E0,3.528815269E0,8.010572433E0,8.918731005E0
3.815204900E-2,-1.690230131E0,3.500101328E0,7.917252064E0,8.819890444E0
4.053855900E-2,-1.651944876E0,3.476173162E0,7.838288784E0,8.732208930E0
4.292507000E-2,-1.601695657E0,3.459423304E0,7.785646915E0,8.668871695E0
4.531158000E-2,-1.539482236E0,3.457030535E0,7.747361660E0,8.622220037E0
4.769809000E-2,-1.467697620E0,3.466601849E0,7.733004570E0,8.600629300E0
5.008460100E-2,-1.393221021E0,3.478565931E0,7.735397339E0,8.595222961E0
5.247111100E-2,-1.316650629E0,3.488137245E0,7.754539967E0,8.604275705E0
5.485757000E-2,-1.237687469E0,3.500101328E0,7.785646915E0,8.625478391E0
5.724408000E-2,-1.149153113E0,3.512065411E0,7.831110477E0,8.659182850E0
5.963059000E-2,-1.055832982E0,3.531208038E0,7.878966808E0,8.698409709E0
6.201710100E-2,-9.625129104E-1,3.559921980E0,7.936394691E0,8.751333402E0
6.440361100E-2,-8.811569214E-1,3.593421459E0,8.008178711E0,8.821566843E0
6.679012200E-2,-8.162516356E-1,3.629313707E0,8.091927528E0,8.906035922E0
6.917663200E-2,-7.683951855E-1,3.663112402E0,8.183154106E0,8.998490693E0
7.156314300E-2,-7.444669604E-1,3.691826344E0,8.271688461E0,9.088709634E0
7.394965300E-2,-7.516453862E-1,3.718147278E0,8.345866203E0,9.167500894E0
7.633611100E-2,-7.899305820E-1,3.739682674E0,8.398508072E0,9.227359030E0
7.872262200E-2,-8.572286963E-1,3.754039526E0,8.429615021E0,9.267473399E0
8.110913200E-2,-9.481559992E-1,3.756432533E0,8.422436714E0,9.270772642E0
8.349564300E-2,-1.053440213E0,3.742075443E0,8.369794846E0,9.228560595E0
8.588215300E-2,-1.173081279E0,3.720540047E0,8.288438797E0,9.160608911E0
8.826866300E-2,-1.314257860E0,3.660719633E0,8.142476082E0,9.023749703E0
9.065517400E-2,-1.443769336E0,3.593421459E0,7.965108395E0,8.856641543E0
9.304168400E-2,-1.544267893E0,3.526422262E0,7.807182312E0,8.704740832E0
9.542814300E-2,-1.613659739E0,3.471387386E0,7.642077446E0,8.547267156E0
9.781465300E-2,-1.663909078E0,3.425923824E0,7.481459141E0,8.395104427E0
1.002011630E-1,-1.685444474E0,3.390031576E0,7.321139812E0,8.242094717E0
1.025876740E-1,-1.680658817E0,3.361317635E0,7.163213730E0,8.089171851E0
1.049741840E-1,-1.654337764E0,3.346960783E0,7.022037029E0,7.952860112E0
1.073606950E-1,-1.611266971E0,3.344567776E0,6.897311211E0,7.832957091E0
1.097472050E-1,-1.556231976E0,3.349353552E0,6.789634228E0,7.729111212E0
1.121337150E-1,-1.491625786E0,3.354139090E0,6.703492641E0,7.642775027E0
1.145201740E-1,-1.407876968E0,3.351746321E0,6.636493683E0,7.566992095E0
1.169066840E-1,-1.299900889E0,3.320639610E0,6.540780544E0,7.449711395E0
1.192931950E-1,-1.161117196E0,3.263211966E0,6.439982891E0,7.312326929E0
1.216797050E-1,-9.984052777E-1,3.220141172E0,6.401698112E0,7.235182167E0
1.240662150E-1,-8.234301209E-1,3.198605776E0,6.416054726E0,7.216292283E0
1.264527260E-1,-6.631109715E-1,3.205784082E0,6.476174355E0,7.256555796E0
1.288392360E-1,-5.386841893E-1,3.251247883E0,6.574280262E0,7.354043406E0
1.312257470E-1,-4.668995142E-1,3.320639610E0,6.698707104E0,7.491149407E0
1.336122570E-1,-4.501497746E-1,3.413959742E0,6.851847649E0,7.668479128E0
1.359987150E-1,-4.980062246E-1,3.528815269E0,7.022037029E0,7.874614368E0
1.383852260E-1,-6.152545214E-1,3.655933857E0,7.203891754E0,8.101879220E0
1.407717360E-1,-8.234301209E-1,3.775574923E0,7.376174927E0,8.327121934E0
1.431582470E-1,-1.089332461E0,3.888037682E0,7.536494255E0,8.549984087E0
1.455447570E-1,-1.393221021E0,3.993321896E0,7.675576687E0,8.763684274E0
1.479312680E-1,-1.716551185E0,4.091427803E0,7.790432453E0,8.965331407E0
1.503177780E-1,-2.030309916E0,4.179962158E0,7.886145115E0,9.153443438E0
1.527042360E-1,-2.324627161E0,4.256831646E0,7.965108395E0,9.325634501E0
1.550907470E-1,-2.597707987E0,4.321437836E0,8.022536278E0,9.475441946E0
1.574772570E-1,-2.848954439E0,4.374079704E0,8.058428764E0,9.601426394E0
1.598637680E-1,-3.078665495E0,4.412364960E0,8.075178146E0,9.703383320E0
1.622502780E-1,-3.291925669E0,4.436293125E0,8.072785378E0,9.781990342E0
1.646367880E-1,-3.459423304E0,4.448257446E0,8.065607071E0,9.839137225E0
1.670232990E-1,-3.586242914E0,4.441078663E0,8.053643227E0,9.871448078E0
1.694098090E-1,-3.665505171E0,4.424329281E0,8.060821533E0,9.898861628E0
1.717963200E-1,-3.694219112E0,4.393222332E0,8.094321251E0,9.922988150E0
1.741827780E-1,-3.746861219E0,4.331008911E0,8.115856171E0,9.932961722E0
1.765692880E-1,-3.773182154E0,4.273581028E0,8.152048111E0,9.947677456E0
1.789557990E-1,-3.725325823E0,4.208974838E0,8.233403206E0,9.969074683E0
1.813423090E-1,-3.677469254E0,4.127319813E0,8.281260490E0,9.956797892E0
1.837288200E-1,-3.619742393E0,4.036392689E0,8.302795410E0,9.916219671E0
1.861153300E-1,-3.538386583E0,3.938287020E0,8.324331284E0,9.865332006E0
1.885018400E-1,-3.433102369E0,3.849752426E0,8.336295128E0,9.803091455E0
1.908882990E-1,-3.315854073E0,3.763610840E0,8.341080666E0,9.733102355E0
1.932748090E-1,-3.179463148E0,3.689433336E0,8.348258972E0,9.665109007E0
1.956613200E-1,-3.026023388E0,3.629313707E0,8.367402077E0,9.609482455E0
1.980478300E-1,-2.880061150E0,3.593421459E0,8.393722534E0,9.574027783E0
2.004343400E-1,-2.793919563E0,3.571886063E0,8.396115303E0,9.542489652E0
2.028208510E-1,-2.691028118E0,3.574278831E0,8.432007790E0,9.545462632E0
2.052073610E-1,-2.612065077E0,3.586242914E0,8.458329201E0,9.551301224E0
2.075938720E-1,-2.566601276E0,3.612564087E0,8.484649658E0,9.572217153E0
2.099803820E-1,-2.547458887E0,3.653541088E0,8.530113220E0,9.622927871E0
2.123668400E-1,-2.564208508E0,3.689433336E0,8.589934349E0,9.694021649E0
2.147533510E-1,-2.607279301E0,3.727718592E0,8.659325600E0,9.781498407E0
2.171398610E-1,-2.652743101E0,3.761218071E0,8.740981102E0,9.878692118E0
2.195263720E-1,-2.710170746E0,3.780360699E0,8.827122688E0,9.977687479E0
2.219128820E-1,-2.741277456E0,3.799503326E0,8.939585686E0,1.009291929E1
2.242993930E-1,-2.731706142E0,3.804288864E0,9.061619759E0,1.020038160E1
2.266859030E-1,-2.712563515E0,3.787539244E0,9.159725189E0,1.027638165E1
2.290724130E-1,-2.702992201E0,3.754039526E0,9.231510162E0,1.032568446E1
2.314589240E-1,-2.688635349E0,3.708575964E0,9.284450531E0,1.035293762E1
2.338453820E-1,-2.688635349E0,3.648755312E0,9.320343018E0,1.036392635E1
2.362318930E-1,-2.702992201E0,3.581457376E0,9.332307816E0,1.035494920E1
2.386184030E-1,-2.765205622E0,3.507279873E0,9.303593636E0,1.032008860E1
2.410049130E-1,-2.822633505E0,3.430709362E0,9.274879456E0,1.028398831E1
2.433914240E-1,-2.894418001E0,3.320639610E0,9.219545364E0,1.021784320E1
2.457779340E-1,-2.956631422E0,3.181855917E0,9.188439369E0,1.016333088E1
2.481644450E-1,-2.994916677E0,3.006880760E0,9.207581520E0,1.013856081E1
2.505509030E-1,-3.004487991E0,2.796312332E0,9.279664993E0,1.014684646E1
2.529374130E-1,-3.030808926E0,2.561815739E0,9.382556915E0,1.018729978E1
2.553239240E-1,-2.992523909E0,2.324627161E0,9.535696983E0,1.026102372E1
2.577104340E-1,-2.963809967E0,2.066202402E0,9.669695854E0,1.032261497E1
2.600969450E-1,-2.982952595E0,1.800299883E0,9.777372360E0,1.037960000E1
2.624834550E-1,-3.059522867E0,1.525125384E0,9.868598938E0,1.044394239E1
2.648699650E-1,-3.212962627E0,1.254437327E0,9.926026344E0,1.050822253E1
2.672564760E-1,-3.421138287E0,9.888339639E-1,9.942776680E0,1.056128723E1
2.696429860E-1,-3.614956856E0,7.325028181E-1,9.940383911E0,1.060262730E1
2.720294450E-1,-3.794717550E0,4.956133962E-1,9.926026344E0,1.063821004E1
2.744159550E-1,-3.971786499E0,2.898306549E-1,9.909276962E0,1.067955335E1
2.768024650E-1,-4.136891365E0,1.124626622E-1,9.897313118E0,1.072768964E1
2.791889760E-1,-4.299902439E0,-2.871387079E-2,9.887741089E0,1.078227292E1
2.815754860E-1,-4.436293125E0,-1.196411327E-1,9.894919395E0,1.084455811E1
2.839619970E-1,-4.563112736E0,-1.746760458E-1,9.909276962E0,1.091083312E1
2.863485070E-1,-4.689932346E0,-1.938186288E-1,9.937990189E0,1.099075430E1
2.887350180E-1,-4.817050934E0,-1.818545163E-1,9.964311600E0,1.106908110E1
2.911214760E-1,-4.912764072E0,-1.435693651E-1,9.985847473E0,1.112982537E1
2.935079860E-1,-5.013262749E0,-8.374879509E-2,9.969097137E0,1.115897464E1
2.958944970E-1,-5.111368179E0,-2.392822644E-3,9.897313118E0,1.113925030E1
2.982810070E-1,-5.185545921E0,1.004985496E-1,9.772586823E0,1.106360880E1
3.006675180E-1,-5.278865814E0,2.129612118E-1,9.564411163E0,1.092656111E1
3.030540280E-1,-5.358128071E0,3.352942765E-1,9.294022560E0,1.073316421E1
3.054405380E-1,-5.403591633E0,4.668995142E-1,8.980263710E0,1.049104065E1
3.078270490E-1,-5.389235020E0,6.032904387E-1,8.630612373E0,1.019290358E1
3.102135070E-1,-5.372485161E0,7.420741320E-1,8.259724617E0,9.881159930E0
3.126000180E-1,-5.259723186E0,8.883354068E-1,7.919644833E0,9.548539264E0
3.149865280E-1,-5.025226593E0,1.041476011E0,7.618149281E0,9.185519749E0
3.173730380E-1,-4.807479858E0,1.180259824E0,7.313961506E0,8.831699086E0
3.197595490E-1,-4.539184570E0,1.297508121E0,7.065107822E0,8.497262643E0
3.221460590E-1,-4.156033993E0,1.388435364E0,6.859025955E0,8.139201949E0
3.245325700E-1,-3.739682674E0,1.438983679E0,6.698707104E0,7.805675973E0
3.269190800E-1,-3.442673683E0,1.443769336E0,6.555137634E0,7.543626541E0
3.293055380E-1,-3.160320520E0,1.422233939E0,6.459424496E0,7.330384709E0
3.316920490E-1,-2.908775091E0,1.352542996E0,6.377769470E0,7.139067762E0
3.340785590E-1,-2.786741018E0,1.220937729E0,6.327520370E0,7.020977744E0
3.364650700E-1,-2.846561670E0,1.036690354E0,6.322734833E0,7.011035302E0
3.388515800E-1,-3.098107100E0,8.282157183E-1,6.392126560E0,7.151467740E0
3.412380900E-1,-3.516851187E0,6.128616929E-1,6.528816700E0,7.441054309E0
3.436246010E-1,-4.065106392E0,3.951148391E-1,6.717849731E0,7.861978805E0
3.460111110E-1,-4.663611412E0,1.866401732E-1,6.947560310E0,8.369749114E0
3.483975700E-1,-5.211866856E0,-4.785645287E-3,7.208677292E0,8.895426202E0
3.507840800E-1,-5.628517151E0,-1.770688742E-1,7.445566654E0,9.335310467E0
3.531705900E-1,-5.959025860E0,-3.017947674E-1,7.637291908E0,9.691712799E0
3.555571010E-1,-6.181558132E0,-3.759722710E-1,7.790432453E0,9.952077868E0
3.579436110E-1,-6.200700760E0,-4.214358926E-1,7.941180229E0,1.008407862E1
3.603301220E-1,-6.126523495E0,-4.166502357E-1,8.053643227E0,1.012763826E1
3.627166320E-1,-6.054738522E0,-3.759722710E-1,8.123034477E0,1.013828895E1
3.651031430E-1,-5.944668770E0,-3.281157911E-1,8.192725182E0,1.012756104E1
3.674896010E-1,-5.860620975E0,-2.751746178E-1,8.235795975E0,1.011192042E1
3.698761110E-1,-5.863013744E0,-2.153540403E-1,8.247760773E0,1.012160389E1
3.722626220E-1,-5.906383514E0,-1.698904037E-1,8.223832130E0,1.012648231E1
3.746491320E-1,-5.970989704E0,-1.339980662E-1,8.161619186E0,1.011349105E1
3.770356430E-1,-6.078666687E0,-1.100698411E-1,8.070392609E0,1.010413484E1
3.794221530E-1,-6.176772594E0,-1.100698411E-1,7.981858253E0,1.009329957E1
3.818086630E-1,-6.284449577E0,-1.196411327E-1,7.917252064E0,1.010898119E1
3.841951740E-1,-6.389733791E0,-1.244267747E-1,7.881359577E0,1.014692115E1
3.865816320E-1,-6.485745907E0,-1.004985496E-1,7.886145115E0,1.021108636E1
3.889681430E-1,-6.588637352E0,-4.307080805E-2,7.922037601E0,1.030391562E1
3.913546530E-1,-6.691528320E0,5.982056633E-2,7.984251022E0,1.041769620E1
3.937411630E-1,-6.801598549E0,2.057827413E-1,8.067999840E0,1.055446402E1
3.961276740E-1,-6.902096748E0,3.879363835E-1,8.166404724E0,1.069951402E1
3.985141840E-1,-6.988238335E0,6.080760360E-1,8.254939079E0,1.083278592E1
4.009006950E-1,-7.050751209E0,8.691928387E-1,8.307580948E0,1.093089612E1
4.032871530E-1,-7.115357399E0,1.146760225E0,8.309973717E0,1.099995605E1
4.056736630E-1,-7.182356358E0,1.434198022E0,8.269295692E0,1.104646632E1
4.080601740E-1,-7.256533623E0,1.733300924E0,8.195118904E0,1.108249007E1
4.104466840E-1,-7.345067978E0,2.030309916E0,8.096714020E0,1.111885605E1
4.128331950E-1,-7.476673603E0,2.307877541E0,7.974679470E0,1.117239722E1
4.152197050E-1,-7.646862984E0,2.561815739E0,7.840681553E0,1.124783093E1
4.176062150E-1,-7.850253105E0,2.774776936E0,7.713861942E0,1.135030955E1
4.199927260E-1,-8.063214302E0,2.944667339E0,7.577471256E0,1.145009001E1
4.223792360E-1,-8.269295692E0,3.078665495E0,7.443173885E0,1.154384121E1
4.247656950E-1,-8.446364403E0,3.191427231E0,7.323532581E0,1.162585089E1
4.271522050E-1,-8.566005707E0,3.303889751E0,7.187141895E0,1.165963764E1
4.295387150E-1,-8.621041298E0,3.421138287E0,7.048357964E0,1.164928711E1
4.319252260E-1,-8.623434067E0,3.531208038E0,6.892525673E0,1.159051144E1
4.343117360E-1,-8.599505424E0,3.626920938E0,6.725028038E0,1.150356689E1
4.366982470E-1,-8.568398476E0,3.699004650E0,6.547959328E0,1.140069556E1
4.390847570E-1,-8.554041862E0,3.749253988E0,6.370591164E0,1.130543982E1
4.414712150E-1,-8.566005707E0,3.789932013E0,6.205486298E0,1.123601792E1
4.438577260E-1,-8.613862038E0,3.840181351E0,6.049952984E0,1.120480000E1
4.462442360E-1,-8.697610855E0,3.919144392E0,5.927918911E0,1.123157825E1
4.486307470E-1,-8.819944382E0,4.033999920E0,5.827121258E0,1.131458865E1
4.510172570E-1,-8.968298912E0,4.184747696E0,5.750551224E0,1.144601844E1
4.534037680E-1,-9.123832703E0,4.364508629E0,5.666802406E0,1.159335621E1
4.557902780E-1,-9.265308380E0,4.532006264E0,5.532804012E0,1.170456921E1
4.581767880E-1,-9.396913528E0,4.687539577E0,5.379663467E0,1.179897412E1
4.605632990E-1,-9.514162064E0,4.852943420E0,5.221437931E0,1.188838735E1
4.629497570E-1,-9.614660263E0,5.051547527E0,5.082654476E0,1.199138028E1
4.653362680E-1,-9.698409081E0,5.298008442E0,4.974977493E0,1.211934129E1
4.677227780E-1,-9.779765129E0,5.566303730E0,4.903192520E0,1.227472363E1
4.701092880E-1,-9.866206169E0,5.848656654E0,4.879264355E0,1.246418988E1
4.724957990E-1,-9.954740524E0,6.136094570E0,4.879264355E0,1.267105900E1
4.748823090E-1,-1.005284595E1,6.420840263E0,4.896014214E0,1.289410162E1
4.772688200E-1,-1.015813065E1,6.681957245E0,4.915156841E0,1.311468405E1
4.796553300E-1,-1.025384331E1,6.926024914E0,4.924727917E0,1.331781021E1
4.820417880E-1,-1.033998489E1,7.165606499E0,4.936692238E0,1.351414571E1
4.844282990E-1,-1.041206837E1,7.400103092E0,4.941477776E0,1.369638259E1
4.868148090E-1,-1.047428226E1,7.627720356E0,4.934299469E0,1.386506466E1
4.892013200E-1,-1.052692413E1,7.852645874E0,4.912764072E0,1.402196241E1
4.915878300E-1,-1.057956600E1,8.072785378E0,4.864907742E0,1.416913575E1
4.939743400E-1,-1.063699436E1,8.295617104E0,4.805087090E0,1.431962898E1
4.963608510E-1,-1.070160007E1,8.530113220E0,4.733003139E0,1.448062134E1
4.987473090E-1,-1.078774166E1,8.752944946E0,4.668396950E0,1.465548858E1
5.011338200E-1,-1.089781189E1,8.961120605E0,4.630111694E0,1.484930708E1
5.035203300E-1,-1.103210926E1,9.145368576E0,4.613361835E0,1.505417911E1
5.059068400E-1,-1.118764210E1,9.291629791E0,4.599005222E0,1.525282167E1
5.082933510E-1,-1.133599758E1,9.447162628E0,4.610969067E0,1.546010215E1
5.106798610E-1,-1.146281719E1,9.631410599E0,4.639683247E0,1.567440298E1
5.130663720E-1,-1.157318592E1,9.827920914E0,4.658825874E0,1.588179210E1
5.154528820E-1,-1.168325520E1,1.002173901E1,4.666004181E0,1.608431844E1
5.178393930E-1,-1.179093266E1,1.019402313E1,4.654039860E0,1.626666184E1
5.202258510E-1,-1.188903809E1,1.034237766E1,4.637290478E0,1.642615187E1
5.226123610E-1,-1.196800137E1,1.045753193E1,4.615755081E0,1.654987087E1
5.249988720E-1,-1.203260803E1,1.052213860E1,4.606183529E0,1.663478234E1
5.273853820E-1,-1.208554935E1,1.052692413E1,4.615755081E0,1.667878382E1
5.297718930E-1,-1.211186981E1,1.049581718E1,4.656432629E0,1.668957559E1
5.321584030E-1,-1.210229874E1,1.044556808E1,4.730610371E0,1.667195855E1
5.345449130E-1,-1.205414295E1,1.038574791E1,4.831408024E0,1.662854851E1
5.369314240E-1,-1.199193001E1,1.031127071E1,4.905585289E0,1.655878788E1
5.393178820E-1,-1.194646645E1,1.023948669E1,4.886443138E0,1.647551137E1
5.417043930E-1,-1.187228870E1,1.014855862E1,4.848157883E0,1.635387159E1
5.440909030E-1,-1.175982571E1,1.004566765E1,4.795515537E0,1.619277334E1
5.464774130E-1,-1.161386395E1,9.926026344E0,4.721039295E0,1.599049864E1
5.488639240E-1,-1.142453194E1,9.770194054E0,4.687539577E0,1.574641702E1
5.512504340E-1,-1.124028397E1,9.602696419E0,4.560719967E0,1.547113211E1
5.536369450E-1,-1.107039356E1,9.463912964E0,4.141676903E0,1.514175517E1
5.560234550E-1,-1.084756279E1,9.270093918E0,3.888037682E0,1.478922232E1
5.584099130E-1,-1.061067295E1,9.011369705E0,3.883252144E0,1.445236353E1
5.607964240E-1,-1.038574791E1,8.717052460E0,4.069892406E0,1.415679298E1
5.631829340E-1,-1.017727280E1,8.427222252E0,4.156033993E0,1.385162716E1
5.655694450E-1,-9.988240242E0,8.161619186E0,4.019642830E0,1.351053290E1
5.679559550E-1,-9.789336205E0,7.929215908E0,3.739682674E0,1.314111086E1
5.703424650E-1,-9.588339806E0,7.723433495E0,3.385245800E0,1.276900835E1
5.727289760E-1,-9.392127991E0,7.474280834E0,3.311068296E0,1.245151057E1
5.751154860E-1,-9.188439369E0,7.211070061E0,3.516851187E0,1.219816346E1
5.775019970E-1,-8.994620323E0,6.966702938E0,3.761218071E0,1.198269193E1
5.798884550E-1,-8.791230202E0,6.763313293E0,3.952643871E0,1.177503838E1
5.822749650E-1,-8.592327118E0,6.591030121E0,4.077070713E0,1.157118269E1
5.846614760E-1,-8.386544228E0,6.430411816E0,4.175176620E0,1.136294064E1
5.870479860E-1,-8.147261620E0,6.286842346E0,4.249652863E0,1.113381372E1
5.894344970E-1,-7.895716667E0,6.162415504E0,4.292723656E0,1.089702633E1
5.918210070E-1,-7.675576687E0,6.045167446E0,4.287938118E0,1.066981444E1
5.942075180E-1,-7.481459141E0,5.939883232E0,4.235296249E0,1.044950611E1
5.965939760E-1,-7.311568737E0,5.851049423E0,4.129712582E0,1.023466378E1
5.989804860E-1,-7.167999268E0,5.772086620E0,3.995714664E0,1.003309190E1
6.013669970E-1,-7.103393078E0,5.685945034E0,3.296711445E0,9.677627318E0
6.037535070E-1,-7.062715054E0,5.638088226E0,2.568994284E0,9.395196347E0
6.061400180E-1,-6.993024349E0,5.609374523E0,2.099701881E0,9.207400289E0
6.085265280E-1,-6.921239376E0,5.599802971E0,1.742872238E0,9.071876953E0
6.109130380E-1,-6.851847649E0,5.616552830E0,1.429412484E0,8.974224308E0
6.132995490E-1,-6.770491600E0,5.609374523E0,1.199402332E0,8.873736812E0
6.156860070E-1,-6.729813576E0,5.633302689E0,9.816554785E-1,8.831089255E0
6.180725180E-1,-6.703492641E0,5.659623623E0,8.907282352E-1,8.818250957E0
6.204590280E-1,-6.672386169E0,5.647659779E0,8.258228898E-1,8.780591188E0
6.228455380E-1,-6.624529362E0,5.606981754E0,7.492526174E-1,8.711143045E0
6.252320490E-1,-6.562315941E0,5.530411243E0,7.803592682E-1,8.617331351E0
6.276185590E-1,-6.497709751E0,5.439484119E0,9.026923180E-1,8.521917209E0
6.300050700E-1,-6.401698112E0,5.331807137E0,1.240080357E0,8.423046085E0
6.323915800E-1,-6.305984974E0,5.271687508E0,1.898405671E0,8.435643411E0
6.347780900E-1,-6.210271835E0,5.195116997E0,2.429911375E0,8.453471841E0
6.371645490E-1,-6.114559174E0,5.085047245E0,2.772384167E0,8.422093169E0
6.395510590E-1,-6.014060497E0,4.934299469E0,2.970988512E0,8.327244902E0
6.419375700E-1,-5.944668770E0,4.728217602E0,2.985345364E0,8.161336619E0
6.443240800E-1,-5.882156372E0,4.527220249E0,2.925524712E0,7.978357075E0
6.467105900E-1,-5.805585861E0,4.333401680E0,2.848954439E0,7.784583400E0
6.490971010E-1,-5.743372440E0,4.165605068E0,2.769991398E0,7.616524464E0
6.514836110E-1,-5.681159019E0,4.012464523E0,2.710170746E0,7.464614178E0
6.538700700E-1,-5.630909920E0,3.871287823E0,2.674278498E0,7.337968480E0
6.562565800E-1,-5.614160061E0,3.749253988E0,2.655135870E0,7.254339746E0
6.586430900E-1,-5.650052547E0,3.651148319E0,2.638386011E0,7.225998795E0
6.610296010E-1,-5.726622581E0,3.569493294E0,2.619243383E0,7.238502916E0
6.634161110E-1,-5.834300041E0,3.497708559E0,2.530709028E0,7.257927412E0
6.658026220E-1,-5.944668770E0,3.452244759E0,2.350948334E0,7.265262468E0
6.681891320E-1,-6.066702843E0,3.433102369E0,2.171486616E0,7.301125214E0
6.705756430E-1,-6.186343670E0,3.449851990E0,1.934298038E0,7.342604147E0
6.729621530E-1,-6.243771553E0,3.454637766E0,1.814656854E0,7.362892421E0
6.753486110E-1,-6.255735874E0,3.445066452E0,1.759621978E0,7.355201132E0
6.777351220E-1,-6.265306950E0,3.440280676E0,1.616052628E0,7.328112199E0
6.801216320E-1,-6.258128643E0,3.430709362E0,1.450947881E0,7.282801013E0
6.825081430E-1,-6.217450619E0,3.387638569E0,1.335793257E0,7.205354321E0
6.848946530E-1,-6.150451660E0,3.303889751E0,1.297508121E0,7.101216124E0
6.872811630E-1,-6.093023777E0,3.179463148E0,1.290329576E0,6.992773060E0
6.896676740E-1,-6.040381432E0,3.021237612E0,1.287936807E0,6.875526581E0
6.920541320E-1,-5.978168488E0,2.844168901E0,1.259222865E0,6.738949282E0
6.944406430E-1,-5.918347836E0,2.662314177E0,1.211366415E0,6.601679064E0
6.968271530E-1,-5.886941910E0,2.482553482E0,1.170688510E0,6.495357452E0
6.992136630E-1,-5.848656654E0,2.303091764E0,1.180259824E0,6.395625817E0
7.016001740E-1,-5.803193092E0,2.130808592E0,1.204187989E0,6.298211177E0
7.039866840E-1,-5.805585861E0,1.960619092E0,1.206580877E0,6.245373634E0
7.063731950E-1,-5.812764645E0,1.785943031E0,1.125224829E0,6.184169810E0
7.087597050E-1,-5.908776283E0,1.651944876E0,9.457631707E-1,6.207819828E0
7.111462150E-1,-6.023632050E0,1.568196177E0,7.157530785E-1,6.265435722E0
7.135326740E-1,-6.104988098E0,1.544267893E0,3.807578981E-1,6.308773223E0
7.159191840E-1,-6.224628925E0,1.608874083E0,2.392822644E-3,6.429190213E0
7.183056950E-1,-6.380162239E0,1.735693693E0,-4.238287210E-1,6.625611940E0
7.206922050E-1,-6.550352097E0,1.886441588E0,-8.428717852E-1,6.868493816E0
7.230787150E-1,-6.772884369E0,2.104487419E0,-1.259222865E0,7.203226513E0
7.254652260E-1,-7.034001350E0,2.389233351E0,-1.572981834E0,7.593410489E0
7.278517360E-1,-7.340282440E0,2.702992201E0,-1.833799481E0,8.034222655E0
7.302382470E-1,-7.615756035E0,3.014059305E0,-2.037488461E0,8.440121605E0
7.326247050E-1,-7.919644833E0,3.349353552E0,-2.248056889E0,8.887783934E0
7.350112150E-1,-8.142476082E0,3.744468451E0,-2.415554523E0,9.282018335E0
7.373977260E-1,-8.266902924E0,4.189533234E0,-2.334198475E0,9.557319456E0
7.397842360E-1,-8.458329201E0,4.625326157E0,-2.030309916E0,9.851859382E0
7.421707470E-1,-8.772088051E0,4.982155800E0,-1.683051586E0,1.022761301E1
7.445572570E-1,-9.183652878E0,5.219045162E0,-1.388435364E0,1.065390376E1
7.469437680E-1,-9.681659698E0,5.365306377E0,-1.070189953E0,1.112053747E1
7.493302780E-1,-1.024187946E1,5.386841774E0,-7.492526174E-1,1.159635886E1
7.517167360E-1,-1.083559799E1,5.283651352E0,-4.501497746E-1,1.206357287E1
7.541032470E-1,-1.135513973E1,5.063511848E0,-2.177468538E-1,1.243486085E1
7.564897570E-1,-1.167846966E1,4.709074974E0,-4.785645381E-2,1.259223296E1
7.588762680E-1,-1.177418327E1,4.261617184E0,5.742774159E-2,1.252182378E1
7.612627780E-1,-1.168325520E1,3.773182154E0,1.818545163E-1,1.227877952E1
7.636492880E-1,-1.145803165E1,3.258426189E0,4.692923427E-1,1.192157984E1
7.660357990E-1,-1.115414238E1,2.741277456E0,9.218349457E-1,1.152298893E1
7.684223090E-1,-1.086909771E1,2.250449657E0,1.462911963E0,1.119562058E1
7.708087680E-1,-1.068963623E1,1.793121457E0,2.011167526E0,1.102399211E1
7.731952780E-1,-1.064656544E1,1.378864050E0,2.530709028E0,1.102973752E1
7.755817880E-1,-1.068006516E1,9.840483069E-1,2.982952595E0,1.113239188E1
7.779682990E-1,-1.073509979E1,5.985047817E-1,3.366103172E0,1.126637591E1
7.803548090E-1,-1.082841969E1,2.153540403E-1,3.703790426E0,1.144635810E1
7.827413200E-1,-1.095553875E1,-2.177468538E-1,4.079463482E0,1.169244480E1
7.851278300E-1,-1.116849995E1,-6.583253145E-1,4.551148891E0,1.207815133E1
7.875143400E-1,-1.141735363E1,-1.058225870E0,5.099404335E0,1.254909281E1
7.899007990E-1,-1.158036423E1,-1.410269856E0,5.738586903E0,1.300096444E1
7.922873090E-1,-1.164257812E1,-1.726122379E0,6.449554443E0,1.342109818E1
7.946738200E-1,-1.166889858E1,-2.042274237E0,7.172784805E0,1.384857105E1
7.970603300E-1,-1.168325520E1,-2.329412937E0,7.737790108E0,1.420556273E1
7.994468400E-1,-1.171436214E1,-2.602493763E0,8.271688461E0,1.457463839E1
8.018333510E-1,-1.178853989E1,-2.872882605E0,8.692825317E0,1.492609591E1
8.042198610E-1,-1.197757244E1,-3.085843801E0,8.982656479E0,1.528635964E1
8.066063720E-1,-1.225065327E1,-3.227319479E0,9.217152596E0,1.566684392E1
8.089928820E-1,-1.252104282E1,-3.313461065E0,9.523733139E0,1.607659885E1
8.113793400E-1,-1.270798206E1,-3.370888948E0,9.868598938E0,1.643912849E1
8.137658510E-1,-1.278933811E1,-3.399602890E0,1.017009449E1,1.668997577E1
8.161523610E-1,-1.281087303E1,-3.382853031E0,1.039771175E1,1.684264148E1
8.185388720E-1,-1.281087303E1,-3.306282759E0,1.044796085E1,1.685852483E1
8.209253820E-1,-1.282044506E1,-3.160320520E0,1.024187946E1,1.671070113E1
8.233118930E-1,-1.284197998E1,-2.980559587E0,9.798908234E0,1.642616169E1
8.256984030E-1,-1.278455257E1,-2.832204819E0,9.370592117E0,1.610199259E1
8.280849130E-1,-1.262154102E1,-2.724527597E0,8.934800148E0,1.570213368E1
8.304713720E-1,-1.240857983E1,-2.686242580E0,8.664112091E0,1.537060802E1
8.328578820E-1,-1.221476173E1,-2.719742060E0,8.613862038E0,1.519197223E1
8.352443930E-1,-1.210947704E1,-2.822633505E0,8.740981102E0,1.519906065E1
8.376309030E-1,-1.203739357E1,-2.961417198E0,8.757730484E0,1.517783512E1
8.400174130E-1,-1.198235893E1,-3.105285645E0,8.800801277E0,1.518795008E1
8.424039240E-1,-1.193210888E1,-3.227319479E0,8.839086533E0,1.519606081E1
8.447904340E-1,-1.188425255E1,-3.315854073E0,8.865407944E0,1.519295247E1
8.471769450E-1,-1.183878899E1,-3.363710403E0,8.791230202E0,1.512472151E1
8.495634030E-1,-1.178136158E1,-3.339782238E0,8.601898193E0,1.496486815E1
8.519499130E-1,-1.172393322E1,-3.241676569E0,8.333902359E0,1.474493152E1
8.543364240E-1,-1.167368412E1,-3.107678413E0,8.070392609E0,1.452803507E1
8.567229340E-1,-1.163539886E1,-2.987738132E0,7.878966808E0,1.436618265E1
8.591094450E-1,-1.161864948E1,-2.906382322E0,7.752147198E0,1.426659946E1
8.614959550E-1,-1.162343502E1,-2.865704298E0,7.649255753E0,1.420660467E1
8.638824650E-1,-1.163779163E1,-2.865704298E0,7.514958382E0,1.414655628E1
8.662689760E-1,-1.164257812E1,-2.884846687E0,7.330711365E0,1.405742846E1
8.686554340E-1,-1.162822056E1,-2.892025232E0,7.096214771E0,1.392607581E1
8.710419450E-1,-1.160907841E1,-2.870489836E0,6.847062111E0,1.378015504E1
8.734284550E-1,-1.158514977E1,-2.848954439E0,6.643671989E0,1.365542434E1
8.758149650E-1,-1.155165005E1,-2.844168901E0,6.478567123E0,1.354628169E1
8.782014760E-1,-1.152054405E1,-2.858525753E0,6.344270229E0,1.345896985E1
8.805879860E-1,-1.148195934E1,-2.899203777E0,6.258128643E0,1.339421319E1
8.829744970E-1,-1.143888855E1,-2.927917719E0,6.253343105E0,1.336133127E1
8.853610070E-1,-1.136710358E1,-2.877668381E0,6.308377743E0,1.331494081E1
8.877475180E-1,-1.128574753E1,-2.779562712E0,6.413661957E0,1.327513186E1
8.901339760E-1,-1.122832012E1,-2.664707184E0,6.555137634E0,1.327198804E1
8.925204860E-1,-1.116849995E1,-2.578565598E0,6.789634228E0,1.332229427E1
8.949069970E-1,-1.108953667E1,-2.559422970E0,7.158428192E0,1.344513159E1
8.972935070E-1,-1.101296616E1,-2.604886532E0,7.649255753E0,1.365950112E1
8.996800180E-1,-1.095793152E1,-2.691028118E0,8.231010437E0,1.396665416E1
9.020665280E-1,-1.094088268E1,-2.810669184E0,8.805587769E0,1.432274942E1
9.044530380E-1,-1.097946644E1,-2.959024191E0,9.253045082E0,1.466026435E1
9.068395490E-1,-1.102253723E1,-3.150749207E0,9.576375008E0,1.493755354E1
9.092260070E-1,-1.107518005E1,-3.354139090E0,9.791728973E0,1.515875386E1
9.116125180E-1,-1.116132164E1,-3.552743435E0,9.880562782E0,1.532392272E1
9.139990280E-1,-1.126181984E1,-3.749253988E0,9.942776680E0,1.548367849E1
9.163855380E-1,-1.137428284E1,-3.909573078E0,1.002413273E1,1.565702107E1
9.187720490E-1,-1.144128132E1,-4.045963764E0,1.010548782E1,1.579220140E1
9.211585590E-1,-1.147956657E1,-4.148855209E0,1.017009449E1,1.588786550E1
9.235450700E-1,-1.147478104E1,-4.203890324E0,1.019162941E1,1.591265546E1
9.259315800E-1,-1.123789120E1,-4.333401680E0,1.013659477E1,1.574227183E1
9.283180380E-1,-1.074467087E1,-4.577469826E0,1.004566765E1,1.540508424E1
9.307045490E-1,-1.014377308E1,-4.891228676E0,9.916455269E0,1.500521027E1
9.330910590E-1,-9.588339806E0,-5.231009483E0,9.712766647E0,1.461634552E1
9.354775700E-1,-9.135796547E0,-5.559125423E0,9.423234940E0,1.425356134E1
9.378640800E-1,-8.776873589E0,-5.867799282E0,9.068798065E0,1.391789053E1
9.402505900E-1,-8.494221687E0,-6.148058891E0,8.692825317E0,1.362041270E1
9.426371010E-1,-8.281260490E0,-6.401698112E0,8.321938515E0,1.337219783E1
9.450236110E-1,-8.147261620E0,-6.605386734E0,7.943572998E0,1.315710294E1
9.474101220E-1,-8.053643227E0,-6.751348972E0,7.606184959E0,1.297289219E1
9.497965800E-1,-7.945965767E0,-6.837490559E0,7.354639530E0,1.280548210E1
9.521830900E-1,-7.797610760E0,-6.882954121E0,7.172784805E0,1.263434339E1
9.545696010E-1,-7.606184959E0,-6.940382004E0,6.988238335E0,1.244421259E1
9.569561110E-1,-7.385746002E0,-6.997809887E0,6.763313293E0,1.221724167E1
9.593426220E-1,-7.136892796E0,-7.050751209E0,6.480959892E0,1.194366663E1
9.617291320E-1,-6.866204739E0,-7.089035988E0,6.155237198E0,1.163125719E1
9.641156430E-1,-6.602993965E0,-7.098607540E0,5.748157978E0,1.127080647E1
9.665021530E-1,-6.305984974E0,-7.074679375E0,5.362913609E0,1.088932400E1
9.688886110E-1,-5.913562298E0,-7.072286606E0,4.998905659E0,1.048696880E1
9.712751220E-1,-5.489733219E0,-7.072286606E0,4.644468784E0,1.008590596E1
9.736616320E-1,-5.089832783E0,-7.057929516E0,4.290330887E0,9.701943410E0
9.760481430E-1,-4.728217602E0,-7.034001350E0,3.981357813E0,9.363996301E0
9.784346530E-1,-4.393222332E0,-7.004988194E0,3.751646757E0,9.079929264E0
9.808211630E-1,-4.079463482E0,-6.969096184E0,3.588635683E0,8.836777127E0
9.832076740E-1,-3.787539244E0,-6.930810928E0,3.466601849E0,8.625480973E0
9.855941840E-1,-3.531208038E0,-6.892525673E0,3.368496180E0,8.445300875E0
9.879806430E-1,-3.320639610E0,-6.842276573E0,3.287140131E0,8.285450281E0
9.903671530E-1,-3.157927752E0,-6.784848690E0,3.222533941E0,8.148092073E0
9.927536630E-1,-3.040380239E0,-6.727420807E0,3.184248686E0,8.039996418E0
9.951401740E-1,-2.980559587E0,-6.674778938E0,3.162713289E0,7.964870663E0
9.975266840E-1,-2.970988512E0,-6.646064758E0,3.179463148E0,7.943924434E0
9.999131950E-1,-3.004487991E0,-6.631708145E0,3.265604734E0,7.979390659E0
1.002299705E0,-3.073879719E0,-6.636493683E0,3.378067255E0,8.056247471E0
1.004686215E0,-3.160320520E0,-6.648457527E0,3.483351469E0,8.143914952E0
1.007072674E0,-3.258426189E0,-6.667600155E0,3.555136204E0,8.228804681E0
1.009459184E0,-3.358924866E0,-6.698707104E0,3.583850145E0,8.306565775E0
1.011845695E0,-3.459423304E0,-6.744170666E0,3.569493294E0,8.378110165E0
1.014232205E0,-3.547957659E0,-6.784848690E0,3.512065411E0,8.423584673E0
1.016618715E0,-3.622135162E0,-6.806384087E0,3.411566973E0,8.431222727E0
1.019005226E0,-3.682255030E0,-6.806384087E0,3.270390272E0,8.401268890E0
1.021391736E0,-3.754039526E0,-6.775277138E0,3.093321562E0,8.340613367E0
1.023778247E0,-3.801896095E0,-6.720242500E0,2.894418001E0,8.245830992E0
1.026164757E0,-3.816252947E0,-6.662814617E0,2.655135870E0,8.124446545E0
1.028551215E0,-3.840181351E0,-6.591030121E0,2.382055044E0,7.991423972E0
1.030937726E0,-3.897608995E0,-6.495316982E0,2.118844509E0,7.865748574E0
1.033324236E0,-3.976572037E0,-6.375376701E0,1.872084618E0,7.743594389E0
1.035710747E0,-4.086641788E0,-6.234200478E0,1.628016710E0,7.629962982E0
1.038097257E0,-4.254438877E0,-6.078666687E0,1.386042476E0,7.547950225E0
1.040483768E0,-4.457828522E0,-5.906383514E0,1.175474167E0,7.492619093E0
1.042870278E0,-4.675575256E0,-5.719444275E0,1.003190875E0,7.455161884E0
1.045256788E0,-4.907978535E0,-5.511268616E0,8.452646136E-1,7.428109269E0
1.047643299E0,-5.159224510E0,-5.286044121E0,7.085745931E-1,7.420373168E0
1.050029757E0,-5.417948723E0,-5.058726311E0,5.913262963E-1,7.436030328E0
1.052416268E0,-5.676373482E0,-4.836193562E0,4.980062246E-1,7.473820594E0
1.054802778E0,-5.935097694E0,-4.625326157E0,4.070789516E-1,7.535565007E0
1.057189288E0,-6.215057850E0,-4.429114819E0,3.161516786E-1,7.638321415E0
1.059575799E0,-6.521637917E0,-4.240081787E0,2.488535494E-1,7.782800445E0
1.061962309E0,-6.837490559E0,-4.055535316E0,1.890329868E-1,7.952004610E0
1.064348820E0,-7.151249409E0,-3.895216227E0,1.579262912E-1,8.144815423E0
1.066735330E0,-7.464709282E0,-3.756432533E0,1.196411327E-1,8.357450810E0
1.069121788E0,-7.768897057E0,-3.655933857E0,7.417750359E-2,8.586449566E0
1.071508299E0,-8.056035995E0,-3.576671600E0,1.914258115E-2,8.814344113E0
1.073894809E0,-8.353044510E0,-3.504886866E0,-5.982056633E-2,9.058761672E0
1.076281320E0,-8.623434067E0,-3.435495138E0,-1.268195957E-1,9.283443605E0
1.078667830E0,-8.717052460E0,-3.421138287E0,-1.220339537E-1,9.365152591E0
1.081054340E0,-8.616254807E0,-3.552743435E0,-3.110669367E-2,9.320021482E0
1.083440851E0,-8.501399994E0,-3.787539244E0,9.810572863E-2,9.307463678E0
1.085827309E0,-8.293224335E0,-4.115355968E0,3.520440459E-1,9.264861554E0
1.088213820E0,-7.972286701E0,-4.534399033E0,8.282157183E-1,9.208912591E0
1.090600330E0,-7.625327587E0,-4.996512890E0,1.458126307E0,9.232382910E0
1.092986840E0,-7.313961506E0,-5.439484119E0,1.948654890E0,9.320905336E0
1.095373351E0,-7.041179657E0,-5.836692810E0,2.142772675E0,9.393437531E0
1.097759861E0,-6.835097790E0,-6.167201042E0,2.073380709E0,9.436728143E0
1.100146372E0,-6.713063717E0,-6.432804585E0,1.919941068E0,9.493807086E0
1.102532882E0,-6.703492641E0,-6.641279221E0,1.788335800E0,9.604246364E0
1.104919393E0,-6.835097790E0,-6.796812534E0,1.625623941E0,9.775370869E0
1.107305851E0,-7.148856640E0,-6.887740135E0,1.450947881E0,1.003256523E1
1.109692361E0,-7.261319637E0,-6.995417118E0,1.501197100E0,1.019393036E1
1.112078872E0,-7.287640572E0,-7.136892796E0,1.520339727E0,1.031292280E1
1.114465382E0,-7.419245720E0,-7.246962547E0,1.297508121E0,1.045213856E1
1.116851893E0,-7.450352192E0,-7.342675209E0,1.074975610E0,1.051561694E1
1.119238403E0,-7.589435101E0,-7.402495861E0,7.899305820E-1,1.063110815E1
1.121624913E0,-7.754539967E0,-7.383353233E0,5.626124144E-1,1.072209531E1
1.124011424E0,-7.608577728E0,-7.328318596E0,4.836492836E-1,1.057490544E1
1.126397882E0,-7.462316513E0,-7.242177010E0,3.735794425E-1,1.040552051E1
1.128784393E0,-7.483851910E0,-7.177570820E0,2.225325108E-1,1.037184087E1
1.131170903E0,-7.452745438E0,-7.187141895E0,8.614161611E-2,1.035402548E1
1.133557413E0,-7.301997185E0,-7.287640572E0,-7.896314561E-2,1.031673898E1
1.135943924E0,-7.098607540E0,-7.431210041E0,-2.297109663E-1,1.027939097E1
1.138330434E0,-6.892525673E0,-7.587042332E0,-3.137588799E-1,1.025517265E1
1.140716945E0,-6.698707104E0,-7.742575645E0,-3.448655605E-1,1.024397807E1
1.143103455E0,-6.512066841E0,-7.898109436E0,-3.209373355E-1,1.024158913E1
1.145489965E0,-6.349055767E0,-8.036892891E0,-2.560320199E-1,1.024537500E1
1.147876424E0,-6.224628925E0,-8.142476082E0,-1.722832322E-1,1.025063918E1
1.150262934E0,-6.157629967E0,-8.207082748E0,-1.100698411E-1,1.026083473E1
1.152649445E0,-6.150451660E0,-8.235795975E0,-4.307080805E-2,1.027901970E1
1.155035955E0,-6.181558132E0,-8.209475517E0,-2.392822644E-3,1.027653419E1
1.157422465E0,-6.205486298E0,-8.130212784E0,4.785645287E-3,1.022782690E1
1.159808976E0,-6.210271835E0,-8.003393173E0,-2.153540403E-2,1.013026368E1
1.162195486E0,-6.179165363E0,-7.845467091E0,-4.067798331E-2,9.986745874E0
1.164581997E0,-6.128916264E0,-7.682755470E0,-3.828516230E-2,9.828011596E0
1.166968455E0,-6.112166405E0,-7.531708241E0,-1.435693540E-2,9.699763569E0
1.169354965E0,-6.059524059E0,-7.412067413E0,8.374879509E-2,9.574110352E0
1.171741476E0,-6.009274960E0,-7.349853992E0,2.105683982E-1,9.496108587E0
1.174127986E0,-6.011667728E0,-7.313961506E0,3.233301640E-1,9.473052527E0
1.176514497E0,-6.054738522E0,-7.268497944E0,4.166502357E-1,9.469135037E0
1.178901007E0,-6.152844429E0,-7.208677292E0,4.956133962E-1,9.490424411E0
1.181287518E0,-6.327520370E0,-7.146463871E0,5.434698462E-1,9.560586769E0
1.183673976E0,-6.562315941E0,-7.081857681E0,5.793621540E-1,9.672246855E0
1.186060486E0,-6.727420807E0,-7.055536747E0,7.181459069E-1,9.775199386E0
1.188446997E0,-6.918846607E0,-7.041179657E0,8.282157183E-1,9.906290457E0
1.190833507E0,-7.153642178E0,-7.000202656E0,9.098708034E-1,1.005013923E1
1.193220018E0,-7.225427151E0,-6.961917400E0,1.201795220E0,1.010541455E1
1.195606528E0,-7.203891754E0,-6.971488953E0,1.484447360E0,1.013416492E1
1.197993038E0,-7.223034382E0,-6.978667259E0,1.604088426E0,1.017089583E1
1.200379549E0,-7.211070061E0,-6.973881721E0,1.733300924E0,1.018031875E1
1.202766059E0,-7.156035423E0,-6.993024349E0,1.900798440E0,1.018451114E1
1.205152518E0,-7.127321243E0,-7.004988194E0,2.023131609E0,1.019615757E1
1.207539028E0,-7.141678333E0,-6.969096184E0,2.104487419E0,1.019807523E1
1.209925538E0,-7.184749126E0,-6.885347366E0,2.178664923E0,1.018701179E1
1.212312049E0,-7.234998226E0,-6.760920525E0,2.245664120E0,1.015373099E1
1.214698559E0,-7.287640572E0,-6.600601196E0,2.291127682E0,1.009588566E1
1.217085070E0,-7.333104134E0,-6.411269188E0,2.310270309E0,1.001080105E1
1.219471580E0,-7.373782158E0,-6.210271835E0,2.315055847E0,9.914616642E0
1.221858038E0,-7.397710323E0,-5.997310638E0,2.315055847E0,9.800680410E0
1.224244549E0,-7.419245720E0,-5.769693375E0,2.303091764E0,9.676714337E0
1.226631059E0,-7.445566654E0,-5.535196781E0,2.238485575E0,9.543882013E0
1.229017570E0,-7.495816231E0,-5.286044121E0,2.126022816E0,9.415386154E0
1.231404080E0,-7.526922703E0,-5.049154758E0,2.078166485E0,9.298779763E0
1.233790590E0,-7.538887024E0,-4.860121727E0,2.106880426E0,9.213823630E0
1.236177101E0,-7.548458099E0,-4.725824833E0,2.135594130E0,9.158242316E0
1.238563611E0,-7.553243637E0,-4.654039860E0,2.140379906E0,9.126489062E0
1.240950122E0,-7.560422421E0,-4.634897232E0,2.104487419E0,9.114336335E0
1.243336580E0,-7.565207958E0,-4.644468784E0,2.056631088E0,9.112255109E0
1.245723090E0,-7.569993496E0,-4.680361271E0,2.011167526E0,9.124438502E0
1.248109601E0,-7.569993496E0,-4.742574692E0,1.960619092E0,9.145536805E0
1.250496111E0,-7.562815189E0,-4.826622486E0,1.898405671E0,9.170409059E0
1.252882622E0,-7.548458099E0,-4.924727917E0,1.831406593E0,9.197076429E0
1.255269132E0,-7.514958382E0,-5.030012131E0,1.800299883E0,9.220450162E0
1.257655643E0,-7.462316513E0,-5.132903576E0,1.793121457E0,9.232992550E0
1.260042153E0,-7.407281399E0,-5.242973328E0,1.788335800E0,9.249580097E0
1.262428663E0,-7.359425068E0,-5.360520840E0,1.764407635E0,9.274128277E0
1.264815122E0,-7.316354275E0,-5.468197823E0,1.745265007E0,9.299256811E0
1.267201632E0,-7.275676250E0,-5.566303730E0,1.728515267E0,9.322390635E0
1.269588143E0,-7.237390995E0,-5.657230854E0,1.704586983E0,9.342896025E0
1.271974653E0,-7.201498985E0,-5.724229813E0,1.668694735E0,9.349488580E0
1.274361163E0,-7.167999268E0,-5.769693375E0,1.639980793E0,9.346609660E0
1.276747674E0,-7.141678333E0,-5.800800323E0,1.623231053E0,9.342790422E0
1.279134184E0,-7.108178616E0,-5.815157413E0,1.623231053E0,9.326153442E0
1.281520643E0,-7.077072144E0,-5.819942951E0,1.642373681E0,9.308817185E0
1.283907153E0,-7.050751209E0,-5.819942951E0,1.671087503E0,9.293942221E0
1.286293663E0,-7.026822567E0,-5.831906796E0,1.702194214E0,9.288963204E0
1.288680174E0,-7.014858723E0,-5.851049423E0,1.730908036E0,9.297261150E0
1.291066684E0,-7.019644260E0,-5.877370834E0,1.764407635E0,9.323734647E0
1.293453195E0,-7.031608582E0,-5.906383514E0,1.812264085E0,9.360191589E0
1.295839705E0,-7.057929516E0,-5.939883232E0,1.864906192E0,9.411400372E0
1.298226215E0,-7.079464912E0,-5.980561256E0,1.919941068E0,9.464254334E0
1.300612726E0,-7.096214771E0,-6.040381432E0,1.968096614E0,9.524488238E0
1.302999184E0,-7.110571384E0,-6.116951942E0,1.994417667E0,9.589318449E0
1.305385695E0,-7.124928474E0,-6.207879066E0,2.006381750E0,9.660638488E0
1.307772205E0,-7.144071102E0,-6.289235115E0,1.999203324E0,9.725689907E0
1.310158715E0,-7.158428192E0,-6.351448536E0,1.989632010E0,9.774590949E0
1.312545226E0,-7.172784805E0,-6.387341022E0,1.968096614E0,9.804099728E0
1.314931736E0,-7.182356358E0,-6.394519329E0,1.941476464E0,9.810476602E0
1.317318247E0,-7.191927433E0,-6.377769470E0,1.898405671E0,9.798148178E0
1.319704757E0,-7.187141895E0,-6.341877460E0,1.836192250E0,9.759406761E0
1.322091215E0,-7.179963589E0,-6.291627884E0,1.766800404E0,9.708658107E0
1.324477726E0,-7.199106216E0,-6.248557091E0,1.690230131E0,9.681346700E0
1.326864236E0,-7.227819920E0,-6.222236156E0,1.592124343E0,9.669150092E0
1.329250747E0,-7.242177010E0,-6.215057850E0,1.453340650E0,9.653407220E0
1.331637257E0,-7.258926392E0,-6.219843388E0,1.307079315E0,9.648156324E0
1.334023768E0,-7.285247803E0,-6.229414463E0,1.168295622E0,9.656363433E0
1.336410226E0,-7.313961506E0,-6.236593246E0,1.031904817E0,9.667158620E0
1.338796736E0,-7.333104134E0,-6.238986015E0,9.026923180E-1,9.670274875E0
1.341183247E0,-7.340282440E0,-6.224628925E0,7.707880139E-1,9.655043538E0
1.343569757E0,-7.340282440E0,-6.210271835E0,6.320042610E-1,9.635696755E0
1.345956268E0,-7.364210606E0,-6.193522453E0,4.956133962E-1,9.635193348E0
1.348342778E0,-7.428816795E0,-6.160022736E0,3.664009571E-1,9.657507377E0
1.350729288E0,-7.529315472E0,-6.119344711E0,2.536391914E-1,9.705735624E0
1.353115799E0,-7.654041290E0,-6.078666687E0,1.507478207E-1,9.775339466E0
1.355502309E0,-7.778468132E0,-6.054738522E0,6.221338734E-2,9.857398011E0
1.357888820E0,-7.878966808E0,-6.054738522E0,2.392822644E-3,9.936698760E0
1.360275278E0,-7.967501163E0,-6.071488380E0,-3.589234129E-2,1.001725183E1
1.362661788E0,-8.034500122E0,-6.100202084E0,-3.828516230E-2,1.008796924E1
1.365048299E0,-8.077570915E0,-6.145665646E0,-9.571290575E-3,1.014970195E1
1.367434809E0,-8.108677864E0,-6.195915222E0,3.589234129E-2,1.020496499E1
1.369821320E0,-8.125427246E0,-6.250949860E0,8.614161611E-2,1.025204187E1
1.372207830E0,-8.134998322E0,-6.305984974E0,1.483550072E-1,1.029396199E1
1.374594340E0,-8.134998322E0,-6.363412857E0,2.057827413E-1,1.033022591E1
1.376980851E0,-8.132605553E0,-6.423233509E0,2.608176768E-1,1.036654367E1
1.379367361E0,-8.120641708E0,-6.480959892E0,3.137588799E-1,1.039452296E1
1.381753820E0,-8.120641708E0,-6.543173313E0,3.927220106E-1,1.043609934E1
1.384140330E0,-8.108677864E0,-6.622136593E0,4.549354017E-1,1.047904175E1
1.386526840E0,-8.087141991E0,-6.708278179E0,5.027918816E-1,1.051929947E1
1.388913351E0,-8.056035995E0,-6.789634228E0,5.410770178E-1,1.054948403E1
1.391299861E0,-8.020143509E0,-6.861418724E0,5.769693851E-1,1.057046179E1
1.393686372E0,-7.989036560E0,-6.906882763E0,6.032904387E-1,1.057798157E1
1.396072882E0,-7.977072716E0,-6.933203697E0,6.176473498E-1,1.058699631E1
1.398459393E0,-7.993822098E0,-6.937989235E0,6.200401783E-1,1.060289282E1
1.400845851E0,-8.048856735E0,-6.918846607E0,6.272186637E-1,1.063240031E1
1.403232361E0,-8.123034477E0,-6.894918442E0,6.511468887E-1,1.067462326E1
1.405618872E0,-8.199904442E0,-6.870990276E0,6.942176819E-1,1.072058200E1
1.408005382E0,-8.269295692E0,-6.844669342E0,7.372884750E-1,1.075984870E1
1.410391893E0,-8.317152023E0,-6.803991318E0,7.731808424E-1,1.077344533E1
1.412778403E0,-8.360222816E0,-6.753741741E0,7.995018363E-1,1.077708477E1
1.415164913E0,-8.405686378E0,-6.696314335E0,7.971090674E-1,1.077643596E1
1.417551372E0,-8.455936432E0,-6.650850773E0,7.612167001E-1,1.078499549E1
1.419937882E0,-8.525327682E0,-6.626922131E0,6.774678826E-1,1.081925468E1
1.422324393E0,-8.609076500E0,-6.629314899E0,5.913262963E-1,1.088180504E1
1.424710903E0,-8.695218086E0,-6.669992924E0,5.171487927E-1,1.097101026E1
1.427097413E0,-8.767302513E0,-6.741777897E0,4.525425732E-1,1.106896370E1
1.429483924E0,-8.817551613E0,-6.830312252E0,3.855435550E-1,1.116024309E1
1.431870434E0,-8.843872070E0,-6.914061069E0,3.305086195E-1,1.123065223E1
1.434256945E0,-8.843872070E0,-6.985845566E0,3.041875660E-1,1.127424683E1
1.436643455E0,-8.839086533E0,-7.050751209E0,2.632105052E-1,1.130981092E1
1.439029913E0,-8.841479301E0,-7.096214771E0,2.297109663E-1,1.133934687E1
1.441416424E0,-8.853444099E0,-7.127321243E0,1.890329868E-1,1.136740577E1
1.443802934E0,-8.874979019E0,-7.151249409E0,1.603191197E-1,1.139874216E1
1.446189445E0,-8.898907661E0,-7.165606499E0,1.531406492E-1,1.142628225E1
1.448575955E0,-8.927620888E0,-7.177570820E0,1.603191197E-1,1.145624894E1
1.450962465E0,-8.965906143E0,-7.184749126E0,1.794617027E-1,1.149087897E1
1.453348976E0,-9.013762474E0,-7.182356358E0,2.225325108E-1,1.152751827E1
1.455735486E0,-9.049654961E0,-7.187141895E0,2.799602449E-1,1.155982877E1
1.458121945E0,-9.073583603E0,-7.194320202E0,3.424727321E-1,1.158470760E1
1.460508455E0,-9.087940216E0,-7.201498985E0,4.118646085E-1,1.160266683E1
1.462894965E0,-9.102297783E0,-7.196712971E0,4.740779996E-1,1.161332220E1
1.465281476E0,-9.123832703E0,-7.187141895E0,5.195416212E-1,1.162623135E1
1.467667986E0,-9.154939651E0,-7.172784805E0,5.697908998E-1,1.164415834E1
1.470054497E0,-9.198010445E0,-7.146463871E0,6.200401783E-1,1.166446706E1
1.472441007E0,-9.248259544E0,-7.108178616E0,6.678966284E-1,1.168343245E1
1.474827518E0,-9.301200867E0,-7.062715054E0,7.061817646E-1,1.170012710E1
1.477213976E0,-9.368199348E0,-7.007380962E0,7.444669604E-1,1.172266088E1
1.479600486E0,-9.444769859E0,-6.949953556E0,7.827520967E-1,1.175237138E1
1.481986997E0,-9.518947601E0,-6.892525673E0,8.258228898E-1,1.178130965E1
1.484373507E0,-9.595518112E0,-6.839883327E0,8.835497499E-1,1.181687911E1
1.486760018E0,-9.681659698E0,-6.811169624E0,9.361918569E-1,1.187446931E1
1.489146528E0,-9.763015747E0,-6.830312252E0,9.840483069E-1,1.195566782E1
1.491533038E0,-9.837491989E0,-6.904489517E0,1.031904817E0,1.206287908E1
1.493919549E0,-9.887741089E0,-7.022037029E0,1.094118118E0,1.217676157E1
1.496306007E0,-9.902098656E0,-7.163213730E0,1.192223907E0,1.227943755E1
1.498692518E0,-9.885348320E0,-7.304390430E0,1.319043517E0,1.236180030E1
1.501079028E0,-9.849455833E0,-7.435995579E0,1.474876046E0,1.242904139E1
1.503465538E0,-9.801301003E0,-7.550850868E0,1.644766450E0,1.248143048E1
1.505852049E0,-9.748658180E0,-7.642077446E0,1.821835399E0,1.252025432E1
1.508238559E0,-9.693623543E0,-7.709076405E0,1.984846354E0,1.254335726E1
1.510625070E0,-9.638588905E0,-7.756932735E0,2.135594130E0,1.255520465E1
1.513011580E0,-9.588339806E0,-7.783253670E0,2.269592285E0,1.255652607E1
1.515398090E0,-9.554840088E0,-7.790432453E0,2.398804665E0,1.255946140E1
1.517784549E0,-9.530911446E0,-7.785646915E0,2.523231506E0,1.256269351E1
1.520171059E0,-9.509376526E0,-7.766504288E0,2.640778780E0,1.255868398E1
1.522557570E0,-9.483055115E0,-7.749754429E0,2.753241539E0,1.255258408E1
1.524944080E0,-9.444769859E0,-7.735397339E0,2.853740215E0,1.253729967E1
1.527330590E0,-9.399306297E0,-7.725826263E0,2.935096025E0,1.251599533E1
1.529717101E0,-9.346664429E0,-7.730611801E0,3.002095222E0,1.249540197E1
1.532103611E0,-9.294022560E0,-7.737790108E0,3.049951553E0,1.247214719E1
1.534490122E0,-9.238688469E0,-7.744968891E0,3.081058264E0,1.244310362E1
1.536876632E0,-9.178867340E0,-7.754539967E0,3.100499868E0,1.240957675E1
1.539263090E0,-9.114261627E0,-7.764111042E0,3.117249727E0,1.237208273E1
1.541649601E0,-9.052047729E0,-7.768897057E0,3.124428272E0,1.233115492E1
1.544036111E0,-8.987442017E0,-7.771289825E0,3.143570662E0,1.229020326E1
1.546422622E0,-8.920442581E0,-7.764111042E0,3.169891834E0,1.224352606E1
1.548809132E0,-8.853444099E0,-7.749754429E0,3.198605776E0,1.219316386E1
1.551195643E0,-8.791230202E0,-7.735397339E0,3.215355396E0,1.214333606E1
1.553582153E0,-8.726624489E0,-7.723433495E0,3.217748165E0,1.208963619E1
1.555968611E0,-8.661719322E0,-7.706683636E0,3.205784082E0,1.202894035E1
1.558355122E0,-8.587541580E0,-7.694719315E0,3.172284603E0,1.195901189E1
1.560741632E0,-8.522934914E0,-7.704290867E0,3.124428272E0,1.190624077E1
1.563128143E0,-8.475078583E0,-7.742575645E0,3.069094181E0,1.188249863E1
1.565514653E0,-8.434400558E0,-7.807182312E0,3.018844843E0,1.188295555E1
1.567901163E0,-8.372187614E0,-7.900502205E0,2.982952595E0,1.189157125E1
1.570287674E0,-8.278866768E0,-8.003393173E0,2.980559587E0,1.189443873E1
1.572674184E0,-8.154440880E0,-8.091927528E0,3.009273529E0,1.187560206E1
1.575060695E0,-8.005785942E0,-8.140083313E0,3.064308405E0,1.182131765E1
1.577447153E0,-7.852645874E0,-8.144868851E0,3.129213810E0,1.173860788E1
1.579833663E0,-7.704290867E0,-8.103892326E0,3.186641455E0,1.162685909E1
1.582220174E0,-7.555636406E0,-8.024929047E0,3.229712248E0,1.148556350E1
1.584606684E0,-7.404888630E0,-7.922037601E0,3.248854876E0,1.132016402E1
1.586993195E0,-7.251748085E0,-7.797610760E0,3.239283562E0,1.113029837E1
1.589379705E0,-7.101000309E0,-7.656434059E0,3.208176851E0,1.092417441E1
1.591766215E0,-6.947560310E0,-7.507780075E0,3.165106058E0,1.070762589E1
1.594152726E0,-6.794419765E0,-7.349853992E0,3.095714331E0,1.047701966E1
1.596539184E0,-6.650850773E0,-7.189534664E0,3.009273529E0,1.024592367E1
1.598925695E0,-6.519245148E0,-7.022037029E0,2.918346405E0,1.001630207E1
1.601312205E0,-6.396912098E0,-6.844669342E0,2.822633505E0,9.784541006E0
1.603698715E0,-6.274878502E0,-6.660421848E0,2.736491680E0,9.551110204E0
1.606085226E0,-6.157629967E0,-6.473781586E0,2.655135870E0,9.320729656E0
1.608471736E0,-6.047560215E0,-6.284449577E0,2.576172590E0,9.094171554E0
1.610858247E0,-5.942276001E0,-6.090631008E0,2.506481647E0,8.870675307E0
1.613244757E0,-5.839085579E0,-5.906383514E0,2.446661234E0,8.658316107E0
1.615631215E0,-5.748157978E0,-5.729015827E0,2.394019127E0,8.461339732E0
1.618017726E0,-5.664409637E0,-5.568696499E0,2.348555326E0,8.283213710E0
1.620404236E0,-5.580660820E0,-5.413163185E0,2.307877541E0,8.110019087E0
1.622790747E0,-5.504090309E0,-5.269294739E0,2.276770830E0,7.952619857E0
1.625177257E0,-5.432305813E0,-5.137689114E0,2.262413740E0,7.811805925E0
1.627563768E0,-5.360520840E0,-5.022833824E0,2.267199516E0,7.687928001E0
1.629950278E0,-5.286044121E0,-4.922335148E0,2.283949137E0,7.575491365E0
1.632336788E0,-5.209474087E0,-4.819443703E0,2.322234392E0,7.467156784E0
1.634723299E0,-5.137689114E0,-4.709074974E0,2.396411896E0,7.369805053E0
1.637109757E0,-5.068297386E0,-4.584648132E0,2.494517565E0,7.275249465E0
1.639496268E0,-5.003691196E0,-4.448257446E0,2.616850615E0,7.188311835E0
1.641882778E0,-4.955834866E0,-4.304687977E0,2.753241539E0,7.118354920E0
1.644269288E0,-4.934299469E0,-4.163212299E0,2.887239695E0,7.072185020E0
1.646655799E0,-4.948656559E0,-4.036392689E0,2.994916677E0,7.053452600E0
1.649042309E0,-5.006083965E0,-3.940679789E0,3.066701412E0,7.070678285E0
1.651428820E0,-5.113760948E0,-3.876073599E0,3.114856958E0,7.132799692E0
1.653815330E0,-5.199902534E0,-3.859323740E0,3.124428272E0,7.189952582E0
1.656201788E0,-5.298008442E0,-3.876073599E0,3.131606579E0,7.273224853E0
1.658588299E0,-5.420341492E0,-3.928715706E0,3.145963669E0,7.396755802E0
1.660974809E0,-5.599802971E0,-4.033999920E0,3.165106058E0,7.592683651E0
1.663361320E0,-5.839085579E0,-4.208974838E0,3.191427231E0,7.873728301E0
1.665747830E0,-6.095416546E0,-4.467400074E0,3.236890793E0,8.221266830E0
1.668134340E0,-6.308377743E0,-4.802694321E0,3.306282759E0,8.590285686E0
1.670520851E0,-6.451947212E0,-5.192724228E0,3.413959742E0,8.958076180E0
1.672907361E0,-6.509674072E0,-5.606981754E0,3.571886063E0,9.304432866E0
1.675293872E0,-6.492924213E0,-6.030810356E0,3.758825302E0,9.625876897E0
1.677680330E0,-6.432804585E0,-6.444768906E0,3.969393730E0,9.933383495E0
1.680066840E0,-6.344270229E0,-6.837490559E0,4.187140465E0,1.022414726E1
1.682453351E0,-6.238986015E0,-7.191927433E0,4.405186653E0,1.049068330E1
1.684839861E0,-6.104988098E0,-7.486244678E0,4.613361835E0,1.070503837E1
1.687226372E0,-5.959025860E0,-7.697112083E0,4.788337231E0,1.084821170E1
1.689612882E0,-5.812764645E0,-7.828717709E0,4.939085007E0,1.093030715E1
1.691999393E0,-5.676373482E0,-7.883752346E0,5.049154758E0,1.094845792E1
1.694385903E0,-5.556732178E0,-7.871788502E0,5.130510807E0,1.091624788E1
1.696772361E0,-5.465805054E0,-7.811967850E0,5.173581600E0,1.084747958E1
1.699158872E0,-5.403591633E0,-7.718647480E0,5.173581600E0,1.074905894E1
1.701545382E0,-5.362913609E0,-7.606184959E0,5.132903576E0,1.062833906E1
1.703931893E0,-5.346164227E0,-7.481459141E0,5.061119080E0,1.049612448E1
1.706318403E0,-5.341378212E0,-7.364210606E0,4.951049328E0,1.035735528E1
1.708704913E0,-5.343770981E0,-7.244569778E0,4.797908306E0,1.020096092E1
1.711091424E0,-5.379663467E0,-7.101000309E0,4.615755081E0,1.003345301E1
1.713477934E0,-5.453841209E0,-6.926024914E0,4.426722050E0,9.864586821E0
1.715864445E0,-5.551946640E0,-6.734599113E0,4.218546391E0,9.694073982E0
1.718250903E0,-5.657230854E0,-6.540780544E0,3.988536358E0,9.523365652E0
1.720637413E0,-5.757729530E0,-6.341877460E0,3.763610840E0,9.356047543E0
1.723023924E0,-5.851049423E0,-6.136094570E0,3.555136204E0,9.193771226E0
1.725410434E0,-5.937490463E0,-5.913562298E0,3.382853031E0,9.037018683E0
1.727796945E0,-6.011667728E0,-5.695516109E0,3.246462107E0,8.894861935E0
1.730183455E0,-6.066702843E0,-5.499304771E0,3.131606579E0,8.766652503E0
1.732569965E0,-6.102594852E0,-5.331807137E0,3.049951553E0,8.658639371E0
1.734956476E0,-6.119344711E0,-5.202295303E0,2.990130901E0,8.570363990E0
1.737342986E0,-6.116951942E0,-5.106582642E0,2.949453115E0,8.496679412E0
1.739729445E0,-6.112166405E0,-5.044369221E0,2.908775091E0,8.441872513E0
1.742115955E0,-6.107380867E0,-5.008476734E0,2.868097067E0,8.403030467E0
1.744502465E0,-6.109773636E0,-4.986941338E0,2.817847729E0,8.374913946E0
1.746888976E0,-6.150451660E0,-4.977370262E0,2.762812853E0,8.380656610E0
1.749275486E0,-6.248557091E0,-4.998905659E0,2.705385208E0,8.447048752E0
1.751661997E0,-6.408876419E0,-5.058726311E0,2.643171787E0,8.582002443E0
1.754048507E0,-6.598208427E0,-5.173581600E0,2.564208508E0,8.767979602E0
1.756434965E0,-6.770491600E0,-5.346164227E0,2.477767944E0,8.975542459E0
1.758821476E0,-6.897311211E0,-5.563910961E0,2.405983210E0,9.182524834E0
1.761207986E0,-6.961917400E0,-5.800800323E0,2.367697954E0,9.366086263E0
1.763594497E0,-6.961917400E0,-6.021239281E0,2.360519648E0,9.502403347E0
1.765981007E0,-6.921239376E0,-6.207879066E0,2.382055044E0,9.597682181E0
1.768367518E0,-6.861418724E0,-6.346662998E0,2.425125837E0,9.656108608E0
1.770754028E0,-6.801598549E0,-6.442375660E0,2.484946251E0,9.692311635E0
1.773140538E0,-6.741777897E0,-6.497709751E0,2.557030201E0,9.706194139E0
1.775527049E0,-6.693921566E0,-6.531209469E0,2.640778780E0,9.717972814E0
1.777913507E0,-6.669992924E0,-6.547959328E0,2.736491680E0,9.739248620E0
1.780300018E0,-6.665207386E0,-6.562315941E0,2.829811811E0,9.772247177E0
1.782686528E0,-6.665207386E0,-6.581458569E0,2.892025232E0,9.803284977E0
1.785073038E0,-6.653243542E0,-6.607779503E0,2.954238653E0,9.831374553E0
1.787459549E0,-6.629314899E0,-6.629314899E0,3.023630619E0,9.850785461E0
1.789846059E0,-6.602993965E0,-6.638886452E0,3.026023388E0,9.840282525E0
1.792232570E0,-6.581458569E0,-6.617351055E0,2.939881802E0,9.785082365E0
1.794619080E0,-6.569494724E0,-6.552744865E0,2.810669184E0,9.695183725E0
1.797005590E0,-6.567101955E0,-6.442375660E0,2.674278498E0,9.580333904E0
1.799392049E0,-6.576673031E0,-6.286842346E0,2.540280342E0,9.446165310E0
1.801778559E0,-6.602993965E0,-6.097809315E0,2.415554523E0,9.306863671E0
1.804165070E0,-6.636493683E0,-5.889334679E0,2.310270309E0,9.168678218E0
1.806551580E0,-6.679564476E0,-5.673980713E0,2.226521492E0,9.042568035E0
1.808938090E0,-6.720242500E0,-5.463412285E0,2.154736757E0,8.924876669E0
1.811324601E0,-6.744170666E0,-5.262115955E0,2.070987940E0,8.801289300E0
1.813711111E0,-6.756134510E0,-5.068297386E0,1.992024899E0,8.677623817E0
1.816097622E0,-6.753741741E0,-4.896014214E0,1.924726725E0,8.560873533E0
1.818484132E0,-6.744170666E0,-4.749752998E0,1.869691849E0,8.458116760E0
1.820870590E0,-6.727420807E0,-4.618147850E0,1.821835399E0,8.360894958E0
1.823257101E0,-6.703492641E0,-4.505684853E0,1.783550143E0,8.271581511E0
1.825643611E0,-6.669992924E0,-4.412364960E0,1.759621978E0,8.188653103E0
1.828030122E0,-6.626922131E0,-4.347758770E0,1.747657895E0,8.116243673E0
1.830416632E0,-6.583851337E0,-4.309473515E0,1.754836321E0,8.062140592E0
1.832803143E0,-6.535995007E0,-4.297509670E0,1.766800404E0,8.019314419E0
1.835189653E0,-6.485745907E0,-4.311866283E0,1.773978829E0,7.987746347E0
1.837576163E0,-6.432804585E0,-4.345366001E0,1.769193292E0,7.961986273E0
1.839962622E0,-6.384948254E0,-4.402793884E0,1.764407635E0,7.953948233E0
1.842349132E0,-6.339484692E0,-4.474578381E0,1.752443433E0,7.954996909E0
1.844735643E0,-6.296413898E0,-4.563112736E0,1.745265007E0,7.969490308E0
1.847122153E0,-6.262914181E0,-4.668396950E0,1.745265007E0,8.003997380E0
1.849508663E0,-6.236593246E0,-4.781158924E0,1.752443433E0,8.051436764E0
1.851895174E0,-6.217450619E0,-4.900799751E0,1.759621978E0,8.109919846E0
1.854281684E0,-6.207879066E0,-5.022833824E0,1.776371717E0,8.180594025E0
1.856668195E0,-6.205486298E0,-5.142475128E0,1.788335800E0,8.255377373E0
1.859054705E0,-6.205486298E0,-5.254937649E0,1.809871197E0,8.330550020E0
1.861441215E0,-6.205486298E0,-5.365306377E0,1.836192250E0,8.406317547E0
1.863827674E0,-6.203093529E0,-5.458626747E0,1.864906192E0,8.470705425E0
1.866214184E0,-6.193522453E0,-5.544768333E0,1.888834357E0,8.524779849E0
1.868600695E0,-6.176772594E0,-5.614160061E0,1.910369754E0,8.562758053E0
1.870987205E0,-6.155237198E0,-5.676373482E0,1.927119493E0,8.591970112E0
1.873373715E0,-6.136094570E0,-5.733801365E0,1.934298038E0,8.617983730E0
1.875760226E0,-6.128916264E0,-5.781657696E0,1.934298038E0,8.644807064E0
1.878146736E0,-6.140880108E0,-5.815157413E0,1.924726725E0,8.673582720E0
1.880533247E0,-6.162415504E0,-5.843871117E0,1.900798440E0,8.702828804E0
1.882919705E0,-6.198307991E0,-5.870192051E0,1.867298961E0,8.738705973E0
1.885306215E0,-6.238986015E0,-5.896812439E0,1.819442511E0,8.775403950E0
1.887692726E0,-6.286842346E0,-5.927918911E0,1.764407635E0,8.819169099E0
1.890079236E0,-6.332305908E0,-5.963811398E0,1.697408557E0,8.862637322E0
1.892465747E0,-6.368198395E0,-5.992525101E0,1.630409479E0,8.895085325E0
1.894852257E0,-6.372983932E0,-5.990132332E0,1.577767372E0,8.887404539E0
1.897238768E0,-6.346662998E0,-5.959025860E0,1.532303810E0,8.839574389E0
1.899625278E0,-6.313163280E0,-5.908776283E0,1.498804331E0,8.775880708E0
1.902011788E0,-6.274878502E0,-5.843871117E0,1.470090389E0,8.699775606E0
1.904398299E0,-6.238986015E0,-5.784050465E0,1.441376567E0,8.628890582E0
1.906784757E0,-6.150451660E0,-5.695516109E0,1.438983679E0,8.505153344E0
1.909171268E0,-6.011667728E0,-5.578267574E0,1.443769336E0,8.327165658E0
1.911557778E0,-5.867799282E0,-5.480162144E0,1.415055513E0,8.152645438E0
1.913944288E0,-5.726622581E0,-5.422734261E0,1.342971683E0,8.000239121E0
1.916330799E0,-5.592624664E0,-5.408377171E0,1.247258782E0,7.879317783E0
1.918717309E0,-5.472983360E0,-5.432305813E0,1.151545882E0,7.796765434E0
1.921103820E0,-5.384449005E0,-5.489733219E0,1.060618639E0,7.762369084E0
1.923490330E0,-5.302793980E0,-5.592624664E0,9.912267923E-1,7.770431467E0
1.925876788E0,-5.164010525E0,-5.772086620E0,9.672985673E-1,7.805104430E0
1.928263299E0,-5.034798145E0,-5.970989704E0,9.481559992E-1,7.867713150E0
1.930649809E0,-4.951049328E0,-6.136094570E0,9.026923180E-1,7.935956114E0
1.933036320E0,-4.953442097E0,-6.157629967E0,7.492526174E-1,7.938159415E0
1.935422830E0,-5.058726311E0,-6.088238239E0,5.841478109E-1,7.937164822E0
1.937809340E0,-5.252544880E0,-6.047560215E0,5.195416212E-1,8.026963047E0
1.940195851E0,-5.513661385E0,-6.057131290E0,5.362913609E-1,8.208343911E0
1.942582361E0,-5.817550182E0,-6.093023777E0,5.745765567E-1,8.443871570E0
1.944968872E0,-6.148058891E0,-6.167201042E0,6.320042610E-1,8.731118268E0
1.947355382E0,-6.488138676E0,-6.317949295E0,7.181459069E-1,9.084501104E0
1.949741840E0,-6.820741177E0,-6.519245148E0,8.210372925E-1,9.470858975E0
1.952128351E0,-7.153642178E0,-6.775277138E0,9.002995491E-1,9.893913077E0
1.954514861E0,-7.464709282E0,-7.053143978E0,9.696913958E-1,1.031547508E1
1.956901372E0,-7.761718273E0,-7.347461224E0,1.012762189E0,1.073569487E1
1.959287882E0,-8.048856735E0,-7.675576687E0,9.864411354E-1,1.116564545E1
1.961674393E0,-8.242975235E0,-7.960322857E0,9.409775138E-1,1.149777454E1
1.964060903E0,-8.341080666E0,-8.185546875E0,8.907282352E-1,1.172050345E1
1.966447413E0,-8.372187614E0,-8.376973152E0,8.066803217E-1,1.187088614E1
1.968833924E0,-8.302795410E0,-8.496614456E0,7.301099896E-1,1.190218171E1
1.971220382E0,-8.175975800E0,-8.585148811E0,6.559324861E-1,1.187356761E1
1.973606893E0,-7.996214867E0,-8.635397911E0,5.913262963E-1,1.178385404E1
1.975993403E0,-7.785646915E0,-8.621041298E0,5.386841893E-1,1.162879321E1
1.978379913E0,-7.543672562E0,-8.518149376E0,5.171487927E-1,1.139005300E1
1.980766424E0,-7.297211647E0,-8.372187614E0,5.099703074E-1,1.111768380E1
1.983152934E0,-7.060322285E0,-8.219046593E0,5.434698462E-1,1.084878966E1
1.985539445E0,-6.818347931E0,-8.046463966E0,6.008976102E-1,1.056392582E1
1.987925955E0,-6.571887493E0,-7.895716667E0,6.750751138E-1,1.029503634E1
1.990312465E0,-6.332305908E0,-7.773682594E0,7.588238716E-1,1.005505111E1
1.992698924E0,-6.100202084E0,-7.680362701E0,8.428717852E-1,9.844331848E0
1.995085434E0,-5.886941910E0,-7.613363266E0,9.050851464E-1,9.666362521E0
1.997471945E0,-5.695516109E0,-7.555636406E0,1.003190875E0,9.514879778E0
1.999858455E0,-5.492125988E0,-7.505387306E0,1.113260746E0,9.366623510E0
2.002244965E0,-5.271687508E0,-7.421638489E0,1.213759303E0,9.183932637E0
2.004631476E0,-5.037190914E0,-7.299604416E0,1.314257860E0,8.965756558E0
2.007017986E0,-4.802694321E0,-7.141678333E0,1.417448282E0,8.722304844E0
2.009404497E0,-4.582255363E0,-6.985845566E0,1.482054472E0,8.485021387E0
2.011791007E0,-4.383651257E0,-6.823133945E0,1.494018674E0,8.246432379E0
2.014177465E0,-4.203890324E0,-6.679564476E0,1.443769336E0,8.023325080E0
2.016563976E0,-4.050749779E0,-6.543173313E0,1.323829174E0,7.808598751E0
2.018950486E0,-3.921537161E0,-6.435197353E0,1.153938770E0,7.623765039E0
2.021336997E0,-3.813860178E0,-6.315556049E0,9.649057388E-1,7.440619649E0
2.023723507E0,-3.725325823E0,-6.188736439E0,7.875377536E-1,7.266273248E0
2.026110018E0,-3.660719633E0,-6.052345753E0,6.559324861E-1,7.103661364E0
2.028496528E0,-3.619742393E0,-5.882156372E0,5.315057039E-1,6.927105954E0
2.030883038E0,-3.600599766E0,-5.678766251E0,4.022932947E-1,6.736062997E0
2.033269549E0,-3.595814228E0,-5.437091351E0,2.751746178E-1,6.524382223E0
2.035656059E0,-3.598206997E0,-5.171188831E0,1.890329868E-1,6.302699500E0
2.038042518E0,-3.595814228E0,-4.900799751E0,1.172483116E-1,6.079594175E0
2.040429028E0,-3.586242914E0,-4.632504463E0,8.614161611E-2,5.859066156E0
2.042815538E0,-3.562314749E0,-4.381258488E0,9.332008660E-2,5.647496874E0
2.045202049E0,-3.524029493E0,-4.151247978E0,1.339980662E-1,5.446980735E0
2.047588559E0,-3.476173162E0,-3.928715706E0,1.938186288E-1,5.249395452E0
2.049975070E0,-3.416352510E0,-3.701397419E0,2.656033039E-1,5.044041281E0
2.052361580E0,-3.344567776E0,-3.471387386E0,3.520440459E-1,4.833280356E0
2.054748090E0,-3.256033421E0,-3.251247883E0,4.334000051E-1,4.621709856E0
2.057134601E0,-3.167499065E0,-3.045166016E0,5.051847100E-1,4.422815617E0
2.059521059E0,-3.081058264E0,-2.851347208E0,5.793621540E-1,4.237777888E0
2.061907570E0,-2.987738132E0,-2.664707184E0,6.487540603E-1,4.055628848E0
2.064294080E0,-2.889632463E0,-2.477767944E0,7.301099896E-1,3.875870271E0
2.066680590E0,-2.769991398E0,-2.276770830E0,8.452646136E-1,3.683885181E0
2.069067101E0,-2.628814697E0,-2.054238319E0,9.888339639E-1,3.479706079E0
2.071453611E0,-2.472982168E0,-1.826620936E0,1.180259824E0,3.293204837E0
2.073840122E0,-2.298306227E0,-1.618445396E0,1.393221021E0,3.137298492E0
2.076226632E0,-2.094916344E0,-1.446162224E0,1.553839207E0,2.982360801E0
2.078613143E0,-1.910369754E0,-1.362114310E0,1.637588024E0,2.861216966E0
2.080999653E0,-1.781157374E0,-1.374078393E0,1.659123421E0,2.795228711E0
2.083386111E0,-1.702194214E0,-1.443769336E0,1.630409479E0,2.764085763E0
2.085772622E0,-1.656730533E0,-1.561017632E0,1.587338686E0,2.775099315E0
2.088159132E0,-1.628016710E0,-1.695015788E0,1.515554070E0,2.796501577E0
2.090545643E0,-1.623231053E0,-1.819442511E0,1.371685624E0,2.797636780E0
2.092932153E0,-1.630409479E0,-1.931905150E0,1.197009563E0,2.797020643E0
2.095318663E0,-1.644766450E0,-2.066202402E0,1.043868899E0,2.839737896E0
2.097705174E0,-1.651944876E0,-2.250449657E0,9.577272534E-1,2.951387305E0
2.100091684E0,-1.642373681E0,-2.449054003E0,9.385846853E-1,3.094543266E0
2.102478195E0,-1.594517231E0,-2.681456804E0,9.840483069E-1,3.271245461E0
2.104864653E0,-1.510768414E0,-2.961417198E0,1.149153113E0,3.517522693E0
2.107251163E0,-1.402792215E0,-3.222533941E0,1.309472203E0,3.750635740E0
2.109637674E0,-1.280758262E0,-3.368496180E0,1.362114310E0,3.852591807E0
2.112024184E0,-1.161117196E0,-3.390031576E0,1.331007600E0,3.822576155E0
2.114410695E0,-1.043868899E0,-3.356531858E0,1.264008522E0,3.735463283E0
2.116797205E0,-9.385846853E-1,-3.277568817E0,1.194616675E0,3.612548624E0
2.119183715E0,-8.476574421E-1,-3.172284603E0,1.072582722E0,3.454322862E0
2.121570226E0,-7.683951855E-1,-3.083451033E0,9.194421172E-1,3.308092387E0
2.123956736E0,-7.013961077E-1,-3.033201694E0,7.683951855E-1,3.206664962E0
2.126343247E0,-6.607181430E-1,-2.975774050E0,6.320042610E-1,3.113070678E0
2.128729705E0,-6.415755749E-1,-2.901596546E0,5.219344497E-1,3.017167099E0
2.131116215E0,-6.296114326E-1,-2.829811811E0,4.525425732E-1,2.934116600E0
2.133502726E0,-6.080760360E-1,-2.779562712E0,4.405784607E-1,2.879207307E0
2.135889236E0,-5.721837282E-1,-2.767598391E0,4.668995142E-1,2.864435412E0
2.138275747E0,-5.171487927E-1,-2.872882605E0,4.980062246E-1,2.961234123E0
2.140662257E0,-4.142574072E-1,-3.071486950E0,4.980062246E-1,3.139052641E0
2.143048768E0,-2.656033039E-1,-3.375674486E0,4.477569461E-1,3.415583352E0
2.145435278E0,-3.828516230E-2,-3.787539244E0,3.975076675E-1,3.808534052E0
2.147821788E0,3.568296731E-1,-4.644468784E0,2.440679073E-1,4.664545728E0
2.150208247E0,1.084546804E0,-6.045167446E0,9.571290575E-3,6.141692180E0
2.152594757E0,2.322234392E0,-8.164011955E0,-2.129612118E-1,8.490536865E0
2.154981268E0,4.146462440E0,-1.121635628E1,-2.656033039E-1,1.196120161E1
2.157367778E0,6.224628925E0,-1.514028645E1,-1.196411327E-1,1.637035714E1
2.159754288E0,8.149654388E0,-1.950718689E1,2.081755698E-1,2.114215089E1
2.162140799E0,9.595518112E0,-2.373261261E1,6.942176819E-1,2.560845187E1
2.164527309E0,1.041924667E1,-2.749861717E1,1.242473125E0,2.943260755E1
2.166913820E0,1.063460159E1,-3.057967567E1,1.838585138E0,3.242825482E1
2.169300330E0,1.046471119E1,-3.285674667E1,2.403590441E0,3.456664909E1
2.171686840E0,1.010070229E1,-3.437200165E1,2.887239695E0,3.594154750E1
2.174073299E0,9.471091270E0,-3.519094467E1,3.222533941E0,3.658536431E1
2.176459809E0,8.781659126E0,-3.565305710E1,3.449851990E0,3.688034024E1
2.178846320E0,8.221439362E0,-3.611248016E1,3.691826344E0,3.722006005E1
2.181232830E0,7.687541008E0,-3.661527252E1,3.923929930E0,3.761879443E1
2.183619340E0,7.034001350E0,-3.699842072E1,4.079463482E0,3.788142464E1
2.186005851E0,6.188736439E0,-3.718506241E1,4.129712582E0,3.792207604E1
2.188392361E0,5.164010525E0,-3.712524033E1,4.069892406E0,3.770297731E1
2.190778872E0,4.031607151E0,-3.680938721E1,3.911965847E0,3.723557868E1
2.193165382E0,2.839383125E0,-3.626113510E1,3.600599766E0,3.654991565E1
2.195551893E0,1.608874083E0,-3.544936752E1,3.076272726E0,3.561894984E1
2.197938351E0,3.999004960E-1,-3.436003494E1,2.334198475E0,3.444155055E1
2.200324861E0,-7.301099896E-1,-3.299313736E1,1.465304732E0,3.303372960E1
2.202711372E0,-1.697408557E0,-3.132204819E1,4.884349108E-1,3.137181007E1
2.205097882E0,-2.446661234E0,-2.938984489E1,-4.645066857E-1,2.949516741E1
2.207484393E0,-2.836990356E0,-2.734069061E1,-1.316650629E0,2.751900155E1
2.209870903E0,-2.959024191E0,-2.525534630E1,-2.032702923E0,2.550921837E1
2.212257413E0,-2.856132984E0,-2.322742844E1,-2.571387053E0,2.354321471E1
2.214643924E0,-2.573779821E0,-2.133620071E1,-2.901596546E0,2.168587250E1
2.217030434E0,-2.161915302E0,-1.961725807E1,-3.023630619E0,1.996629746E1
2.219416945E0,-1.675873160E0,-1.806581116E1,-2.963809967E0,1.838385849E1
2.221803403E0,-1.170688510E0,-1.666541100E1,-2.772384167E0,1.693495052E1
2.224189913E0,-6.726822853E-1,-1.541067505E1,-2.480160713E0,1.562346326E1
2.226576424E0,-1.890329868E-1,-1.429262829E1,-2.133201361E0,1.445217994E1
2.228962934E0,2.608176768E-1,-1.330170155E1,-1.704586983E0,1.341301259E1
2.231349445E0,6.678966284E-1,-1.242054367E1,-1.244866014E0,1.250062728E1
2.233735955E0,1.031904817E0,-1.163539886E1,-7.995018363E-1,1.170839603E1
2.236122465E0,1.340578914E0,-1.093131161E1,-3.640081584E-1,1.101922081E1
2.238508976E0,1.606481314E0,-1.029452133E1,4.785645381E-2,1.041922463E1
2.240895486E0,1.821835399E0,-9.715159416E0,4.286143482E-1,9.893791839E0
2.243281997E0,1.987239242E0,-9.221938133E0,7.540382147E-1,9.463711553E0
2.245668455E0,2.130808592E0,-8.812766075E0,1.048654556E0,9.127150022E0
2.248054965E0,2.231307030E0,-8.439186096E0,1.323829174E0,8.828992961E0
2.250441476E0,2.291127682E0,-8.079963684E0,1.563410521E0,8.542794136E0
2.252827986E0,2.303091764E0,-7.725826263E0,1.752443433E0,8.250071582E0
2.255214497E0,2.281556368E0,-7.388139248E0,1.893620014E0,7.960898050E0
2.257601007E0,2.233700037E0,-7.050751209E0,1.968096614E0,7.653490233E0
2.259987518E0,2.178664923E0,-6.734599113E0,1.984846354E0,7.351259832E0
2.262374028E0,2.140379906E0,-6.488138676E0,1.970489502E0,7.110555428E0
2.264760538E0,2.114058733E0,-6.308377743E0,1.927119493E0,6.926663238E0
2.267146997E0,2.080559254E0,-6.186343670E0,1.855334878E0,6.785413939E0
2.269533507E0,2.051845312E0,-6.114559174E0,1.757229090E0,6.684740619E0
2.271920018E0,2.015953064E0,-6.097809315E0,1.635195136E0,6.627307774E0
2.274306528E0,1.972882271E0,-6.128916264E0,1.494018674E0,6.609687649E0
2.276693038E0,1.922333837E0,-6.200700760E0,1.326221943E0,6.625928006E0
2.279079549E0,1.855334878E0,-6.308377743E0,1.134796143E0,6.672755019E0
2.281466059E0,1.776371717E0,-6.459424496E0,9.337990284E-1,6.763996002E0
2.283852570E0,1.680658817E0,-6.641279221E0,7.253243923E-1,6.888925839E0
2.286239080E0,1.570588946E0,-6.854240417E0,5.027918816E-1,7.049834113E0
2.288625590E0,1.450947881E0,-7.091429234E0,2.584248483E-1,7.242955317E0
2.291012049E0,1.323829174E0,-7.349853992E0,-2.392822644E-3,7.468124471E0
2.293398611E0,1.192223907E0,-7.618149281E0,-2.727817893E-1,7.715698686E0
2.295785070E0,1.055832982E0,-7.898109436E0,-5.721837282E-1,7.988886666E0
2.298171580E0,9.146564603E-1,-8.192725182E0,-8.979067206E-1,8.292380769E0
2.300558090E0,7.612167001E-1,-8.499007225E0,-1.228116274E0,8.620953790E0
2.302944601E0,6.032904387E-1,-8.812766075E0,-1.563410521E0,8.970677661E0
2.305331111E0,4.357928336E-1,-9.140582085E0,-1.898405671E0,9.345806564E0
2.307717622E0,2.656033039E-1,-9.478269577E0,-2.228914261E0,9.740441369E0
2.310104132E0,9.571290761E-2,-9.810872078E0,-2.537887573E0,1.013426096E1
2.312490643E0,-5.264209956E-2,-1.014616585E1,-2.839383125E0,1.053610692E1
2.314877153E0,-1.674975902E-1,-1.047428226E1,-3.126821041E0,1.093232154E1
2.317263611E0,-2.679961324E-1,-1.079013443E1,-3.370888948E0,1.130759547E1
2.319650122E0,-3.305086195E-1,-1.108953667E1,-3.574278831E0,1.165600826E1
2.322036632E0,-3.640081584E-1,-1.135753250E1,-3.751646757E0,1.196665784E1
2.324423143E0,-3.807578981E-1,-1.157079315E1,-3.856930971E0,1.220262870E1
2.326809653E0,-3.855435550E-1,-1.173829079E1,-3.900001764E0,1.237522235E1
2.329196163E0,-3.616153300E-1,-1.187707424E1,-3.909573078E0,1.250921340E1
2.331582674E0,-3.281157911E-1,-1.198953724E1,-3.885644913E0,1.260773174E1
2.333969184E0,-2.799602449E-1,-1.207119179E1,-3.837788343E0,1.266967515E1
2.336355695E0,-2.201396823E-1,-1.211186981E1,-3.756432533E0,1.268292700E1
2.338742205E0,-1.531406492E-1,-1.210229874E1,-3.660719633E0,1.264475998E1
2.341128663E0,-8.374879509E-2,-1.203978634E1,-3.569493294E0,1.255805524E1
2.343515174E0,-1.914258115E-2,-1.189861012E1,-3.457030535E0,1.239065572E1
2.345901684E0,1.674975827E-2,-1.170718384E1,-3.303889751E0,1.216446141E1
2.348288195E0,4.067798331E-2,-1.148195934E1,-3.138785124E0,1.190331958E1
2.350674705E0,6.939185411E-2,-1.124267673E1,-2.975774050E0,1.163003984E1
2.353061215E0,1.004985496E-1,-1.099621677E1,-2.808276415E0,1.134959469E1
2.355447726E0,1.244267747E-1,-1.074945641E1,-2.647957325E0,1.107149371E1
2.357834236E0,1.411765367E-1,-1.048863888E1,-2.496910334E0,1.078267302E1
2.360220747E0,1.507478207E-1,-1.021077251E1,-2.370090723E0,1.048331676E1
2.362607257E0,1.507478207E-1,-9.940383911E0,-2.257628202E0,1.019464773E1
2.364993768E0,1.435693651E-1,-9.667302132E0,-2.164308071E0,9.907652199E0
2.367380226E0,1.316052526E-1,-9.401699066E0,-2.099701881E0,9.634210568E0
2.369766736E0,1.148554832E-1,-9.147761345E0,-2.044667006E0,9.374187568E0
2.372153247E0,1.196411327E-1,-8.896514893E0,-2.015953064E0,9.122848129E0
2.374539757E0,1.220339537E-1,-8.656932831E0,-1.977667928E0,8.880796628E0
2.376926268E0,1.124626622E-1,-8.429615021E0,-1.953440547E0,8.653726782E0
2.379312778E0,9.810572863E-2,-8.216653824E0,-1.919941068E0,8.438554290E0
2.381699288E0,8.853443712E-2,-8.024929047E0,-1.893620014E0,8.245794159E0
2.384085799E0,8.853443712E-2,-7.857431412E0,-1.881655931E0,8.080080184E0
2.386472309E0,8.853443712E-2,-7.699504852E0,-1.893620014E0,7.929439455E0
2.388858820E0,9.332008660E-2,-7.543672562E0,-1.893620014E0,7.778271088E0
2.391245278E0,1.028913707E-1,-7.404888630E0,-1.898405671E0,7.645057642E0
2.393631788E0,1.268195957E-1,-7.275676250E0,-1.917548299E0,7.525193658E0
2.396018299E0,1.555334777E-1,-7.158428192E0,-1.936690807E0,7.417415731E0
2.398404809E0,1.842473447E-1,-7.053143978E0,-1.968096614E0,7.324902139E0
2.400791320E0,2.225325108E-1,-6.949953556E0,-2.001596212E0,7.235866399E0
2.403177830E0,2.632105052E-1,-6.849454880E0,-2.059023857E0,7.157086779E0
2.405564340E0,2.898306549E-1,-6.760920525E0,-2.130808592E0,7.094673594E0
2.407950851E0,3.113660514E-1,-6.684350014E0,-2.200200319E0,7.044030478E0
2.410337361E0,3.544368446E-1,-6.610172749E0,-2.298306227E0,7.007297678E0
2.412723872E0,3.855435550E-1,-6.531209469E0,-2.398804665E0,6.968472198E0
2.415110330E0,4.070789516E-1,-6.457031727E0,-2.494517565E0,6.934088972E0
2.417496840E0,4.381856322E-1,-6.382555485E0,-2.578565598E0,6.897682343E0
2.419883351E0,4.621138871E-1,-6.313163280E0,-2.650350094E0,6.862502129E0
2.422269861E0,4.836492836E-1,-6.246164322E0,-2.726920605E0,6.832611605E0
2.424656372E0,5.003990531E-1,-6.181558132E0,-2.786741018E0,6.799116535E0
2.427042882E0,5.123631358E-1,-6.121737480E0,-2.820240498E0,6.759581512E0
2.429429393E0,5.362913609E-1,-6.069095612E0,-2.839383125E0,6.721876710E0
2.431815903E0,5.841478109E-1,-6.026024818E0,-2.856132984E0,6.694154121E0
2.434202413E0,6.343970895E-1,-5.982954025E0,-2.860918522E0,6.662060742E0
2.436588924E0,6.774678826E-1,-5.939883232E0,-2.846561670E0,6.621486909E0
2.438975434E0,7.181459069E-1,-5.899205208E0,-2.820240498E0,6.578002135E0
2.441361893E0,7.588238716E-1,-5.872584820E0,-2.796312332E0,6.548467668E0
2.443748403E0,7.995018363E-1,-5.851049423E0,-2.789133787E0,6.530945553E0
2.446134913E0,8.500502706E-1,-5.841478348E0,-2.774776936E0,6.522640707E0
2.448521424E0,9.050851464E-1,-5.839085579E0,-2.758027315E0,6.520798585E0
2.450907934E0,9.625129104E-1,-5.841478348E0,-2.750848770E0,6.528129085E0
2.453294445E0,1.005583763E0,-5.848656654E0,-2.748456001E0,6.540030104E0
2.455680955E0,1.041476011E0,-5.853442192E0,-2.736491680E0,6.544909816E0
2.458067465E0,1.072582722E0,-5.858228207E0,-2.734098911E0,6.553210532E0
2.460453976E0,1.094118118E0,-5.870192051E0,-2.741277456E0,6.570452896E0
2.462840434E0,1.110867858E0,-5.882156372E0,-2.755634308E0,6.589940168E0
2.465226945E0,1.118046403E0,-5.896812439E0,-2.777169704E0,6.613251565E0
2.467613455E0,1.118046403E0,-5.913562298E0,-2.805883646E0,6.640273326E0
2.469999965E0,1.108475089E0,-5.930311680E0,-2.841775894E0,6.668808280E0
2.472386476E0,1.089332461E0,-5.951847076E0,-2.884846687E0,6.703243188E0
2.474772986E0,1.067797065E0,-5.980561256E0,-2.939881802E0,6.749089459E0
2.477159497E0,1.039083242E0,-6.016453266E0,-2.994916677E0,6.800509525E0
2.479546007E0,1.005583763E0,-6.052345753E0,-3.059522867E0,6.855856474E0
2.481932518E0,9.672985673E-1,-6.090631008E0,-3.124428272E0,6.913284648E0
2.484319028E0,9.266205430E-1,-6.131309032E0,-3.200998545E0,6.978392921E0
2.486705538E0,8.835497499E-1,-6.176772594E0,-3.279961586E0,7.049207604E0
2.489092049E0,8.353942037E-1,-6.231807709E0,-3.368496180E0,7.133027219E0
2.491478507E0,7.899305820E-1,-6.289235115E0,-3.447459221E0,7.215500242E0
2.493865018E0,7.420741320E-1,-6.349055767E0,-3.526422262E0,7.300468281E0
2.496251528E0,6.918248534E-1,-6.408876419E0,-3.607778311E0,7.387041554E0
2.498638038E0,6.343970895E-1,-6.473781586E0,-3.689433336E0,7.478250198E0
2.501024549E0,5.769693851E-1,-6.535995007E0,-3.763610840E0,7.564184751E0
2.503411059E0,5.123631358E-1,-6.600601196E0,-3.830610037E0,7.648792414E0
2.505797570E0,4.429712892E-1,-6.658029079E0,-3.897608995E0,7.727673043E0
2.508184080E0,3.759722710E-1,-6.713063717E0,-3.959822416E0,7.802997705E0
2.510570590E0,3.113660514E-1,-6.770491600E0,-4.005286217E0,7.872663018E0
2.512957101E0,2.488535494E-1,-6.827919483E0,-4.045963764E0,7.940543768E0
2.515343559E0,1.938186288E-1,-6.887740135E0,-4.089034557E0,8.012411213E0
2.517730070E0,1.411765367E-1,-6.945167542E0,-4.122534275E0,8.077782607E0
2.520116580E0,8.853443712E-2,-7.000202656E0,-4.148855209E0,8.137793013E0
2.522503090E0,4.067798331E-2,-7.062715054E0,-4.165605068E0,8.199747814E0
2.524889601E0,-4.785645287E-3,-7.124928474E0,-4.196712017E0,8.269039873E0
2.527276111E0,-5.024927482E-2,-7.187141895E0,-4.218546391E0,8.333886684E0
2.529662622E0,-9.810572863E-2,-7.254140854E0,-4.244867325E0,8.405419851E0
2.532049132E0,-1.459621787E-1,-7.325925827E0,-4.268795490E0,8.480159734E0
2.534435643E0,-1.890329868E-1,-7.397710323E0,-4.302295208E0,8.559882917E0
2.536822153E0,-2.344966233E-1,-7.469494820E0,-4.347758770E0,8.645886181E0
2.539208663E0,-2.703889608E-1,-7.546065331E0,-4.393222332E0,8.735938108E0
2.541595122E0,-3.065803945E-1,-7.634898663E0,-4.457828522E0,8.846349770E0
2.543981632E0,-3.329014480E-1,-7.737790108E0,-4.532006264E0,8.973477581E0
2.546368143E0,-3.496512175E-1,-7.850253105E0,-4.618147850E0,9.114604728E0
2.548754653E0,-3.592225015E-1,-7.977072716E0,-4.716253281E0,9.273929853E0
2.551141163E0,-3.687937856E-1,-8.113463402E0,-4.826622486E0,9.447781848E0
2.553527674E0,-3.735794425E-1,-8.262117386E0,-4.953442097E0,9.640473739E0
2.555914184E0,-3.759722710E-1,-8.420043945E0,-5.073082924E0,9.837411527E0
2.558300695E0,-3.711866140E-1,-8.592327118E0,-5.195116997E0,1.004764178E1
2.560687205E0,-3.664009571E-1,-8.772088051E0,-5.324329376E0,1.026802132E1
2.563073715E0,-3.616153300E-1,-8.965906143E0,-5.456233978E0,1.050184402E1
2.565460226E0,-3.616153300E-1,-9.169296265E0,-5.583053589E0,1.074138013E1
2.567846684E0,-3.640081584E-1,-9.392127991E0,-5.709873199E0,1.099760074E1
2.570233195E0,-3.568296731E-1,-9.626625061E0,-5.846263885E0,1.126845326E1
2.572619705E0,-3.496512175E-1,-9.870991707E0,-5.982954025E0,1.154792068E1
2.575006215E0,-3.496512175E-1,-1.013180923E1,-6.112166405E0,1.183783732E1
2.577392726E0,-3.640081584E-1,-1.040249729E1,-6.227021694E0,1.212931371E1
2.579779236E0,-3.855435550E-1,-1.067767239E1,-6.334698677E0,1.242134207E1
2.582165747E0,-4.046861231E-1,-1.095314598E1,-6.428019047E0,1.270647892E1
2.584552257E0,-4.214358926E-1,-1.122832012E1,-6.509674072E0,1.298570897E1
2.586938768E0,-4.429712892E-1,-1.150110245E1,-6.571887493E0,1.325372726E1
2.589325278E0,-4.812564552E-1,-1.176221848E1,-6.622136593E0,1.350681622E1
2.591711788E0,-5.386841893E-1,-1.200628662E1,-6.641279221E0,1.373126683E1
2.594098299E0,-6.032904387E-1,-1.223390388E1,-6.634100914E0,1.392995544E1
2.596484757E0,-6.750751138E-1,-1.243729401E1,-6.595815659E0,1.409421132E1
2.598871268E0,-7.516453862E-1,-1.261675549E1,-6.545566559E0,1.423347924E1
2.601257778E0,-8.377870321E-1,-1.275583839E1,-6.473781586E0,1.432910145E1
2.603644288E0,-9.314061999E-1,-1.286112213E1,-6.389733791E0,1.439113192E1
2.606030799E0,-1.024726272E0,-1.293529987E1,-6.308377743E0,1.442801707E1
2.608417309E0,-1.108475089E0,-1.297119236E1,-6.234200478E0,1.443418871E1
2.610803820E0,-1.204187989E0,-1.296879959E1,-6.167201042E0,1.441090560E1
2.613190330E0,-1.295115232E0,-1.292812157E1,-6.107380867E0,1.435666228E1
2.615576840E0,-1.378864050E0,-1.286351585E1,-6.069095612E0,1.429003946E1
2.617963299E0,-1.448554993E0,-1.277258778E1,-6.049952984E0,1.420701380E1
2.620349809E0,-1.498804331E0,-1.266730404E1,-6.045167446E0,1.411563160E1
2.622736320E0,-1.527518153E0,-1.254497051E1,-6.061916828E0,1.401629168E1
2.625122830E0,-1.570588946E0,-1.241097260E1,-6.102594852E0,1.391907520E1
2.627509340E0,-1.620838284E0,-1.226740360E1,-6.157629967E0,1.382145849E1
2.629895851E0,-1.663909078E0,-1.212622738E1,-6.222236156E0,1.373063023E1
2.632282361E0,-1.706979871E0,-1.198714447E1,-6.289235115E0,1.364404233E1
2.634668872E0,-1.750050664E0,-1.185314560E1,-6.356234074E0,1.356323890E1
2.637055382E0,-1.802692771E0,-1.172393322E1,-6.428019047E0,1.349146917E1
2.639441893E0,-1.852941990E0,-1.160668564E1,-6.504888535E0,1.343361903E1
2.641828403E0,-1.910369754E0,-1.149631596E1,-6.574280262E0,1.338043176E1
2.644214913E0,-1.958226204E0,-1.139821053E1,-6.648457527E0,1.334000902E1
2.646601372E0,-1.994417667E0,-1.131924725E1,-6.732206345E0,1.332012246E1
2.648987882E0,-2.030309916E0,-1.125464153E1,-6.827919483E0,1.331951947E1
2.651374393E0,-2.054238319E0,-1.119960594E1,-6.930810928E0,1.332993655E1
2.653760903E0,-2.063809633E0,-1.117089272E1,-7.029215813E0,1.335881841E1
2.656147413E0,-2.066202402E0,-1.115892887E1,-7.127321243E0,1.340110421E1
2.658533924E0,-2.051845312E0,-1.116849995E1,-7.220641613E0,1.345671303E1
2.660920434E0,-2.015953064E0,-1.120199966E1,-7.299604416E0,1.352157860E1
2.663306945E0,-1.960619092E0,-1.125703430E1,-7.373782158E0,1.359917320E1
2.665693455E0,-1.905584097E0,-1.132403278E1,-7.438388348E0,1.368190741E1
2.668079965E0,-1.848156333E0,-1.139342499E1,-7.464709282E0,1.374582480E1
2.670466476E0,-1.735693693E0,-1.145803165E1,-7.359425068E0,1.372808287E1
2.672852934E0,-1.539482236E0,-1.148435211E1,-6.997809887E0,1.353623626E1
2.675239445E0,-1.381256819E0,-1.142692471E1,-6.509674072E0,1.322340104E1
2.677625955E0,-1.326221943E0,-1.130728340E1,-6.148058891E0,1.293878475E1
2.680012465E0,-1.321436286E0,-1.121157074E1,-5.920740604E0,1.274757552E1
2.682398976E0,-1.340578914E0,-1.114696407E1,-5.731408596E0,1.260559417E1
2.684785486E0,-1.359721422E0,-1.109432220E1,-5.449055195E0,1.243483132E1
2.687171997E0,-1.371685624E0,-1.105364418E1,-5.063511848E0,1.223534729E1
2.689558507E0,-1.376471281E0,-1.102732277E1,-4.620540619E0,1.203519490E1
2.691945018E0,-1.354935765E0,-1.101296616E1,-4.196712017E0,1.186312211E1
2.694331528E0,-1.316650629E0,-1.100818062E1,-3.754039526E0,1.170497425E1
2.696718038E0,-1.256830096E0,-1.101057339E1,-3.373281717E0,1.158410021E1
2.699104549E0,-1.161117196E0,-1.105125141E1,-3.110071182E0,1.153910281E1
2.701491007E0,-1.039083242E0,-1.111107159E1,-2.951845884E0,1.154335306E1
2.703877518E0,-8.835497499E-1,-1.118524933E1,-2.865704298E0,1.158027305E1
2.706264028E0,-6.870391965E-1,-1.126660538E1,-2.841775894E0,1.163976416E1
2.708650538E0,-4.405784607E-1,-1.135513973E1,-2.875275612E0,1.172179669E1
2.711037049E0,-1.627119333E-1,-1.144606686E1,-2.959024191E0,1.182348281E1
2.713423559E0,1.339980662E-1,-1.153250790E1,-3.083451033E0,1.193835684E1
2.715810070E0,4.381856322E-1,-1.161147118E1,-3.232105255E0,1.206087782E1
2.718196580E0,7.372884750E-1,-1.167129135E1,-3.380460262E0,1.217333757E1
2.720583090E0,1.024726272E0,-1.171436214E1,-3.512065411E0,1.227236521E1
2.722969601E0,1.287936807E0,-1.173829079E1,-3.626920938E0,1.235316993E1
2.725356111E0,1.537089467E0,-1.174786186E1,-3.703790426E0,1.241341878E1
2.727742622E0,1.771586061E0,-1.174068356E1,-3.744468451E0,1.245002857E1
2.730129080E0,1.977667928E0,-1.171196938E1,-3.754039526E0,1.245689407E1
2.732515590E0,2.147558212E0,-1.165454197E1,-3.744468451E0,1.242825003E1
2.734902101E0,2.303091764E0,-1.157079315E1,-3.708575964E0,1.236693258E1
2.737288611E0,2.451446772E0,-1.146281719E1,-3.658326626E0,1.227962226E1
2.739675122E0,2.588136673E0,-1.132881927E1,-3.571886063E0,1.215725987E1
2.742061632E0,2.707777977E0,-1.117328548E1,-3.464209080E0,1.200729423E1
2.744448143E0,2.803490877E0,-1.099860954E1,-3.320639610E0,1.182605684E1
2.746834653E0,2.872882605E0,-1.079970551E1,-3.162713289E0,1.161420892E1
2.749221163E0,2.918346405E0,-1.058435154E1,-2.978166819E0,1.137605911E1
2.751607674E0,2.935096025E0,-1.035434151E1,-2.779562712E0,1.111544626E1
2.753994132E0,2.935096025E0,-1.011266708E1,-2.549851656E0,1.083432359E1
2.756380643E0,2.920739174E0,-9.863813400E0,-2.307877541E0,1.054285686E1
2.758767153E0,2.889632463E0,-9.617053032E0,-2.042274237E0,1.024736887E1
2.761153663E0,2.839383125E0,-9.361021042E0,-1.754836321E0,9.938322896E0
2.763540174E0,2.781955481E0,-9.104690552E0,-1.453340650E0,9.630517400E0
2.765926684E0,2.717349291E0,-8.851051331E0,-1.149153113E0,9.329825813E0
2.768313195E0,2.659921408E0,-8.613862038E0,-8.428717852E-1,9.054514562E0
2.770699705E0,2.602493763E0,-8.386544228E0,-5.410770178E-1,8.797719148E0
2.773086215E0,2.547458887E0,-8.171190262E0,-2.560320199E-1,8.562911273E0
2.775472726E0,2.492124796E0,-7.972286701E0,2.632104978E-2,8.352768047E0
2.777859236E0,2.437089920E0,-7.792825222E0,2.922234535E-1,8.170246432E0
2.780245747E0,2.391626120E0,-7.632505894E0,5.386841893E-1,8.016558013E0
2.782632205E0,2.353341103E0,-7.488637447E0,7.588238716E-1,7.886299438E0
2.785018715E0,2.315055847E0,-7.361817837E0,9.553344250E-1,7.776150031E0
2.787405226E0,2.283949137E0,-7.258926392E0,1.125224829E0,7.692500694E0
2.789791736E0,2.257628202E0,-7.182356358E0,1.271187067E0,7.635381098E0
2.792178247E0,2.238485575E0,-7.132106781E0,1.378864050E0,7.601251928E0
2.794564757E0,2.233700037E0,-7.105785847E0,1.450947881E0,7.588600537E0
2.796951268E0,2.243271112E0,-7.108178616E0,1.491625786E0,7.601540370E0
2.799337778E0,2.257628202E0,-7.132106781E0,1.522732496E0,7.634300655E0
2.801724288E0,2.283949137E0,-7.175177574E0,1.515554070E0,7.680917980E0
2.804110799E0,2.322234392E0,-7.249355316E0,1.472483277E0,7.753330386E0
2.806497309E0,2.374876499E0,-7.352246761E0,1.402792215E0,7.852604461E0
2.808883820E0,2.432304144E0,-7.483851910E0,1.304686546E0,7.976612679E0
2.811270278E0,2.494517565E0,-7.627720356E0,1.170688510E0,8.110194036E0
2.813656788E0,2.561815739E0,-7.780860901E0,1.024726272E0,8.255589632E0
2.816043299E0,2.631207705E0,-7.941180229E0,8.644071817E-1,8.410279258E0
2.818429809E0,2.698206663E0,-8.106285095E0,6.942176819E-1,8.571704348E0
2.820816320E0,2.760420084E0,-8.274081230E0,5.410770178E-1,8.739170646E0
2.823202830E0,2.820240498E0,-8.446364403E0,3.903291821E-1,8.913315038E0
2.825589340E0,2.882453918E0,-8.618648529E0,2.488535494E-1,9.091290951E0
2.827975851E0,2.937488794E0,-8.786444664E0,1.004985496E-1,9.265017550E0
2.830362361E0,2.987738132E0,-8.939585686E0,-4.067798331E-2,9.425732124E0
2.832748872E0,3.026023388E0,-9.080761909E0,-1.794617027E-1,9.573362048E0
2.835135382E0,3.052344322E0,-9.202795982E0,-3.089732230E-1,9.700707408E0
2.837521893E0,3.073879719E0,-9.313164711E0,-4.429712892E-1,9.817331461E0
2.839908351E0,3.088535786E0,-9.413662910E0,-5.602195859E-1,9.923202541E0
2.842294861E0,3.093321562E0,-9.499805450E0,-6.631109715E-1,1.001272481E1
2.844681372E0,3.081058264E0,-9.576375008E0,-7.348956466E-1,1.008662232E1
2.847067882E0,3.071486950E0,-9.652945518E0,-7.971090674E-1,1.016114030E1
2.849454393E0,3.057130098E0,-9.727123260E0,-8.353942037E-1,1.023038879E1
2.851840903E0,3.035594702E0,-9.794121742E0,-8.500502706E-1,1.028893781E1
2.854227413E0,3.002095222E0,-9.849455833E0,-8.428717852E-1,1.033125301E1
2.856613924E0,2.966202736E0,-9.906884193E0,-8.282157183E-1,1.037451948E1
2.859000434E0,2.920739174E0,-9.959526062E0,-7.899305820E-1,1.040898011E1
2.861386945E0,2.872882605E0,-1.001456070E1,-7.516453862E-1,1.044556610E1
2.863773455E0,2.813062191E0,-1.006720352E1,-6.966105103E-1,1.047602844E1
2.866159965E0,2.748456001E0,-1.012702370E1,-6.200401783E-1,1.051166348E1
2.868546476E0,2.679064035E0,-1.018923664E1,-5.482555032E-1,1.054981097E1
2.870932986E0,2.602493763E0,-1.025384331E1,-4.716851711E-1,1.058946473E1
2.873319445E0,2.525923491E0,-1.032323551E1,-3.903291821E-1,1.063493478E1
2.875705955E0,2.446661234E0,-1.039531898E1,-3.113660514E-1,1.068390176E1
2.878092465E0,2.358126640E0,-1.046231747E1,-2.392822653E-1,1.072744630E1
2.880478976E0,2.264806747E0,-1.052692413E1,-1.651047617E-1,1.076906407E1
2.882865486E0,2.164308071E0,-1.058913708E1,-9.571290761E-2,1.080847882E1
2.885251997E0,2.063809633E0,-1.064656544E1,-3.589234129E-2,1.084481231E1
2.887638507E0,1.958226204E0,-1.070877838E1,1.914258115E-2,1.088636536E1
2.890025018E0,1.852941990E0,-1.077817059E1,6.221338734E-2,1.093646313E1
2.892411528E0,1.742872238E0,-1.084277630E1,1.028913707E-1,1.098243999E1
2.894798038E0,1.628016710E0,-1.090259743E1,1.411765367E-1,1.102438206E1
2.897184549E0,1.508375525E0,-1.095793152E1,1.746760458E-1,1.106263855E1
2.899571059E0,1.393221021E0,-1.101775169E1,2.081755698E-1,1.110744139E1
2.901957518E0,1.287936807E0,-1.112064362E1,2.273181528E-1,1.119728401E1
2.904344028E0,1.199402332E0,-1.124746323E1,2.560320199E-1,1.131413043E1
2.906730538E0,1.091725349E0,-1.135513973E1,2.826521695E-1,1.141100148E1
2.909117049E0,9.672985673E-1,-1.143888855E1,3.137588799E-1,1.148400115E1
2.911503559E0,8.401798606E-1,-1.149392319E1,3.352942765E-1,1.152946637E1
2.913890070E0,7.037889361E-1,-1.152293682E1,3.640081584E-1,1.155014692E1
2.916276580E0,5.602195859E-1,-1.152293682E1,3.951148391E-1,1.154331125E1
2.918663090E0,4.094717801E-1,-1.149392319E1,4.262215197E-1,1.150910953E1
2.921049601E0,2.536391914E-1,-1.143410301E1,4.549354017E-1,1.144596046E1
2.923436111E0,1.004985496E-1,-1.135992527E1,4.740779996E-1,1.137025734E1
2.925822622E0,-4.546362907E-2,-1.127617645E1,4.884349108E-1,1.128684150E1
2.928209132E0,-1.866401732E-1,-1.118046379E1,5.027918816E-1,1.119331965E1
2.930595590E0,-3.305086195E-1,-1.107757282E1,5.147559643E-1,1.109445038E1
2.932982101E0,-4.668995142E-1,-1.096750259E1,5.123631358E-1,1.098938689E1
2.935368611E0,-5.961119533E-1,-1.085474110E1,5.099703074E-1,1.088305212E1
2.937755122E0,-7.157530785E-1,-1.074467087E1,5.027918816E-1,1.078021587E1
2.940141632E0,-8.210372925E-1,-1.062502956E1,4.908277392E-1,1.066800203E1
2.942528143E0,-9.122636318E-1,-1.051017475E1,4.716851711E-1,1.056023130E1
2.944914653E0,-9.888339639E-1,-1.039292622E1,4.501497746E-1,1.044956185E1
2.947301163E0,-1.048654556E0,-1.027298546E1,4.238287210E-1,1.033506349E1
2.949687674E0,-1.096511006E0,-1.016052341E1,3.975076675E-1,1.022724718E1
2.952074184E0,-1.137188911E0,-1.005045319E1,3.687937856E-1,1.012130509E1
2.954460695E0,-1.173081279E0,-9.940383911E0,3.400799036E-1,1.001513886E1
2.956847205E0,-1.201795220E0,-9.830313683E0,3.041875660E-1,9.908173844E0
2.959233715E0,-1.223330617E0,-9.729516029E0,2.608176768E-1,9.809589483E0
2.961620226E0,-1.237687469E0,-9.696016312E0,2.368894368E-1,9.777562027E0
2.964006684E0,-1.223330617E0,-9.717552185E0,2.297109663E-1,9.796944697E0
2.966393195E0,-1.192223907E0,-9.748658180E0,2.225325108E-1,9.823810609E0
2.968779705E0,-1.175474167E0,-9.755837440E0,2.153540403E-1,9.828757859E0
2.971166215E0,-1.173081279E0,-9.727123260E0,1.962114573E-1,9.799568641E0
2.973552726E0,-1.182652593E0,-9.662516594E0,1.555334777E-1,9.735865896E0
2.975939236E0,-1.206580877E0,-9.569196701E0,1.052841991E-1,9.645540300E0
2.978325747E0,-1.235294700E0,-9.456734657E0,4.067798331E-2,9.537160902E0
2.980712257E0,-1.256830096E0,-9.334700584E0,-4.546362907E-2,9.419040494E0
2.983098768E0,-1.278365493E0,-9.221938133E0,-1.483550072E-1,9.311303371E0
2.985485278E0,-1.299900889E0,-9.111868858E0,-2.512463629E-1,9.207552397E0
2.987871788E0,-1.314257860E0,-8.999405861E0,-3.616153300E-1,9.102051704E0
2.990258299E0,-1.319043517E0,-8.894122124E0,-4.740779996E-1,9.003889943E0
2.992644757E0,-1.323829174E0,-8.791230202E0,-5.865406394E-1,8.909673510E0
2.995031268E0,-1.328614831E0,-8.690432549E0,-6.918248534E-1,8.818585877E0
2.997417778E0,-1.333400369E0,-8.587541580E0,-7.971090674E-1,8.726924418E0
2.999804288E0,-1.340578914E0,-8.484649658E0,-8.955138922E-1,8.636456263E0
3.002190799E0,-1.347757339E0,-8.393722534E0,-9.744769931E-1,8.556905588E0
3.004577309E0,-1.350150228E0,-8.312366486E0,-1.053440213E0,8.486935755E0
3.006963820E0,-1.350150228E0,-8.240582466E0,-1.118046403E0,8.424970788E0
3.009350330E0,-1.352542996E0,-8.175975800E0,-1.170688510E0,8.369376585E0
3.011736840E0,-1.357328653E0,-8.118248940E0,-1.213759303E0,8.319947029E0
3.014123351E0,-1.359721422E0,-8.063214302E0,-1.249651670E0,8.271994713E0
3.016509861E0,-1.366899967E0,-8.017750740E0,-1.280758262E0,8.233655578E0
3.018896372E0,-1.374078393E0,-7.977072716E0,-1.292722464E0,8.197128272E0
3.021282830E0,-1.390828133E0,-7.936394691E0,-1.299900889E0,8.161525955E0
3.023669340E0,-1.412662625E0,-7.900502205E0,-1.295115232E0,8.129629404E0
3.026055851E0,-1.443769336E0,-7.867002487E0,-1.278365493E0,8.099902244E0
3.028442361E0,-1.474876046E0,-7.840681553E0,-1.254437327E0,8.076209481E0
3.030828872E0,-1.501197100E0,-7.816753387E0,-1.223330617E0,8.053059298E0
3.033215382E0,-1.527518153E0,-7.788039684E0,-1.194616675E0,8.025832221E0
3.035601893E0,-1.553839207E0,-7.759325504E0,-1.163509965E0,7.998456351E0
3.037988403E0,-1.568196177E0,-7.733004570E0,-1.125224829E0,7.970240263E0
3.040374913E0,-1.572981834E0,-7.711469173E0,-1.098903775E0,7.946610483E0
3.042761424E0,-1.570588946E0,-7.687541008E0,-1.074975610E0,7.919634395E0
3.045147934E0,-1.565803289E0,-7.663612843E0,-1.041476011E0,7.890967876E0
3.047534445E0,-1.563410521E0,-7.637291908E0,-1.003190875E0,7.859953694E0
3.049920955E0,-1.556231976E0,-7.615756035E0,-9.768698215E-1,7.834275499E0
3.052307465E0,-1.546660781E0,-7.594220638E0,-9.553344250E-1,7.808777788E0
3.054693924E0,-1.529910922E0,-7.579864025E0,-9.361918569E-1,7.789186175E0
3.057080434E0,-1.510768414E0,-7.569993496E0,-9.146564603E-1,7.773275961E0
3.059466945E0,-1.496411443E0,-7.555636406E0,-9.074779749E-1,7.755669215E0
3.061853455E0,-1.482054472E0,-7.550850868E0,-9.122636318E-1,7.748810181E0
3.064239965E0,-1.462911963E0,-7.558029652E0,-9.242277741E-1,7.753587596E0
3.066626476E0,-1.446162224E0,-7.569993496E0,-9.481559992E-1,7.764997521E0
3.069012986E0,-1.436590910E0,-7.591827869E0,-9.984052777E-1,7.790793088E0
3.071399497E0,-1.427019596E0,-7.622934818E0,-1.063011408E0,7.827867744E0
3.073786007E0,-1.412662625E0,-7.661220074E0,-1.137188911E0,7.872935115E0
3.076172518E0,-1.398006678E0,-7.706683636E0,-1.225723386E0,7.927786144E0
3.078559028E0,-1.383649707E0,-7.756932735E0,-1.326221943E0,7.990203791E0
3.080945538E0,-1.366899967E0,-7.814360619E0,-1.431805253E0,8.061185625E0
3.083332049E0,-1.350150228E0,-7.878966808E0,-1.534696579E0,8.139798351E0
3.085718507E0,-1.331007600E0,-7.945965767E0,-1.644766450E0,8.222846823E0
3.088105018E0,-1.307079315E0,-8.022536278E0,-1.769193292E0,8.318629068E0
3.090491528E0,-1.287936807E0,-8.101499557E0,-1.898405671E0,8.420036840E0
3.092878038E0,-1.264008522E0,-8.192725182E0,-2.027917147E0,8.534102847E0
3.095264549E0,-1.240080357E0,-8.283653259E0,-2.159522533E0,8.649869836E0
3.097651059E0,-1.213759303E0,-8.376973152E0,-2.295913219E0,8.770296936E0
3.100037570E0,-1.194616675E0,-8.470293045E0,-2.422732830E0,8.890590961E0
3.102424080E0,-1.173081279E0,-8.563612938E0,-2.547458887E0,9.011167129E0
3.104810590E0,-1.156331539E0,-8.659325600E0,-2.667099953E0,9.134245707E0
3.107197101E0,-1.146760225E0,-8.750552177E0,-2.786741018E0,9.254898591E0
3.109583611E0,-1.139581800E0,-8.836693764E0,-2.889632463E0,9.366737913E0
3.111970122E0,-1.132403374E0,-8.915657043E0,-2.975774050E0,9.467127817E0
3.114356580E0,-1.132403374E0,-8.992227554E0,-3.045166016E0,9.561146890E0
3.116743143E0,-1.141974568E0,-9.064012527E0,-3.095714331E0,9.645925369E0
3.119129601E0,-1.156331539E0,-9.133403778E0,-3.117249727E0,9.719743467E0
3.121516111E0,-1.173081279E0,-9.202795982E0,-3.107678413E0,9.783927570E0
3.123902622E0,-1.194616675E0,-9.267701149E0,-3.076272726E0,9.837725727E0
3.126289132E0,-1.220937729E0,-9.329915047E0,-3.026023388E0,9.884069064E0
3.128675643E0,-1.240080357E0,-9.387342453E0,-2.942274570E0,9.915491781E0
3.131062153E0,-1.249651670E0,-9.447162628E0,-2.839383125E0,9.943470599E0
3.133448663E0,-1.252044439E0,-9.502198219E0,-2.714956284E0,9.961444368E0
3.135835174E0,-1.249651670E0,-9.559625626E0,-2.576172590E0,9.979215230E0
3.138221684E0,-1.244866014E0,-9.614660263E0,-2.415554523E0,9.991310576E0
3.140608195E0,-1.237687469E0,-9.672088623E0,-2.252842426E0,1.000782032E1
3.142994705E0,-1.225723386E0,-9.734301567E0,-2.085345030E0,1.003033841E1
3.145381215E0,-1.208973646E0,-9.791728973E0,-1.917548299E0,1.005069973E1
3.147767726E0,-1.199402332E0,-9.847063065E0,-1.754836321E0,1.007386060E1
3.150154236E0,-1.189831018E0,-9.899705887E0,-1.601695657E0,1.009877733E1
3.152540747E0,-1.177866936E0,-9.954740524E0,-1.460519075E0,1.013002198E1
3.154927205E0,-1.165902853E0,-1.000977516E1,-1.333400369E0,1.016527839E1
3.157313715E0,-1.161117196E0,-1.006002426E1,-1.218544960E0,1.019985946E1
3.159700226E0,-1.168295622E0,-1.011027431E1,-1.118046403E0,1.023877869E1
3.162086736E0,-1.187438250E0,-1.016052341E1,-1.027119160E0,1.028110983E1
3.164473247E0,-1.213759303E0,-1.021077251E1,-9.505487680E-1,1.032650134E1
3.166859757E0,-1.244866014E0,-1.026102161E1,-8.835497499E-1,1.037395374E1
3.169246268E0,-1.278365493E0,-1.030887794E1,-8.234301209E-1,1.042042322E1
3.171632778E0,-1.307079315E0,-1.035912704E1,-7.755736113E-1,1.047002788E1
3.174019288E0,-1.331007600E0,-1.040728283E1,-7.348956466E-1,1.051775588E1
3.176405799E0,-1.352542996E0,-1.045753193E1,-6.894320250E-1,1.056715019E1
3.178792309E0,-1.369292736E0,-1.051256752E1,-6.511468887E-1,1.062134788E1
3.181178768E0,-1.376471281E0,-1.057238770E1,-6.200401783E-1,1.067963036E1
3.183565330E0,-1.383649707E0,-1.063938713E1,-5.889334679E-1,1.074513321E1
3.185951840E0,-1.393221021E0,-1.071117115E1,-5.602195859E-1,1.081591874E1
3.188338299E0,-1.405484200E0,-1.079491997E1,-5.338985324E-1,1.089911605E1
3.190724809E0,-1.422233939E0,-1.088106155E1,-5.123631358E-1,1.098557080E1
3.193111320E0,-1.448554993E0,-1.096750259E1,-4.908277392E-1,1.107363249E1
3.195497830E0,-1.486840129E0,-1.105125141E1,-4.740779996E-1,1.116089608E1
3.197884340E0,-1.532303810E0,-1.112303638E1,-4.573282301E-1,1.123739483E1
3.200270851E0,-1.592124343E0,-1.119242764E1,-4.453641176E-1,1.131386961E1
3.202657361E0,-1.647159338E0,-1.125703430E1,-4.381856322E-1,1.138533978E1
3.205043872E0,-1.716551185E0,-1.130010509E1,-4.381856322E-1,1.143813489E1
3.207430382E0,-1.802692771E0,-1.135753250E1,-4.357928336E-1,1.150796077E1
3.209816893E0,-1.896012783E0,-1.142213917E1,-4.381856322E-1,1.158672233E1
3.212203403E0,-1.996810555E0,-1.148674488E1,-4.357928336E-1,1.166715371E1
3.214589913E0,-2.104487419E0,-1.155165005E1,-4.357928336E-1,1.174986815E1
3.216976424E0,-2.212164640E0,-1.161386395E1,-4.310071766E-1,1.183052304E1
3.219362934E0,-2.319841623E0,-1.167129135E1,-4.238287210E-1,1.190715490E1
3.221749445E0,-2.425125837E0,-1.172871971E1,-4.142574072E-1,1.198397724E1
3.224135903E0,-2.528316259E0,-1.179571819E1,-4.046861231E-1,1.207042342E1
3.226522413E0,-2.621636391E0,-1.186989594E1,-3.927220106E-1,1.216230395E1
3.228908924E0,-2.695813894E0,-1.196321583E1,-3.807578981E-1,1.226910437E1
3.231295434E0,-2.758027315E0,-1.205653572E1,-3.735794425E-1,1.237361426E1
3.233681945E0,-2.825026274E0,-1.217169094E1,-3.711866140E-1,1.250074451E1
3.236068455E0,-2.887239695E0,-1.231047440E1,-3.807578981E-1,1.265025334E1
3.238454965E0,-2.939881802E0,-1.246600819E1,-3.999004960E-1,1.281421810E1
3.240841476E0,-2.987738132E0,-1.263858986E1,-4.310071766E-1,1.299408712E1
3.243227986E0,-3.026023388E0,-1.284437275E1,-4.740779996E-1,1.320452494E1
3.245614497E0,-3.042773008E0,-1.308844090E1,-5.171487927E-1,1.344742338E1
3.248001007E0,-3.045166016E0,-1.333520031E1,-5.817549825E-1,1.369083789E1
3.250387518E0,-3.042773008E0,-1.358644676E1,-6.607181430E-1,1.393867109E1
3.252774028E0,-3.035594702E0,-1.384038544E1,-7.516453862E-1,1.418929438E1
3.255160486E0,-3.021237612E0,-1.408923912E1,-8.572286963E-1,1.443500526E1
3.257546997E0,-2.987738132E0,-1.434796238E1,-9.792626500E-1,1.468841581E1
3.259933507E0,-2.915953398E0,-1.460399437E1,-1.110867858E0,1.493363530E1
3.262320018E0,-2.793919563E0,-1.485284805E1,-1.235294700E0,1.516374079E1
3.264706528E0,-2.638386011E0,-1.509003735E1,-1.347757339E0,1.537812595E1
3.267093038E0,-2.465803623E0,-1.530299854E1,-1.448554993E0,1.556792419E1
3.269479549E0,-2.288734913E0,-1.548036575E1,-1.534696579E0,1.572371855E1
3.271866059E0,-2.116451740E0,-1.560000706E1,-1.601695657E0,1.582419088E1
3.274252570E0,-1.958226204E0,-1.564547062E1,-1.656730533E0,1.585434189E1
3.276639080E0,-1.809871197E0,-1.562632847E1,-1.709372640E0,1.582339186E1
3.279025590E0,-1.666301847E0,-1.555454350E1,-1.754836321E0,1.574165924E1
3.281412101E0,-1.532303810E0,-1.544208050E1,-1.785943031E0,1.562035203E1
3.283798611E0,-1.400399446E0,-1.530060482E1,-1.788335800E0,1.546828276E1
3.286185122E0,-1.268794179E0,-1.513550091E1,-1.769193292E0,1.529128089E1
3.288571632E0,-1.141974568E0,-1.495364571E1,-1.723729610E0,1.509592228E1
3.290958090E0,-1.007976532E0,-1.477388477E1,-1.644766450E0,1.489929343E1
3.293344601E0,-8.691928387E-1,-1.460638809E1,-1.527518153E0,1.471174296E1
3.295731111E0,-7.325028181E-1,-1.445563984E1,-1.390828133E0,1.454085577E1
3.298117622E0,-5.937191248E-1,-1.432164192E1,-1.230509043E0,1.438666335E1
3.300504132E0,-4.597210586E-1,-1.419691563E1,-1.051047325E0,1.424318985E1
3.302890643E0,-3.281157911E-1,-1.407966709E1,-8.548358679E-1,1.410940926E1
3.305277153E0,-2.033899277E-1,-1.395524120E1,-6.583253145E-1,1.397224093E1
3.307663663E0,-7.896314561E-2,-1.381884956E1,-4.645066857E-1,1.382687980E1
3.310050174E0,4.546362907E-2,-1.367258835E1,-2.727817893E-1,1.367538478E1
3.312436684E0,1.579262912E-1,-1.350269794E1,-8.614161611E-2,1.350389621E1
3.314823195E0,2.632105052E-1,-1.331605816E1,8.853443712E-2,1.331895353E1
3.317209705E0,3.687937856E-1,-1.310758305E1,2.440679073E-1,1.311504141E1
3.319596215E0,4.740779996E-1,-1.288026524E1,3.735794425E-1,1.289439972E1
3.321982726E0,5.793621540E-1,-1.263619709E1,4.788636267E-1,1.265853261E1
3.324369236E0,6.774678826E-1,-1.237508011E1,5.721837282E-1,1.240681122E1
3.326755747E0,7.755736113E-1,-1.209512043E1,6.296114326E-1,1.213630352E1
3.329142205E0,8.715856671E-1,-1.179093266E1,6.774678826E-1,1.184249624E1
3.331528715E0,9.672985673E-1,-1.147956657E1,7.013961077E-1,1.154158012E1
3.333915226E0,1.063011408E0,-1.116849995E1,7.037889361E-1,1.124102767E1
3.336301736E0,1.163509965E0,-1.086191940E1,6.798607111E-1,1.094519343E1
3.338688247E0,1.266401410E0,-1.056281662E1,6.487540603E-1,1.065822449E1
3.341074757E0,1.369292736E0,-1.027777100E1,5.937191248E-1,1.038556891E1
3.343461268E0,1.472483277E0,-1.000498962E1,5.315057039E-1,1.012672320E1
3.345847778E0,1.580160260E0,-9.746265411E0,4.573282301E-1,9.884115794E0
3.348234288E0,1.687837243E0,-9.492626190E0,3.759722710E-1,9.648839396E0
3.350620799E0,1.790728688E0,-9.255437851E0,2.850449979E-1,9.431388535E0
3.353007309E0,1.893620014E0,-9.035298347E0,1.890329868E-1,9.233533801E0
3.355393820E0,1.996810555E0,-8.836693764E0,7.417750359E-2,9.059796431E0
3.357780330E0,2.102094650E0,-8.668897629E0,-4.546362907E-2,8.920238503E0
3.360166840E0,2.209771633E0,-8.530113220E0,-1.674975902E-1,8.813284159E0
3.362553351E0,2.315055847E0,-8.410472870E0,-2.850449979E-1,8.727931492E0
3.364939809E0,2.417947292E0,-8.317152023E0,-3.975076675E-1,8.670611238E0
3.367326320E0,2.518445730E0,-8.240582466E0,-4.908277392E-1,8.630798349E0
3.369712830E0,2.619243383E0,-8.178368568E0,-5.793621540E-1,8.607078996E0
3.372099340E0,2.724527597E0,-8.134998322E0,-6.511468887E-1,8.603792222E0
3.374485851E0,2.832204819E0,-8.103892326E0,-7.157530785E-1,8.614334417E0
3.376872361E0,2.935096025E0,-8.091927528E0,-7.660023570E-1,8.641807647E0
3.379258872E0,3.028416157E0,-8.096714020E0,-7.923234105E-1,8.680775237E0
3.381645382E0,3.122035265E0,-8.123034477E0,-8.066803217E-1,8.739652536E0
3.384031893E0,3.220141172E0,-8.171190262E0,-8.186444640E-1,8.820875139E0
3.386418403E0,3.315854073E0,-8.226224899E0,-7.827520967E-1,8.903839911E0
3.388804913E0,3.413959742E0,-8.298009872E0,-7.372884750E-1,9.003092983E0
3.391191424E0,3.504886866E0,-8.381758690E0,-6.990033388E-1,9.111899711E0
3.393577934E0,3.593421459E0,-8.458329201E0,-6.511468887E-1,9.213034404E0
3.395964445E0,3.679862022E0,-8.522934914E0,-5.937191248E-1,9.302381762E0
3.398350955E0,3.773182154E0,-8.587541580E0,-5.410770178E-1,9.395506282E0
3.400737413E0,3.880859137E0,-8.668897629E0,-5.099703074E-1,9.511620443E0
3.403123924E0,4.002892971E0,-8.769695282E0,-5.003990531E-1,9.653036138E0
3.405510434E0,4.136891365E0,-8.889336586E0,-5.123631358E-1,9.818181659E0
3.407896945E0,4.271188259E0,-9.006584167E0,-5.506483316E-1,9.983226988E0
3.410283455E0,4.414757729E0,-9.128618240E0,-6.080760360E-1,1.015832236E1
3.412669965E0,4.551148891E0,-9.262915611E0,-6.894320250E-1,1.034359117E1
3.415056476E0,4.677968502E0,-9.399306297E0,-7.923234105E-1,1.052891849E1
3.417442986E0,4.785944462E0,-9.533304214E0,-9.266205430E-1,1.070737032E1
3.419829497E0,4.872086048E0,-9.669695854E0,-1.096511006E0,1.088313267E1
3.422216007E0,4.936692238E0,-9.803693771E0,-1.297508121E0,1.105291225E1
3.424602518E0,4.972584724E0,-9.902098656E0,-1.505982757E0,1.118240317E1
3.426989028E0,4.986941338E0,-9.985847473E0,-1.730908036E0,1.129525459E1
3.429375538E0,4.984548569E0,-1.007438183E1,-1.965703845E0,1.141064789E1
3.431762049E0,4.958227634E0,-1.014377308E1,-2.207378864E0,1.150446326E1
3.434148559E0,4.907978535E0,-1.019641590E1,-2.446661234E0,1.157762073E1
3.436535070E0,4.838586330E0,-1.023709393E1,-2.681456804E0,1.163616003E1
3.438921580E0,4.740181446E0,-1.025623608E1,-2.913560629E0,1.166827040E1
3.441308038E0,4.622933388E0,-1.026102161E1,-3.131606579E0,1.168191069E1
3.443694549E0,4.486542225E0,-1.022991467E1,-3.337389469E0,1.165840399E1
3.446081059E0,4.335794449E0,-1.017009449E1,-3.521636724E0,1.160309703E1
3.448467570E0,4.179962158E0,-1.008873844E1,-3.682255030E0,1.152448390E1
3.450854080E0,4.019642830E0,-9.988240242E0,-3.811467409E0,1.142146030E1
3.453240590E0,3.854538202E0,-9.861420631E0,-3.904787540E0,1.128505416E1
3.455627101E0,3.689433336E0,-9.719944954E0,-3.957429647E0,1.112432010E1
3.458013611E0,3.540779352E0,-9.576375008E0,-3.974179268E0,1.095619357E1
3.460400122E0,3.423531055E0,-9.439984322E0,-3.955036640E0,1.079241325E1
3.462786632E0,3.332603693E0,-9.315557480E0,-3.907180309E0,1.063728896E1
3.465173143E0,3.263211966E0,-9.202795982E0,-3.823431492E0,1.048611628E1
3.467559653E0,3.212962627E0,-9.107083321E0,-3.713361740E0,1.034655261E1
3.469946163E0,3.186641455E0,-9.023334503E0,-3.569493294E0,1.021354648E1
3.472332674E0,3.172284603E0,-8.951549530E0,-3.406781197E0,1.008958803E1
3.474719184E0,3.157927752E0,-8.884550095E0,-3.224926710E0,9.965334433E0
3.477105695E0,3.131606579E0,-8.810373306E0,-3.030808926E0,9.829315353E0
3.479492205E0,3.095714331E0,-8.740981102E0,-2.827419043E0,9.694456988E0
3.481878663E0,3.049951553E0,-8.673683167E0,-2.621636391E0,9.560751096E0
3.484265174E0,2.987738132E0,-8.609076500E0,-2.420340061E0,9.428723315E0
3.486651684E0,2.906382322E0,-8.542078018E0,-2.228914261E0,9.294203239E0
3.489038195E0,2.813062191E0,-8.472685814E0,-2.049452543E0,9.159693200E0
3.491424705E0,2.714956284E0,-8.398508072E0,-1.879263043E0,9.024275874E0
3.493811215E0,2.609672308E0,-8.321938515E0,-1.735693693E0,8.892563342E0
3.496197726E0,2.494517565E0,-8.240582466E0,-1.611266971E0,8.759337790E0
3.498584236E0,2.372483730E0,-8.159226418E0,-1.505982757E0,8.629579297E0
3.500970747E0,2.245664120E0,-8.075178146E0,-1.415055513E0,8.500228911E0
3.503357257E0,2.118844509E0,-7.998608112E0,-1.342971683E0,8.382768441E0
3.505743768E0,1.989632010E0,-7.919644833E0,-1.297508121E0,8.268188262E0
3.508130278E0,1.857727647E0,-7.847859859E0,-1.275972724E0,8.165057426E0
3.510516788E0,1.733300924E0,-7.783253670E0,-1.278365493E0,8.075740716E0
3.512903299E0,1.611266971E0,-7.723433495E0,-1.299900889E0,7.996083324E0
3.515289809E0,1.486840129E0,-7.675576687E0,-1.335793257E0,7.931551845E0
3.517676320E0,1.366899967E0,-7.630113125E0,-1.378864050E0,7.873265389E0
3.520062830E0,1.244866014E0,-7.584649563E0,-1.417448282E0,7.815737970E0
3.522449288E0,1.125224829E0,-7.536494255E0,-1.455733418E0,7.757837093E0
3.524835799E0,1.012762189E0,-7.488637447E0,-1.498804331E0,7.704011455E0
3.527222309E0,9.026923180E-1,-7.445566654E0,-1.544267893E0,7.657419902E0
3.529608820E0,7.947162390E-1,-7.407281399E0,-1.594517231E0,7.618521958E0
3.531995330E0,6.894320250E-1,-7.371389389E0,-1.654337764E0,7.586140750E0
3.534381840E0,5.985047817E-1,-7.342675209E0,-1.714158297E0,7.563823495E0
3.536768351E0,5.362913609E-1,-7.321139812E0,-1.769193292E0,7.550943086E0
3.539154861E0,4.980062246E-1,-7.301997185E0,-1.817049742E0,7.541143338E0
3.541541372E0,4.740779996E-1,-7.297211647E0,-1.845763564E0,7.541942118E0
3.543927882E0,4.501497746E-1,-7.294818878E0,-1.867298961E0,7.543462248E0
3.546314393E0,4.166502357E-1,-7.287640572E0,-1.884048700E0,7.538762632E0
3.548700903E0,3.616153300E-1,-7.261319637E0,-1.905584097E0,7.515901760E0
3.551087413E0,2.922234535E-1,-7.234998226E0,-1.929512382E0,7.493571372E0
3.553473924E0,2.177468538E-1,-7.206284523E0,-1.948654890E0,7.468280003E0
3.555860434E0,1.387837082E-1,-7.179963589E0,-1.968096614E0,7.446109208E0
3.558246945E0,7.657032460E-2,-7.156035423E0,-1.989632010E0,7.427875977E0
3.560633455E0,3.349951655E-2,-7.134500027E0,-2.003988981E0,7.410680447E0
3.563019913E0,1.196411345E-2,-7.110571384E0,-2.006381750E0,7.388229577E0
3.565406424E0,9.571290575E-3,-7.086643219E0,-1.992024899E0,7.361301985E0
3.567792934E0,2.392822690E-2,-7.055536747E0,-1.958226204E0,7.322282514E0
3.570179445E0,5.024927482E-2,-7.019644260E0,-1.903191328E0,7.273243277E0
3.572565955E0,7.417750359E-2,-6.976274490E0,-1.831406593E0,7.213040841E0
3.574952465E0,1.028913707E-1,-6.933203697E0,-1.752443433E0,7.151989802E0
3.577338976E0,1.172483116E-1,-6.882954121E0,-1.659123421E0,7.081065959E0
3.579725486E0,1.148554832E-1,-6.830312252E0,-1.558624864E0,7.006830147E0
3.582111997E0,1.004985496E-1,-6.777669907E0,-1.460519075E0,6.933976153E0
3.584498507E0,7.896314561E-2,-6.722635269E0,-1.354935765E0,6.858273184E0
3.586885018E0,5.024927482E-2,-6.672386169E0,-1.244866014E0,6.787706061E0
3.589271528E0,1.674975827E-2,-6.624529362E0,-1.149153113E0,6.723482929E0
3.591658038E0,-9.571290575E-3,-6.583851337E0,-1.063011408E0,6.669121629E0
3.594044549E0,-2.632104978E-2,-6.547959328E0,-9.888339639E-1,6.622254659E0
3.596431059E0,-3.589234129E-2,-6.516852379E0,-9.290133715E-1,6.582835182E0
3.598817570E0,-4.067798331E-2,-6.488138676E0,-8.835497499E-1,6.548149230E0
3.601204080E0,-3.828516230E-2,-6.461817741E0,-8.596215248E-1,6.518857526E0
3.603590590E0,-3.349951655E-2,-6.437590122E0,-8.691928387E-1,6.496089977E0
3.605977049E0,-2.392822690E-2,-6.416054726E0,-9.050851464E-1,6.479622668E0
3.608363559E0,-4.785645287E-3,-6.396912098E0,-9.529415965E-1,6.467503767E0
3.610750070E0,2.632104978E-2,-6.382555485E0,-1.015154958E0,6.462835825E0
3.613136580E0,6.939185411E-2,-6.370591164E0,-1.089332461E0,6.463427281E0
3.615523090E0,1.052841991E-1,-6.361020088E0,-1.170688510E0,6.468707206E0
3.617909601E0,1.387837082E-1,-6.349055767E0,-1.256830096E0,6.473746361E0
3.620296111E0,1.555334777E-1,-6.339484692E0,-1.359721422E0,6.485529983E0
3.622682622E0,1.555334777E-1,-6.332305908E0,-1.482054472E0,6.505288175E0
3.625069132E0,1.292124242E-1,-6.322734833E0,-1.623231053E0,6.529054347E0
3.627455643E0,8.853443712E-2,-6.315556049E0,-1.783550143E0,6.563165218E0
3.629842153E0,3.349951655E-2,-6.317949295E0,-1.951047778E0,6.612427160E0
3.632228663E0,-2.392822690E-2,-6.325127602E0,-2.118844509E0,6.670630689E0
3.634615174E0,-8.614161611E-2,-6.339484692E0,-2.281556368E0,6.738099583E0
3.637001684E0,-1.387837082E-1,-6.363412857E0,-2.427518606E0,6.812131142E0
3.639388195E0,-1.842473447E-1,-6.399304867E0,-2.554637194E0,6.892838389E0
3.641774705E0,-2.225325108E-1,-6.439982891E0,-2.662314177E0,6.972145805E0
3.644161215E0,-2.464607358E-1,-6.492924213E0,-2.741277456E0,7.052191846E0
3.646547726E0,-2.584248483E-1,-6.557530403E0,-2.825026274E0,7.144841624E0
3.648934236E0,-2.679961324E-1,-6.631708145E0,-2.880061150E0,7.235062341E0
3.651320747E0,-2.850449979E-1,-6.713063717E0,-2.920739174E0,7.326472032E0
3.653707257E0,-3.041875660E-1,-6.794419765E0,-2.956631422E0,7.416086528E0
3.656093715E0,-3.161516786E-1,-6.880561352E0,-2.987738132E0,7.507906203E0
3.658480226E0,-3.257229924E-1,-6.973881721E0,-3.006880760E0,7.601477070E0
3.660866736E0,-3.424727321E-1,-7.072286606E0,-3.028416157E0,7.701027842E0
3.663253247E0,-3.592225015E-1,-7.175177574E0,-3.064308405E0,7.810390517E0
3.665639757E0,-3.807578981E-1,-7.287640572E0,-3.117249727E0,7.935485337E0
3.668026268E0,-3.999004960E-1,-7.409674644E0,-3.177070379E0,8.071987050E0
3.670412778E0,-4.286143482E-1,-7.534101009E0,-3.241676569E0,8.213090481E0
3.672799288E0,-4.645066857E-1,-7.663612843E0,-3.323032379E0,8.365959147E0
3.675185799E0,-5.051847100E-1,-7.802396297E0,-3.411566973E0,8.530614795E0
3.677572309E0,-5.530411601E-1,-7.957930088E0,-3.519243956E0,8.718921024E0
3.679958820E0,-6.152545214E-1,-8.123034477E0,-3.648755312E0,8.926121362E0
3.682345330E0,-6.894320250E-1,-8.295617104E0,-3.792324781E0,9.147366118E0
3.684731840E0,-7.707880139E-1,-8.479864120E0,-3.957429647E0,9.389539876E0
3.687118351E0,-8.644071817E-1,-8.683254242E0,-4.151247978E0,9.663279142E0
3.689504861E0,-9.720842242E-1,-8.898907661E0,-4.369294167E0,9.961236711E0
3.691891372E0,-1.096511006E0,-9.123832703E0,-4.610969067E0,1.028142477E1
3.694277882E0,-1.240080357E0,-9.363413811E0,-4.872086048E0,1.062772506E1
3.696664393E0,-1.405484200E0,-9.612267494E0,-5.168796062E0,1.100397769E1
3.699050851E0,-1.601695657E0,-9.885348320E0,-5.472983360E0,1.141223410E1
3.701437361E0,-1.809871197E0,-1.020120144E1,-5.776872158E0,1.186222561E1
3.703823872E0,-2.003988981E0,-1.055085278E1,-6.073881149E0,1.233809136E1
3.706210382E0,-2.188236237E0,-1.093609715E1,-6.370591164E0,1.284410489E1
3.708596893E0,-2.350948334E0,-1.134078312E1,-6.646064758E0,1.335329535E1
3.710983403E0,-2.504088879E0,-1.174546909E1,-6.892525673E0,1.384678358E1
3.713369913E0,-2.650350094E0,-1.213819122E1,-7.091429234E0,1.430553775E1
3.715756424E0,-2.784348249E0,-1.250668621E1,-7.246962547E0,1.472033496E1
3.718142934E0,-2.906382322E0,-1.283719444E1,-7.352246761E0,1.507634411E1
3.720529445E0,-3.021237612E0,-1.311236858E1,-7.414460182E0,1.536347312E1
3.722915955E0,-3.119642496E0,-1.333280754E1,-7.433602810E0,1.558057691E1
3.725302465E0,-3.203391314E0,-1.349791241E1,-7.416852951E0,1.573102231E1
3.727688976E0,-3.270390272E0,-1.360319710E1,-7.359425068E0,1.580833834E1
3.730075486E0,-3.339782238E0,-1.365105343E1,-7.273283482E0,1.582422376E1
3.732461997E0,-3.411566973E0,-1.364148235E1,-7.156035423E0,1.577775881E1
3.734848507E0,-3.468994617E0,-1.358405399E1,-7.026822567E0,1.568236851E1
3.737235018E0,-3.514458179E0,-1.347877026E1,-6.887740135E0,1.553929304E1
3.739621528E0,-3.559921980E0,-1.333759308E1,-6.741777897E0,1.536281234E1
3.742008038E0,-3.605385542E0,-1.316740417E1,-6.602993965E0,1.516505413E1
3.744394497E0,-3.651148319E0,-1.298794174E1,-6.464210510E0,1.496006458E1
3.746781007E0,-3.687040567E0,-1.280608749E1,-6.334698677E0,1.475528896E1
3.749167518E0,-3.703790426E0,-1.261675549E1,-6.207879066E0,1.454091968E1
3.751554028E0,-3.696611881E0,-1.243011570E1,-6.095416546E0,1.432922952E1
3.753940538E0,-3.667897940E0,-1.226022530E1,-5.987739563E0,1.412868092E1
3.756327049E0,-3.624528170E0,-1.210229874E1,-5.894419670E0,1.394084009E1
3.758713559E0,-3.557528973E0,-1.196560860E1,-5.815157413E0,1.377126927E1
3.761100070E0,-3.473780155E0,-1.185314560E1,-5.764907837E0,1.363078763E1
3.763486580E0,-3.380460262E0,-1.175743294E1,-5.729015827E0,1.350875136E1
3.765873090E0,-3.265604734E0,-1.169043446E1,-5.729015827E0,1.342207340E1
3.768259601E0,-3.112463951E0,-1.166411304E1,-5.755336761E0,1.337396225E1
3.770646111E0,-2.927917719E0,-1.166889858E1,-5.800800323E0,1.335609152E1
3.773032622E0,-2.719742060E0,-1.170479107E1,-5.848656654E0,1.336435242E1
3.775419132E0,-2.499303341E0,-1.176221848E1,-5.886941910E0,1.338851693E1
3.777805643E0,-2.271985054E0,-1.183161068E1,-5.908776283E0,1.341873930E1
3.780192153E0,-2.042274237E0,-1.191296673E1,-5.896812439E0,1.344849647E1
3.782578663E0,-1.836192250E0,-1.198953724E1,-5.834300041E0,1.345955654E1
3.784965174E0,-1.649552107E0,-1.205414295E1,-5.721837044E0,1.344480582E1
3.787351684E0,-1.491625786E0,-1.210469151E1,-5.549553871E0,1.339947955E1
3.789738195E0,-1.352542996E0,-1.213819122E1,-5.312365532E0,1.331864431E1
3.792124705E0,-1.218544960E0,-1.215733337E1,-5.025226593E0,1.321130232E1
3.794511215E0,-1.084546804E0,-1.216690540E1,-4.680361271E0,1.308111656E1
3.796897674E0,-9.481559992E-1,-1.216929817E1,-4.299902439E0,1.294140560E1
3.799284184E0,-8.066803217E-1,-1.217408371E1,-3.888037682E0,1.280530688E1
3.801670695E0,-6.607181430E-1,-1.218365479E1,-3.473780155E0,1.268641561E1
3.804057205E0,-5.075774789E-1,-1.220040417E1,-3.064308405E0,1.258957834E1
3.806443715E0,-3.496512175E-1,-1.223390388E1,-2.662314177E0,1.252511784E1
3.808830226E0,-1.866401732E-1,-1.228176022E1,-2.276770830E0,1.249240385E1
3.811216736E0,-2.392822690E-2,-1.234636688E1,-1.953440547E0,1.249997111E1
3.813603247E0,1.411765367E-1,-1.241815090E1,-1.671087503E0,1.253087930E1
3.815989757E0,3.017947674E-1,-1.249711418E1,-1.441376567E0,1.258358094E1
3.818376268E0,4.549354017E-1,-1.257847023E1,-1.242473125E0,1.264787014E1
3.820762778E0,6.008976102E-1,-1.264816093E1,-1.082154036E0,1.270858412E1
3.823149288E0,7.372884750E-1,-1.270319653E1,-9.577272534E-1,1.276056573E1
3.825535799E0,8.644071817E-1,-1.274148178E1,-8.691928387E-1,1.280031460E1
3.827922309E0,9.696913958E-1,-1.277019501E1,-8.018946648E-1,1.283203869E1
3.830308820E0,1.055832982E0,-1.278933811E1,-7.612167001E-1,1.285540367E1
3.832695330E0,1.122832060E0,-1.279651642E1,-7.420741320E-1,1.286709984E1
3.835081840E0,1.180259824E0,-1.280130196E1,-7.516453862E-1,1.287755085E1
3.837468351E0,1.228116274E0,-1.279890919E1,-7.779664397E-1,1.288121026E1
3.839854861E0,1.266401410E0,-1.278215981E1,-8.258228898E-1,1.287126122E1
3.842241320E0,1.302293777E0,-1.274866009E1,-8.907282352E-1,1.284592153E1
3.844627882E0,1.331007600E0,-1.269123173E1,-9.792626500E-1,1.279835534E1
3.847014340E0,1.362114310E0,-1.260957718E1,-1.086939692E0,1.272942379E1
3.849400851E0,1.405484200E0,-1.250907898E1,-1.204187989E0,1.264525648E1
3.851787361E0,1.460519075E0,-1.240379429E1,-1.319043517E0,1.255894520E1
3.854173872E0,1.517946839E0,-1.227936745E1,-1.438983679E0,1.245623143E1
3.856560382E0,1.570588946E0,-1.214058399E1,-1.546660781E0,1.233907164E1
3.858946893E0,1.611266971E0,-1.198953724E1,-1.642373681E0,1.220829946E1
3.861333403E0,1.651944876E0,-1.182203960E1,-1.716551185E0,1.205968865E1
3.863719913E0,1.687837243E0,-1.163779163E1,-1.766800404E0,1.189153364E1
3.866106424E0,1.718943954E0,-1.143171024E1,-1.785943031E0,1.169736551E1
3.868492934E0,1.738086581E0,-1.121396351E1,-1.769193292E0,1.148494525E1
3.870879445E0,1.752443433E0,-1.099143124E1,-1.711765528E0,1.126111717E1
3.873265955E0,1.759621978E0,-1.076142120E1,-1.632802367E0,1.102590130E1
3.875652465E0,1.766800404E0,-1.053649521E1,-1.527518153E0,1.079224845E1
3.878038976E0,1.769193292E0,-1.031127071E1,-1.407876968E0,1.055625247E1
3.880425486E0,1.769193292E0,-1.009830952E1,-1.254437327E0,1.032857749E1
3.882811997E0,1.766800404E0,-9.892526627E0,-1.091725349E0,1.010819128E1
3.885198507E0,1.776371717E0,-9.705587387E0,-9.050851464E-1,9.908234057E0
3.887585018E0,1.790728688E0,-9.538089752E0,-7.277171612E-1,9.731980149E0
3.889971528E0,1.809871197E0,-9.389735222E0,-5.386841893E-1,9.577731566E0
3.892358038E0,1.826620936E0,-9.250652313E0,-3.592225015E-1,9.436109001E0
3.894744549E0,1.840977907E0,-9.126225471E0,-1.746760458E-1,9.311697092E0
3.897131059E0,1.848156333E0,-9.013762474E0,-2.392822644E-3,9.201282601E0
3.899517518E0,1.850549221E0,-8.918049812E0,1.722832322E-1,9.109655668E0
3.901904028E0,1.850549221E0,-8.841479301E0,3.352942765E-1,9.039287080E0
3.904290538E0,1.845763564E0,-8.779266357E0,5.075774789E-1,8.985543712E0
3.906677049E0,1.833799481E0,-8.738588333E0,6.750751138E-1,8.954410813E0
3.909063559E0,1.819442511E0,-8.721838951E0,8.306085467E-1,8.948226433E0
3.911450070E0,1.814656854E0,-8.726624489E0,9.649057388E-1,8.965377714E0
3.913836580E0,1.805085540E0,-8.748159409E0,1.070189953E0,8.996328883E0
3.916223090E0,1.790728688E0,-8.784051895E0,1.153938770E0,9.038686388E0
3.918609601E0,1.773978829E0,-8.831908226E0,1.228116274E0,9.091637552E0
3.920996111E0,1.754836321E0,-8.889336586E0,1.278365493E0,9.150626961E0
3.923382622E0,1.738086581E0,-8.961120605E0,1.309472203E0,9.221569548E0
3.925769132E0,1.723729610E0,-9.042476654E0,1.311864972E0,9.298312616E0
3.928155643E0,1.709372640E0,-9.135796547E0,1.309472203E0,9.386130769E0
3.930542153E0,1.695015788E0,-9.236295700E0,1.285543919E0,9.478125339E0
3.932928663E0,1.680658817E0,-9.341878891E0,1.242473125E0,9.572828983E0
3.935315174E0,1.668694735E0,-9.451948166E0,1.170688510E0,9.669249083E0
3.937701684E0,1.656730533E0,-9.564411163E0,1.089332461E0,9.767771607E0
3.940088195E0,1.647159338E0,-9.679266930E0,9.912267923E-1,9.868326744E0
3.942474705E0,1.651944876E0,-9.791728973E0,8.715856671E-1,9.968276668E0
3.944861215E0,1.671087503E0,-9.906884193E0,7.540382147E-1,1.007509114E1
3.947247726E0,1.695015788E0,-1.001695347E1,6.559324861E-1,1.018050503E1
3.949634236E0,1.718943954E0,-1.011745262E1,5.650052428E-1,1.027797873E1
3.952020695E0,1.742872238E0,-1.021316528E1,4.740779996E-1,1.037164879E1
3.954407257E0,1.762014747E0,-1.029691410E1,4.046861231E-1,1.045442044E1
3.956793768E0,1.771586061E0,-1.037827015E1,3.544368446E-1,1.053435494E1
3.959180226E0,1.776371717E0,-1.045753193E1,3.161516786E-1,1.061204139E1
3.961566736E0,1.769193292E0,-1.052692413E1,2.751746178E-1,1.067810366E1
3.963953247E0,1.757229090E0,-1.059153080E1,2.584248483E-1,1.073942094E1
3.966339757E0,1.730908036E0,-1.065135098E1,2.440679073E-1,1.079383571E1
3.968726268E0,1.687837243E0,-1.070638561E1,2.368894368E-1,1.084119938E1
