"Time (s)","Acceleration x (m/s^2)","Acceleration y (m/s^2)","Acceleration z (m/s^2)","Absolute acceleration (m/s^2)"
3.621182800E-2,1.790728688E0,1.903191328E0,8.482256889E0,8.875670589E0
3.859828700E-2,1.845763564E0,1.793121457E0,8.443971634E0,8.827388325E0
4.098469300E-2,1.896012783E0,1.673480392E0,8.415258408E0,8.787034492E0
4.337115100E-2,1.948654890E0,1.541875124E0,8.393722534E0,8.753811328E0
4.575761000E-2,1.987239242E0,1.417448282E0,8.393722534E0,8.741444813E0
4.814406800E-2,2.013560295E0,1.302293777E0,8.398508072E0,8.734147467E0
5.053052600E-2,2.027917147E0,1.197009563E0,8.405686378E0,8.729309442E0
5.291698500E-2,2.037488461E0,1.091725349E0,8.396115303E0,8.708500195E0
5.530344300E-2,2.042274237E0,9.840483069E-1,8.381758690E0,8.682920814E0
5.768990100E-2,2.051845312E0,8.955138922E-1,8.360222816E0,8.654787106E0
6.007630800E-2,2.066202402E0,8.330013752E-1,8.336295128E0,8.628841180E0
6.246276600E-2,2.085345030E0,7.899305820E-1,8.314759254E0,8.608593130E0
6.484922400E-2,2.109273195E0,7.588238716E-1,8.293224335E0,8.590833309E0
6.723568300E-2,2.140379906E0,7.372884750E-1,8.269295692E0,8.573568200E0
6.962214100E-2,2.181057930E0,7.205387354E-1,8.240582466E0,8.554729051E0
7.200859900E-2,2.224128723E0,6.966105103E-1,8.207082748E0,8.531601375E0
7.439505800E-2,2.274377823E0,6.655037999E-1,8.173583031E0,8.510179161E0
7.678151600E-2,2.322234392E0,6.320042610E-1,8.137690544E0,8.486118627E0
7.916797400E-2,2.365305185E0,5.937191248E-1,8.123034477E0,8.481206290E0
8.155438000E-2,2.398804665E0,5.530411601E-1,8.108677864E0,8.474123851E0
8.394083900E-2,2.415554523E0,5.147559643E-1,8.096714020E0,8.465025415E0
8.632729700E-2,2.420340061E0,4.788636267E-1,8.091927528E0,8.459707295E0
8.871375500E-2,2.420340061E0,4.453641176E-1,8.084749222E0,8.451009714E0
9.110021400E-2,2.413161755E0,4.070789516E-1,8.070392609E0,8.433285231E0
9.348667200E-2,2.403590441E0,3.759722710E-1,8.046463966E0,8.406199172E0
9.587313000E-2,2.382055044E0,3.472583890E-1,8.012965202E0,8.366742852E0
9.825958900E-2,2.358126640E0,3.281157911E-1,7.969893932E0,8.317910225E0
1.006459950E-1,2.329412937E0,3.041875660E-1,7.914859295E0,8.256130593E0
1.030324530E-1,2.298306227E0,2.799602449E-1,7.845467091E0,8.179972073E0
1.054189120E-1,2.269592285E0,2.608176768E-1,7.776075363E0,8.104716100E0
1.078053700E-1,2.240878344E0,2.512463629E-1,7.699504852E0,8.022906921E0
1.101918280E-1,2.219342947E0,2.512463629E-1,7.618149281E0,7.938816430E0
1.125782870E-1,2.209771633E0,2.608176768E-1,7.522137165E0,7.844339619E0
1.149647450E-1,2.207378864E0,2.970091105E-1,7.440781116E0,7.766978788E0
1.173512030E-1,2.214557409E0,3.520440459E-1,7.361817837E0,7.695749567E0
1.197376620E-1,2.224128723E0,4.190430641E-1,7.292426109E0,7.635563124E0
1.221240680E-1,2.238485575E0,4.860421121E-1,7.232605457E0,7.586674918E0
1.245105260E-1,2.260020971E0,5.554339290E-1,7.187141895E0,7.554548978E0
1.268969850E-1,2.276770830E0,6.248258352E-1,7.156035423E0,7.535445290E0
1.292834430E-1,2.281556368E0,6.918248534E-1,7.144071102E0,7.531392501E0
1.316699010E-1,2.279163599E0,7.492526174E-1,7.139285564E0,7.531624298E0
1.340563600E-1,2.269592285E0,7.971090674E-1,7.136892796E0,7.531379076E0
1.364428180E-1,2.255235434E0,8.306085467E-1,7.141678333E0,7.535221751E0
1.388292240E-1,2.240878344E0,8.401798606E-1,7.156035423E0,7.545613357E0
1.412156830E-1,2.221735716E0,8.186444640E-1,7.177570820E0,7.558029586E0
1.436021410E-1,2.207378864E0,7.731808424E-1,7.208677292E0,7.578611902E0
1.459885990E-1,2.197807550E0,7.109674215E-1,7.251748085E0,7.610761000E0
1.483750580E-1,2.193022013E0,6.487540603E-1,7.311568737E0,7.660891905E0
1.507615160E-1,2.200200319E0,5.889334679E-1,7.388139248E0,7.731256406E0
1.531479740E-1,2.224128723E0,5.243272781E-1,7.471887589E0,7.813499332E0
1.555344330E-1,2.255235434E0,4.692923427E-1,7.562815189E0,7.905851994E0
1.579208910E-1,2.279163599E0,4.214358926E-1,7.663612843E0,8.006444699E0
1.603072970E-1,2.298306227E0,3.831507266E-1,7.764111042E0,8.106197399E0
1.626937550E-1,2.312663078E0,3.544368446E-1,7.857431412E0,8.198369617E0
1.650802140E-1,2.315055847E0,3.329014480E-1,7.936394691E0,8.273854461E0
1.674666720E-1,2.310270309E0,3.185445070E-1,8.005785942E0,8.338550717E0
1.698531300E-1,2.307877541E0,3.065803945E-1,8.051250458E0,8.381105191E0
1.722395890E-1,2.298306227E0,2.922234535E-1,8.077570915E0,8.403258770E0
1.746260470E-1,2.279163599E0,2.727817893E-1,8.091927528E0,8.411200137E0
1.770124530E-1,2.262413740E0,2.536391914E-1,8.084749222E0,8.399167742E0
1.793989120E-1,2.245664120E0,2.392822653E-1,8.063214302E0,8.373511105E0
1.817853700E-1,2.231307030E0,2.321037948E-1,8.027321815E0,8.334896446E0
1.841718280E-1,2.209771633E0,2.297109663E-1,7.972286701E0,8.276062654E0
1.865582870E-1,2.193022013E0,2.344966233E-1,7.902894974E0,8.204881668E0
1.889447450E-1,2.173879385E0,2.488535494E-1,7.828717709E0,8.128745329E0
1.913312030E-1,2.164308071E0,2.656033039E-1,7.752147198E0,8.052984584E0
1.937176620E-1,2.152343988E0,2.922234535E-1,7.670791149E0,7.972390861E0
1.961040680E-1,2.140379906E0,3.233301640E-1,7.599006653E0,7.901308160E0
1.984905260E-1,2.126022816E0,3.640081584E-1,7.534101009E0,7.836782055E0
2.008769850E-1,2.109273195E0,4.094717801E-1,7.471887589E0,7.774690006E0
2.032634430E-1,2.085345030E0,4.549354017E-1,7.416852951E0,7.717858369E0
2.056499010E-1,2.054238319E0,5.051847100E-1,7.371389389E0,7.668930055E0
2.080363600E-1,2.023131609E0,5.554339290E-1,7.333104134E0,7.627318309E0
2.104228180E-1,1.984846354E0,6.032904387E-1,7.297211647E0,7.586360934E0
2.128092760E-1,1.936690807E0,6.487540603E-1,7.266105175E0,7.547710748E0
2.151957350E-1,1.881655931E0,6.894320250E-1,7.242177010E0,7.514324547E0
2.175821410E-1,1.814656854E0,7.205387354E-1,7.225427151E0,7.484581022E0
2.199685990E-1,1.740479350E0,7.277171612E-1,7.213462830E0,7.456063749E0
2.223550580E-1,1.668694735E0,7.348956466E-1,7.203891754E0,7.431061171E0
2.247415160E-1,1.596910000E0,7.492526174E-1,7.206284523E0,7.419032124E0
2.271279740E-1,1.515554070E0,7.660023570E-1,7.211070061E0,7.408319322E0
2.295144330E-1,1.429412484E0,7.995018363E-1,7.218248844E0,7.401725448E0
2.319008910E-1,1.347757339E0,8.330013752E-1,7.215855598E0,7.387754270E0
2.342873490E-1,1.268794179E0,8.739784956E-1,7.208677292E0,7.371479185E0
2.366737550E-1,1.180259824E0,9.553344250E-1,7.230212688E0,7.387939675E0
2.390602140E-1,1.091725349E0,1.060618639E0,7.268497944E0,7.426159068E0
2.414466720E-1,9.936196208E-1,1.208973646E0,7.318747044E0,7.484180350E0
2.438331300E-1,9.074779749E-1,1.366899967E0,7.352246761E0,7.533091280E0
2.462195890E-1,8.330013752E-1,1.501197100E0,7.359425068E0,7.557024636E0
2.486060470E-1,7.779664397E-1,1.572981834E0,7.352246761E0,7.558772127E0
2.509925050E-1,7.420741320E-1,1.563410521E0,7.345067978E0,7.546187784E0
2.533789640E-1,7.181459069E-1,1.486840129E0,7.354639530E0,7.537715153E0
2.557653700E-1,7.061817646E-1,1.347757339E0,7.361817837E0,7.517413411E0
2.581518280E-1,7.109674215E-1,1.177866936E0,7.385746002E0,7.512795033E0
2.605382870E-1,7.181459069E-1,9.912267923E-1,7.395317554E0,7.495931285E0
2.629247450E-1,7.301099896E-1,7.995018363E-1,7.421638489E0,7.500198773E0
2.653112030E-1,7.420741320E-1,6.320042610E-1,7.469494820E0,7.532825251E0
2.676976620E-1,7.564310431E-1,4.932205677E-1,7.519744396E0,7.573771203E0
2.700841200E-1,7.707880139E-1,3.759722710E-1,7.579864025E0,7.628224430E0
2.724705780E-1,7.995018363E-1,2.898306549E-1,7.642077446E0,7.689249163E0
2.748569850E-1,8.282157183E-1,2.297109663E-1,7.692326546E0,7.740193543E0
2.772434430E-1,8.548358679E-1,1.866401732E-1,7.756932735E0,7.806124799E0
2.796299010E-1,8.787640929E-1,1.483550072E-1,7.804789066E0,7.855505579E0
2.820163600E-1,8.907282352E-1,1.148554832E-1,7.845467091E0,7.896704530E0
2.844028180E-1,8.907282352E-1,8.853443712E-2,7.864609718E0,7.915385092E0
2.867892760E-1,8.763712645E-1,7.178468257E-2,7.871788502E0,7.920747051E0
2.891757350E-1,8.572286963E-1,6.460621208E-2,7.886145115E0,7.932862017E0
2.915621930E-1,8.330013752E-1,5.024927482E-2,7.902894974E0,7.946833662E0
2.939485990E-1,8.066803217E-1,2.632104978E-2,7.922037601E0,7.963046257E0
2.963350580E-1,7.612167001E-1,-3.828516230E-2,7.936394691E0,7.972908962E0
2.987215160E-1,7.085745931E-1,-1.268195957E-1,7.965108395E0,7.997569187E0
3.011079740E-1,6.678966284E-1,-2.033899277E-1,7.996214867E0,8.026637251E0
3.034944330E-1,6.248258352E-1,-2.560320199E-1,8.039285660E0,8.067594043E0
3.058808910E-1,5.626124144E-1,-2.703889608E-1,8.096714020E0,8.120740166E0
3.082673490E-1,4.836492836E-1,-2.608176768E-1,8.166404724E0,8.184870714E0
3.106538080E-1,3.879363835E-1,-2.297109663E-1,8.238189697E0,8.250517029E0
3.130402140E-1,2.970091105E-1,-1.770688742E-1,8.314759254E0,8.321946242E0
3.154266720E-1,2.033899277E-1,-1.076770201E-1,8.393722534E0,8.396876787E0
3.178131300E-1,9.810572863E-2,-2.153540403E-2,8.467900276E0,8.468495946E0
3.201995890E-1,-1.435693540E-2,6.939185411E-2,8.537292480E0,8.537586559E0
3.225860470E-1,-1.220339537E-1,1.507478207E-1,8.604290962E0,8.606476640E0
3.249725050E-1,-2.416750938E-1,2.153540403E-1,8.644968987E0,8.651027280E0
3.273589640E-1,-3.544368446E-1,2.608176768E-1,8.668897629E0,8.680059760E0
3.297454220E-1,-4.262215197E-1,2.679961324E-1,8.683254242E0,8.697838291E0
3.321318280E-1,-4.453641176E-1,2.440679073E-1,8.630612373E0,8.645541526E0
3.345182870E-1,-4.118646085E-1,1.938186288E-1,8.499007225E0,8.511188044E0
3.369047450E-1,-3.735794425E-1,1.339980662E-1,8.393722534E0,8.403100324E0
3.392912030E-1,-3.520440459E-1,8.135596663E-2,8.357830048E0,8.365636671E0
3.416776620E-1,-3.472583890E-1,4.067798331E-2,8.403293610E0,8.410563987E0
3.440641200E-1,-3.616153300E-1,1.435693540E-2,8.549256325E0,8.556912730E0
3.464505780E-1,-3.831507266E-1,2.392822644E-3,8.764909744E0,8.773280631E0
3.488369850E-1,-4.094717801E-1,-4.785645287E-3,9.030512810E0,9.039792677E0
3.512234430E-1,-4.166502357E-1,-9.571290575E-3,9.344271660E0,9.353560920E0
3.536099010E-1,-4.070789516E-1,-2.632104978E-2,9.681659698E0,9.690249769E0
3.559963600E-1,-3.735794425E-1,-5.982056633E-2,1.001934624E1,1.002648688E1
3.583828180E-1,-3.137588799E-1,-1.148554832E-1,1.034237766E1,1.034777329E1
3.607692760E-1,-2.368894368E-1,-1.842473447E-1,1.063460159E1,1.063883521E1
3.631557350E-1,-1.698904037E-1,-2.775674164E-1,1.092413235E1,1.092897863E1
3.655421930E-1,-9.571290761E-2,-3.951148391E-1,1.119242764E1,1.119980862E1
3.679285990E-1,-2.392822644E-3,-5.315057039E-1,1.137667561E1,1.138908477E1
3.703150580E-1,1.220339537E-1,-6.607181430E-1,1.141017437E1,1.142993963E1
3.727015160E-1,2.560320199E-1,-7.492526174E-1,1.129771233E1,1.132542430E1
3.750879740E-1,3.879363835E-1,-7.755736113E-1,1.107518005E1,1.110907837E1
3.774744330E-1,5.147559643E-1,-7.253243923E-1,1.083559799E1,1.087203997E1
3.798608910E-1,6.272186637E-1,-6.104688644E-1,1.065852928E1,1.069440610E1
3.822473490E-1,7.181459069E-1,-4.597210586E-1,1.057478046E1,1.060910264E1
3.846338080E-1,7.947162390E-1,-2.922234535E-1,1.058913708E1,1.062293709E1
3.870202140E-1,8.548358679E-1,-1.220339537E-1,1.073509979E1,1.076977271E1
3.894066720E-1,9.050851464E-1,4.546362907E-2,1.098664474E1,1.102395613E1
3.917931300E-1,9.529415965E-1,1.962114573E-1,1.130249786E1,1.134429613E1
3.941795890E-1,9.984052777E-1,3.281157911E-1,1.164497089E1,1.169229747E1
3.965660470E-1,1.043868899E0,4.429712892E-1,1.195843029E1,1.201207479E1
3.989525050E-1,1.084546804E0,5.386841893E-1,1.222433281E1,1.228416603E1
4.013389640E-1,1.125224829E0,6.152545214E-1,1.244925785E1,1.251513844E1
4.037254220E-1,1.173081279E0,6.846463680E-1,1.262662601E1,1.269947026E1
4.061118280E-1,1.223330617E0,7.444669604E-1,1.277737427E1,1.285737384E1
4.084982870E-1,1.273579836E0,7.971090674E-1,1.290419388E1,1.299136668E1
4.108847450E-1,1.326221943E0,8.476574421E-1,1.300947762E1,1.310434644E1
4.132712030E-1,1.383649707E0,8.859425783E-1,1.310519028E1,1.320777775E1
4.156576620E-1,1.434198022E0,9.074779749E-1,1.320359516E1,1.331222616E1
4.180441200E-1,1.482054472E0,9.074779749E-1,1.329212952E1,1.340524930E1
4.204305780E-1,1.520339727E0,8.907282352E-1,1.337348557E1,1.348906764E1
4.228170370E-1,1.558624864E0,8.620143533E-1,1.344766331E1,1.356510334E1
4.252034430E-1,1.594517231E0,8.258228898E-1,1.351226902E1,1.363106315E1
4.275899010E-1,1.628016710E0,7.899305820E-1,1.357687569E1,1.369693331E1
4.299763600E-1,1.671087503E0,7.492526174E-1,1.366062450E1,1.378283624E1
4.323628180E-1,1.726122379E0,7.109674215E-1,1.375902939E1,1.388509499E1
4.347492760E-1,1.781157374E0,6.846463680E-1,1.387388515E1,1.400449755E1
4.371357350E-1,1.819442511E0,6.678966284E-1,1.400309753E1,1.413659073E1
4.395221930E-1,1.829013824E0,6.607181430E-1,1.413709545E1,1.427022452E1
4.419085990E-1,1.817049742E0,6.655037999E-1,1.427827168E1,1.440880311E1
4.442950580E-1,1.800299883E0,6.774678826E-1,1.442931843E1,1.455696647E1
4.466815160E-1,1.793121457E0,6.918248534E-1,1.458006668E1,1.470619769E1
4.490679740E-1,1.805085540E0,7.085745931E-1,1.474038601E1,1.486739357E1
4.514544330E-1,1.836192250E0,7.181459069E-1,1.490339661E1,1.503324868E1
4.538408910E-1,1.884048700E0,7.253243923E-1,1.506371593E1,1.519839705E1
4.562273490E-1,1.941476464E0,7.205387354E-1,1.521685696E1,1.535712351E1
4.586138080E-1,2.006381750E0,7.133602500E-1,1.536042595E1,1.550732523E1
4.610002140E-1,2.085345030E0,7.037889361E-1,1.549472332E1,1.565025347E1
4.633866720E-1,2.171486616E0,6.894320250E-1,1.560957813E1,1.577496752E1
4.657731300E-1,2.264806747E0,6.726822853E-1,1.570050621E1,1.587727138E1
4.681595890E-1,2.367697954E0,6.487540603E-1,1.576271915E1,1.595274868E1
4.705460470E-1,2.484946251E0,6.128616929E-1,1.578186131E1,1.598804877E1
4.729325050E-1,2.597707987E0,5.745765567E-1,1.575314808E1,1.597622920E1
4.753189640E-1,2.698206663E0,5.338985324E-1,1.567897034E1,1.591840060E1
4.777054220E-1,2.786741018E0,4.932205677E-1,1.555693626E1,1.581225657E1
4.800918280E-1,2.860918522E0,4.573282301E-1,1.540110397E1,1.567124780E1
4.824782870E-1,2.925524712E0,4.262215197E-1,1.521924973E1,1.550373896E1
4.848647450E-1,2.987738132E0,4.094717801E-1,1.501346684E1,1.531334166E1
4.872512030E-1,3.045166016E0,4.046861231E-1,1.479542065E1,1.511096552E1
4.896376620E-1,3.095714331E0,4.118646085E-1,1.457049561E1,1.490142348E1
4.920241200E-1,3.131606579E0,4.310071766E-1,1.433599854E1,1.468038082E1
4.944105780E-1,3.155534744E0,4.573282301E-1,1.409163189E1,1.444785929E1
4.967969850E-1,3.167499065E0,4.860421121E-1,1.382842159E1,1.419487693E1
4.991834430E-1,3.167499065E0,5.147559643E-1,1.356012630E1,1.393467077E1
5.015699010E-1,3.153141975E0,5.434698462E-1,1.328973675E1,1.366948304E1
5.039563600E-1,3.129213810E0,5.602195859E-1,1.301904869E1,1.340154670E1
5.063428180E-1,3.093321562E0,5.721837282E-1,1.274387455E1,1.312639977E1
5.087292760E-1,3.047558784E0,5.673980713E-1,1.246840096E1,1.284797951E1
5.111157350E-1,2.990130901E0,5.458626747E-1,1.219801140E1,1.257101153E1
5.135021930E-1,2.920739174E0,5.003990531E-1,1.194407368E1,1.230617782E1
5.158885990E-1,2.839383125E0,4.381856322E-1,1.171196938E1,1.205920104E1
5.182750580E-1,2.746062994E0,3.640081584E-1,1.149153042E1,1.182068675E1
5.206615160E-1,2.647957325E0,2.850449979E-1,1.129531956E1,1.160504944E1
5.230479740E-1,2.549851656E0,1.986042857E-1,1.110867882E1,1.139929525E1
5.254344330E-1,2.451446772E0,1.124626622E-1,1.093848991E1,1.121038807E1
5.278208910E-1,2.353341103E0,2.632104978E-2,1.079970551E1,1.105316905E1
5.302073490E-1,2.262413740E0,-4.546362907E-2,1.069920731E1,1.093588679E1
5.325937550E-1,2.173879385E0,-9.571290761E-2,1.062742233E1,1.084790385E1
5.349802140E-1,2.082952023E0,-1.363908947E-1,1.057956600E1,1.078352950E1
5.373666720E-1,1.996810555E0,-1.579262912E-1,1.055324554E1,1.074165651E1
5.397531300E-1,1.912762642E0,-1.794617027E-1,1.053649521E1,1.071021002E1
5.421395890E-1,1.829013824E0,-1.890329868E-1,1.052453136E1,1.068394990E1
5.445260470E-1,1.750050664E0,-1.986042857E-1,1.051017475E1,1.065673000E1
5.469125050E-1,1.675873160E0,-2.057827413E-1,1.049342442E1,1.062839844E1
5.492989640E-1,1.608874083E0,-2.057827413E-1,1.046710396E1,1.059202944E1
5.516853700E-1,1.541875124E0,-2.105683982E-1,1.043121147E1,1.054665306E1
5.540718280E-1,1.474876046E0,-2.225325108E-1,1.038574791E1,1.049230860E1
5.564582870E-1,1.412662625E0,-2.297109663E-1,1.032562828E1,1.042434565E1
5.588447450E-1,1.357328653E0,-2.368894368E-1,1.026341438E1,1.035548804E1
5.612312030E-1,1.302293777E0,-2.488535494E-1,1.018684387E1,1.027276425E1
5.636176620E-1,1.254437327E0,-2.560320199E-1,1.010788059E1,1.018864149E1
5.660041200E-1,1.206580877E0,-2.632105052E-1,1.001934624E1,1.009516796E1
5.683905780E-1,1.163509965E0,-2.656033039E-1,9.926026344E0,9.997514668E0
5.707769850E-1,1.120439172E0,-2.656033039E-1,9.823135376E0,9.890395223E0
5.731634430E-1,1.082154036E0,-2.632105052E-1,9.724730492E0,9.788295064E0
5.755499010E-1,1.043868899E0,-2.584248483E-1,9.621838570E0,9.681746905E0
5.779363600E-1,1.012762189E0,-2.464607358E-1,9.523733139E0,9.580601393E0
5.803228180E-1,9.864411354E-1,-2.225325108E-1,9.418449402E0,9.472580217E0
5.827092760E-1,9.553344250E-1,-1.962114573E-1,9.313164711E0,9.364090972E0
5.850957350E-1,9.242277741E-1,-1.651047617E-1,9.212367058E0,9.260084415E0
5.874821410E-1,8.787640929E-1,-1.363908947E-1,9.119047165E0,9.162305933E0
5.898685990E-1,7.851449251E-1,-1.292124242E-1,9.030512810E0,9.065501090E0
5.922550580E-1,7.109674215E-1,-1.268195957E-1,8.939585686E0,8.968709501E0
5.946415160E-1,6.750751138E-1,-1.028913707E-1,8.851051331E0,8.877354488E0
5.970279740E-1,6.559324861E-1,-6.699903309E-2,8.757730484E0,8.782515558E0
5.994144330E-1,6.152545214E-1,-4.067798331E-2,8.659325600E0,8.681250639E0
6.018008910E-1,5.506483316E-1,-3.349951655E-2,8.554041862E0,8.571812410E0
6.041873490E-1,4.956133962E-1,-3.828516230E-2,8.448758125E0,8.463368848E0
6.065737550E-1,4.477569461E-1,-4.067798331E-2,8.348258972E0,8.360356981E0
6.089602140E-1,4.022932947E-1,-4.307080805E-2,8.250153542E0,8.260068308E0
6.113466720E-1,3.616153300E-1,-3.589234129E-2,8.152048111E0,8.160143523E0
6.137331300E-1,3.209373355E-1,-2.392822690E-2,8.063214302E0,8.069634330E0
6.161195890E-1,2.751746178E-1,-7.178467698E-3,7.979465485E0,7.984212048E0
6.185060470E-1,2.392822653E-1,4.785645287E-3,7.900502205E0,7.904126390E0
6.208925050E-1,2.009970993E-1,7.178467698E-3,7.828717709E0,7.831300807E0
6.232789120E-1,1.627119333E-1,1.196411345E-2,7.756932735E0,7.758648321E0
6.256653700E-1,1.220339537E-1,1.196411345E-2,7.685148239E0,7.686126390E0
6.280518280E-1,7.657032460E-2,4.785645287E-3,7.610970497E0,7.611357161E0
6.304382870E-1,3.110669367E-2,-1.196411345E-2,7.543672562E0,7.543746184E0
6.328247450E-1,-1.674975827E-2,-2.871387079E-2,7.481459141E0,7.481532992E0
6.352112030E-1,-5.982056633E-2,-4.785645381E-2,7.426424026E0,7.426819142E0
6.375976620E-1,-1.028913707E-1,-7.657032460E-2,7.371389389E0,7.372505081E0
6.399841200E-1,-1.435693651E-1,-1.100698411E-1,7.318747044E0,7.320982572E0
6.423705260E-1,-1.794617027E-1,-1.435693651E-1,7.273283482E0,7.276913581E0
6.447569850E-1,-2.105683982E-1,-1.722832322E-1,7.237390995E0,7.242502950E0
6.471434430E-1,-2.344966233E-1,-1.938186288E-1,7.211070061E0,7.217484724E0
6.495299010E-1,-2.536391914E-1,-2.153540403E-1,7.191927433E0,7.199620157E0
6.519163600E-1,-2.608176768E-1,-2.344966233E-1,7.177570820E0,7.186135081E0
6.543028180E-1,-2.560320199E-1,-2.584248483E-1,7.158428192E0,7.167665588E0
6.566892760E-1,-2.368894368E-1,-2.874378264E-1,7.136892796E0,7.146605900E0
6.590756830E-1,-2.153540403E-1,-3.137588799E-1,7.112964630E0,7.123137499E0
6.614621410E-1,-1.890329868E-1,-3.400799036E-1,7.091429234E0,7.102095211E0
6.638485990E-1,-1.555334777E-1,-3.664009571E-1,7.072286606E0,7.083479241E0
6.662350580E-1,-1.220339537E-1,-3.879363835E-1,7.057929516E0,7.069636198E0
6.686215160E-1,-8.614161611E-2,-4.070789516E-1,7.043572426E0,7.055851910E0
6.710079740E-1,-5.264209956E-2,-4.238287210E-1,7.029215813E0,7.042178421E0
6.733944330E-1,-1.435693540E-2,-4.286143482E-1,7.012166977E0,7.025268827E0
6.757808390E-1,2.153540403E-2,-4.310071766E-1,7.000202656E0,7.013491868E0
6.781672970E-1,5.503492057E-2,-4.262215197E-1,6.997809887E0,7.010993998E0
6.805537550E-1,8.614161611E-2,-4.166502357E-1,7.000202656E0,7.013120206E0
6.829402140E-1,1.124626622E-1,-3.999004960E-1,7.007380962E0,7.019683484E0
6.853266720E-1,1.459621787E-1,-3.807578981E-1,7.019644260E0,7.031478300E0
6.877131300E-1,1.770688742E-1,-3.616153300E-1,7.041179657E0,7.052682468E0
6.900995890E-1,2.153540403E-1,-3.352942765E-1,7.057929516E0,7.069170295E0
6.924859950E-1,2.584248483E-1,-3.161516786E-1,7.084250450E0,7.096008718E0
6.948724530E-1,3.041875660E-1,-3.017947674E-1,7.115357399E0,7.128248107E0
6.972589120E-1,3.568296731E-1,-2.922234535E-1,7.151249409E0,7.166107037E0
6.996453700E-1,4.166502357E-1,-2.898306549E-1,7.189534664E0,7.207427274E0
7.020318280E-1,4.788636267E-1,-2.946162820E-1,7.232605457E0,7.254425603E0
7.044182870E-1,5.458626747E-1,-3.041875660E-1,7.275676250E0,7.302462669E0
7.068047450E-1,6.128616929E-1,-3.161516786E-1,7.318747044E0,7.351163828E0
7.091912030E-1,6.750751138E-1,-3.352942765E-1,7.366603374E0,7.405065424E0
7.115776100E-1,7.348956466E-1,-3.520440459E-1,7.409674644E0,7.454346716E0
7.139640680E-1,7.851449251E-1,-3.616153300E-1,7.452745438E0,7.502708362E0
7.163505260E-1,8.377870321E-1,-3.687937856E-1,7.517351627E0,7.572877357E0
7.187369850E-1,8.907282352E-1,-3.711866140E-1,7.582256794E0,7.643415099E0
7.211234430E-1,9.409775138E-1,-3.664009571E-1,7.651648521E0,7.717992837E0
7.235099010E-1,9.888339639E-1,-3.544368446E-1,7.725826263E0,7.796910256E0
7.258963600E-1,1.036690354E0,-3.496512175E-1,7.811967850E0,7.888207943E0
7.282827660E-1,1.089332461E0,-3.448655605E-1,7.912466049E0,7.994541666E0
7.306692240E-1,1.146760225E0,-3.424727321E-1,8.015357971E0,8.104215569E0
7.330556830E-1,1.211366415E0,-3.400799036E-1,8.125427246E0,8.222264339E0
7.354421410E-1,1.280758262E0,-3.424727321E-1,8.252546310E0,8.358358087E0
7.378285990E-1,1.357328653E0,-3.448655605E-1,8.362615585E0,8.479069097E0
7.402150580E-1,1.441376567E0,-3.544368446E-1,8.499007225E0,8.627648329E0
7.426015160E-1,1.537089467E0,-3.592225015E-1,8.616254807E0,8.759653630E0
7.449879220E-1,1.637588024E0,-3.735794425E-1,8.743373871E0,8.903249001E0
7.473743800E-1,1.747657895E0,-3.831507266E-1,8.872586250E0,9.051182208E0
7.497608390E-1,1.857727647E0,-3.951148391E-1,8.997013092E0,9.195298381E0
7.521472970E-1,1.963011861E0,-4.046861231E-1,9.133403778E0,9.350735319E0
7.545337550E-1,2.059023857E0,-4.142574072E-1,9.250652313E0,9.486082261E0
7.569202140E-1,2.142772675E0,-4.262215197E-1,9.380164146E0,9.631231434E0
7.593066720E-1,2.221735716E0,-4.381856322E-1,9.497411728E0,9.763654325E0
7.616931300E-1,2.295913219E0,-4.549354017E-1,9.624231339E0,9.904746972E0
7.640795370E-1,2.362912416E0,-4.740779996E-1,9.760622978E0,1.005374885E1
7.664659950E-1,2.413161755E0,-4.884349108E-1,9.878170013E0,1.018038119E1
7.688524530E-1,2.453839540E0,-5.027918816E-1,1.000020409E1,1.030913236E1
7.712389120E-1,2.482553482E0,-5.099703074E-1,1.011505985E1,1.042773117E1
7.736253700E-1,2.494517565E0,-5.123631358E-1,1.023470020E1,1.054676358E1
7.760118280E-1,2.494517565E0,-5.123631358E-1,1.035434151E1,1.066290401E1
7.783982870E-1,2.480160713E0,-5.051847100E-1,1.046471119E1,1.076645666E1
7.807846930E-1,2.456232548E0,-4.956133962E-1,1.057478046E1,1.086759830E1
7.831711510E-1,2.422732830E0,-4.764707983E-1,1.066570759E1,1.094778412E1
7.855576100E-1,2.379662037E0,-4.549354017E-1,1.074945641E1,1.101910026E1
7.879440680E-1,2.322234392E0,-4.286143482E-1,1.081645584E1,1.107123298E1
7.903305260E-1,2.248056889E0,-3.951148391E-1,1.087627602E1,1.111320186E1
7.927169850E-1,2.159522533E0,-3.616153300E-1,1.092652512E1,1.114375405E1
7.951034430E-1,2.059023857E0,-3.257229924E-1,1.095553875E1,1.115210760E1
7.974898490E-1,1.941476464E0,-2.874378264E-1,1.096989536E1,1.114408164E1
7.998763080E-1,1.805085540E0,-2.488535494E-1,1.096750259E1,1.111784039E1
8.022627660E-1,1.661516190E0,-2.129612118E-1,1.094836044E1,1.107576566E1
8.046492240E-1,1.513161182E0,-1.842473447E-1,1.092173958E1,1.102760170E1
8.070356830E-1,1.357328653E0,-1.627119333E-1,1.087627602E1,1.096185186E1
8.094221410E-1,1.204187989E0,-1.483550072E-1,1.082363415E1,1.089142480E1
8.118085990E-1,1.058225870E0,-1.387837082E-1,1.076142120E1,1.081421700E1
8.141950580E-1,9.218349457E-1,-1.339980662E-1,1.069681454E1,1.073729837E1
8.165814640E-1,7.923234105E-1,-1.292124242E-1,1.062981510E1,1.066008637E1
8.189679220E-1,6.726822853E-1,-1.316052526E-1,1.055563831E1,1.057786943E1
8.213543800E-1,5.697908998E-1,-1.363908947E-1,1.048624611E1,1.050260071E1
8.237408390E-1,4.836492836E-1,-1.411765367E-1,1.042642593E1,1.043859211E1
8.261272970E-1,4.166502357E-1,-1.483550072E-1,1.036630630E1,1.037573675E1
8.285137550E-1,3.735794425E-1,-1.531406492E-1,1.031844902E1,1.032634513E1
8.309001620E-1,3.496512175E-1,-1.531406492E-1,1.027298546E1,1.028007482E1
8.332866200E-1,3.448655605E-1,-1.555334777E-1,1.022991467E1,1.023690759E1
8.356730780E-1,3.640081584E-1,-1.603191197E-1,1.018205833E1,1.018982414E1
8.380595370E-1,3.999004960E-1,-1.603191197E-1,1.013659477E1,1.014574671E1
8.404459950E-1,4.501497746E-1,-1.603191197E-1,1.009591675E1,1.010721881E1
8.428324530E-1,5.171487927E-1,-1.627119333E-1,1.005045319E1,1.006506469E1
8.452188600E-1,5.961119533E-1,-1.770688742E-1,1.001695347E1,1.003623732E1
8.476053180E-1,6.870391965E-1,-1.842473447E-1,9.983454704E0,1.000876305E1
8.499917760E-1,7.803592682E-1,-1.770688742E-1,9.964311600E0,9.996390330E0
8.523782350E-1,8.691928387E-1,-1.579262912E-1,9.961918831E0,1.000101313E1
8.547646930E-1,9.553344250E-1,-1.244267747E-1,9.964311600E0,1.001077677E1
8.571511510E-1,1.041476011E0,-8.374879509E-2,9.983454704E0,1.003798057E1
8.595376100E-1,1.130010486E0,-4.785645381E-2,1.000259686E1,1.006633785E1
8.619240680E-1,1.211366415E0,-9.571290575E-3,1.002173901E1,1.009468934E1
8.643104740E-1,1.283151150E0,3.110669367E-2,1.004327488E1,1.012495999E1
8.666969330E-1,1.338186026E0,6.221338734E-2,1.005763149E1,1.014645572E1
8.690833910E-1,1.381256819E0,8.374879509E-2,1.008156013E1,1.017608663E1
8.714698490E-1,1.415055513E0,1.004985496E-1,1.010788059E1,1.020694529E1
8.738563080E-1,1.429412484E0,1.076770201E-1,1.014616585E1,1.024692616E1
8.762427660E-1,1.434198022E0,1.124626622E-1,1.018445110E1,1.028555376E1
8.786292240E-1,1.427019596E0,1.052841991E-1,1.023470020E1,1.033424201E1
8.810156300E-1,1.410269856E0,9.571290761E-2,1.030409241E1,1.040059337E1
8.834020890E-1,1.388435364E0,8.135596663E-2,1.037827015E1,1.047104879E1
8.857885470E-1,1.364507079E0,6.221338734E-2,1.047428226E1,1.056297018E1
8.881750050E-1,1.333400369E0,3.589234129E-2,1.058435154E1,1.066807116E1
8.905614640E-1,1.299900889E0,1.196411345E-2,1.070160007E1,1.078026575E1
8.929479220E-1,1.266401410E0,-9.571290575E-3,1.083559799E1,1.090935598E1
8.953343800E-1,1.237687469E0,-3.110669367E-2,1.097468090E1,1.104429530E1
8.977207870E-1,1.208973646E0,-4.785645381E-2,1.112542915E1,1.119102682E1
9.001072450E-1,1.185045362E0,-5.742774159E-2,1.128814125E1,1.135031997E1
9.024937030E-1,1.163509965E0,-6.221338734E-2,1.145563793E1,1.151474126E1
9.048801620E-1,1.151545882E0,-6.460621208E-2,1.162822056E1,1.168527900E1
9.072666200E-1,1.146760225E0,-6.699903309E-2,1.179332542E1,1.184913805E1
9.096530780E-1,1.153938770E0,-7.178468257E-2,1.195603752E1,1.201180923E1
9.120395370E-1,1.175474167E0,-7.896314561E-2,1.211904812E1,1.217617764E1
9.144259430E-1,1.213759303E0,-8.614161611E-2,1.228415298E1,1.234427181E1
9.168124010E-1,1.264008522E0,-9.332008660E-2,1.246600819E1,1.253027479E1
9.191988600E-1,1.326221943E0,-9.810572863E-2,1.266012573E1,1.272977898E1
9.215853180E-1,1.400399446E0,-9.332008660E-2,1.287787247E1,1.295412778E1
9.239717760E-1,1.489233017E0,-7.417750359E-2,1.311715508E1,1.320163151E1
9.263582350E-1,1.587338686E0,-4.067798331E-2,1.337827110E1,1.347217267E1
9.287446930E-1,1.692622900E0,4.785645287E-3,1.365583897E1,1.376033913E1
9.311311510E-1,1.805085540E0,5.982056633E-2,1.394566917E1,1.406213359E1
9.335175580E-1,1.919941068E0,1.220339537E-1,1.425434399E1,1.438358052E1
9.359040160E-1,2.047059774E0,1.842473447E-1,1.458006668E1,1.472422308E1
9.382904740E-1,2.181057930E0,2.464607358E-1,1.492014694E1,1.508073411E1
9.406769330E-1,2.274377823E0,3.137588799E-1,1.526232052E1,1.543404246E1
9.430633910E-1,2.269592285E0,3.664009571E-1,1.559522152E1,1.576376329E1
9.454498490E-1,2.190629244E0,4.142574072E-1,1.590389538E1,1.605940079E1
9.478362550E-1,2.097309113E0,4.812564552E-1,1.615783310E1,1.630048722E1
9.502227140E-1,1.975275040E0,5.602195859E-1,1.637318802E1,1.650141943E1
9.526091720E-1,1.819442511E0,6.415755749E-1,1.654307938E1,1.665519335E1
9.549956300E-1,1.613659739E0,7.037889361E-1,1.667019653E1,1.676289561E1
9.573820890E-1,1.359721422E0,7.301099896E-1,1.675394630E1,1.682488097E1
9.597685470E-1,1.067797065E0,7.181459069E-1,1.677069664E1,1.681999375E1
9.621550050E-1,7.444669604E-1,6.726822853E-1,1.674437523E1,1.677441010E1
9.645414640E-1,4.118646085E-1,6.032904387E-1,1.662951851E1,1.664555429E1
9.669278700E-1,9.571290761E-2,5.195416212E-1,1.641625977E1,1.642475781E1
9.693143280E-1,-2.273181528E-1,4.310071766E-1,1.618894005E1,1.619627181E1
9.717007870E-1,-5.362913609E-1,3.329014480E-1,1.595653820E1,1.596901823E1
9.740872450E-1,-8.090731502E-1,2.129612118E-1,1.568136311E1,1.570366520E1
9.764737030E-1,-1.039083242E0,6.939185411E-2,1.535085487E1,1.538613839E1
9.788601620E-1,-1.235294700E0,-9.092725813E-2,1.497039604E1,1.502155047E1
9.812465680E-1,-1.398006678E0,-2.536391914E-1,1.458006668E1,1.464913308E1
9.836330260E-1,-1.541875124E0,-4.046861231E-1,1.417777348E1,1.426710939E1
9.860194850E-1,-1.663909078E0,-5.482555032E-1,1.378535080E1,1.389622518E1
9.884059430E-1,-1.766800404E0,-6.822535396E-1,1.339023590E1,1.352351548E1
9.907924010E-1,-1.855334878E0,-8.138588071E-1,1.300708485E1,1.316392380E1
9.931788600E-1,-1.936690807E0,-9.385846853E-1,1.262393379E1,1.280606953E1
9.955653180E-1,-2.003988981E0,-1.046261668E0,1.223868942E1,1.244572835E1
9.979517240E-1,-2.059023857E0,-1.134796143E0,1.186989594E1,1.210048640E1
1.000338183E0,-2.109273195E0,-1.194616675E0,1.152293682E1,1.177515246E1
1.002724641E0,-2.142772675E0,-1.228116274E0,1.118764210E1,1.145701008E1
1.005111099E0,-2.157129526E0,-1.230509043E0,1.086670494E1,1.114686667E1
1.007497558E0,-2.121237278E0,-1.218544960E0,1.057238770E1,1.085172249E1
1.009884016E0,-2.073380709E0,-1.182652593E0,1.030409241E1,1.057695112E1
1.012270474E0,-2.015953064E0,-1.127617717E0,1.005284595E1,1.031480975E1
1.014656880E0,-1.963011861E0,-1.058225870E0,9.818050385E0,1.006813642E1
1.017043339E0,-1.915155411E0,-9.768698215E-1,9.626625061E0,9.863772349E0
1.019429797E0,-1.867298961E0,-8.955138922E-1,9.473484039E0,9.697198069E0
1.021816255E0,-1.857727647E0,-7.971090674E-1,9.329915047E0,9.546405064E0
1.024202714E0,-1.867298961E0,-6.966105103E-1,9.178867340E0,9.392745991E0
1.026589172E0,-1.886441588E0,-5.985047817E-1,9.056833267E0,9.270550074E0
1.028975578E0,-1.905584097E0,-5.075774789E-1,8.944371223E0,9.159184583E0
1.031362037E0,-1.924726725E0,-4.142574072E-1,8.855836868E0,9.072046561E0
1.033748495E0,-1.946262121E0,-3.233301640E-1,8.784051895E0,9.002890999E0
1.036134953E0,-1.963011861E0,-2.368894368E-1,8.731410027E0,8.952488661E0
1.038521412E0,-1.972882271E0,-1.507478207E-1,8.676075935E0,8.898836047E0
1.040907870E0,-1.968096614E0,-6.939185411E-2,8.621041298E0,8.843108762E0
1.043294328E0,-1.953440547E0,4.785645287E-3,8.561220169E0,8.781255244E0
1.045680735E0,-1.922333837E0,7.417750359E-2,8.515756607E0,8.730348233E0
1.048067193E0,-1.881655931E0,1.339980662E-1,8.467900276E0,8.675478063E0
1.050453651E0,-1.819442511E0,1.914258152E-1,8.417651176E0,8.614166600E0
1.052840110E0,-1.747657895E0,2.512463629E-1,8.360222816E0,8.544633310E0
1.055226568E0,-1.675873160E0,2.970091105E-1,8.309973717E0,8.482477730E0
1.057613026E0,-1.613659739E0,3.376871049E-1,8.250153542E0,8.413261187E0
1.059999485E0,-1.570588946E0,3.783650696E-1,8.183154106E0,8.341098302E0
1.062385891E0,-1.549053550E0,4.166502357E-1,8.115856171E0,8.272864419E0
1.064772349E0,-1.546660781E0,4.645066857E-1,8.060821533E0,8.220995671E0
1.067158808E0,-1.565803289E0,5.123631358E-1,8.001000404E0,8.168859369E0
1.069545266E0,-1.599302888E0,5.650052428E-1,7.943572998E0,8.122644436E0
1.071931724E0,-1.649552107E0,6.152545214E-1,7.888537884E0,8.082610359E0
1.074318183E0,-1.711765528E0,6.583253145E-1,7.847859859E0,8.059307527E0
1.076704641E0,-1.788335800E0,6.966105103E-1,7.797610760E0,8.030326562E0
1.079091047E0,-1.867298961E0,7.205387354E-1,7.742575645E0,7.997090665E0
1.081477505E0,-1.951047778E0,7.277171612E-1,7.697112083E0,7.973813023E0
1.083863964E0,-2.032702923E0,7.277171612E-1,7.658827305E0,7.957329271E0
1.086250422E0,-2.106880426E0,7.157530785E-1,7.620542049E0,7.938759899E0
1.088636880E0,-2.178664923E0,6.942176819E-1,7.584649563E0,7.921832365E0
1.091023339E0,-2.243271112E0,6.750751138E-1,7.565207958E0,7.919618876E0
1.093409797E0,-2.300698996E0,6.535396576E-1,7.558029652E0,7.927429733E0
1.095796203E0,-2.355733871E0,6.320042610E-1,7.562815189E0,7.946388176E0
1.098182662E0,-2.405983210E0,6.152545214E-1,7.574779034E0,7.971484852E0
1.100569120E0,-2.451446772E0,5.937191248E-1,7.608577728E0,8.015768754E0
1.102955578E0,-2.492124796E0,5.793621540E-1,7.656434059E0,8.072628383E0
1.105342037E0,-2.528316259E0,5.673980713E-1,7.711469173E0,8.135175505E0
1.107728495E0,-2.559422970E0,5.626124144E-1,7.768897057E0,8.198959699E0
1.110114953E0,-2.588136673E0,5.602195859E-1,7.843074322E0,8.278050026E0
1.112501360E0,-2.612065077E0,5.602195859E-1,7.914859295E0,8.353545810E0
1.114887818E0,-2.631207705E0,5.554339290E-1,7.981858253E0,8.422696837E0
1.117274276E0,-2.650350094E0,5.530411601E-1,8.039285660E0,8.482943125E0
1.119660735E0,-2.667099953E0,5.506483316E-1,8.106285095E0,8.551519969E0
1.122047193E0,-2.676671267E0,5.554339290E-1,8.164011955E0,8.609539310E0
1.124433651E0,-2.676671267E0,5.626124144E-1,8.209475517E0,8.653126029E0
1.126820110E0,-2.669492722E0,5.673980713E-1,8.240582466E0,8.680744861E0
1.129206516E0,-2.657528639E0,5.673980713E-1,8.271688461E0,8.706619840E0
1.131592974E0,-2.638386011E0,5.721837282E-1,8.298009872E0,8.726135617E0
1.133979433E0,-2.607279301E0,5.769693851E-1,8.312366486E0,8.730763747E0
1.136365891E0,-2.568994284E0,5.769693851E-1,8.326724052E0,8.733095599E0
1.138752349E0,-2.523231506E0,5.721837282E-1,8.345866203E0,8.737709891E0
1.141138808E0,-2.472982168E0,5.626124144E-1,8.360222816E0,8.736446593E0
1.143525214E0,-2.415554523E0,5.506483316E-1,8.376973152E0,8.735662335E0
1.145911672E0,-2.355733871E0,5.386841893E-1,8.403293610E0,8.743855341E0
1.148298130E0,-2.288734913E0,5.267201066E-1,8.432007790E0,8.752970749E0
1.150684589E0,-2.216950178E0,5.147559643E-1,8.460721970E0,8.761487205E0
1.153071047E0,-2.140379906E0,4.956133962E-1,8.482256889E0,8.762165298E0
1.155457505E0,-2.059023857E0,4.740779996E-1,8.506185532E0,8.764674637E0
1.157843964E0,-1.970489502E0,4.453641176E-1,8.534899712E0,8.770729226E0
1.160230370E0,-1.874477386E0,4.190430641E-1,8.566005707E0,8.778708124E0
1.162616828E0,-1.778764486E0,3.927220106E-1,8.589934349E0,8.780956998E0
1.165003287E0,-1.675873160E0,3.640081584E-1,8.609076500E0,8.778225958E0
1.167389745E0,-1.575374603E0,3.352942765E-1,8.630612373E0,8.779618291E0
1.169776203E0,-1.474876046E0,3.017947674E-1,8.642576218E0,8.772711275E0
1.172162662E0,-1.371685624E0,2.536391914E-1,8.661719322E0,8.773325248E0
1.174549068E0,-1.275972724E0,2.081755698E-1,8.673683167E0,8.769505296E0
1.176935526E0,-1.180259824E0,1.603191197E-1,8.690432549E0,8.771677910E0
1.179321985E0,-1.084546804E0,1.052841991E-1,8.714659691E0,8.782517866E0
1.181708443E0,-9.984052777E-1,5.264209956E-2,8.731410027E0,8.788464333E0
1.184094901E0,-9.218349457E-1,-2.392822644E-3,8.757730484E0,8.806113139E0
1.186481360E0,-8.500502706E-1,-5.982056633E-2,8.779266357E0,8.820526160E0
1.188867818E0,-7.827520967E-1,-1.292124242E-1,8.798408508E0,8.834103745E0
1.191254224E0,-7.229315639E-1,-1.962114573E-1,8.817551613E0,8.849313274E0
1.193640683E0,-6.655037999E-1,-2.703889608E-1,8.839086533E0,8.868227344E0
1.196027141E0,-6.128616929E-1,-3.424727321E-1,8.853444099E0,8.881236369E0
1.198413599E0,-5.554339290E-1,-4.118646085E-1,8.863015175E0,8.889948104E0
1.200800058E0,-4.932205677E-1,-4.764707983E-1,8.872586250E0,8.899049259E0
1.203186516E0,-4.214358926E-1,-5.386841893E-1,8.872586250E0,8.898908677E0
1.205572922E0,-3.424727321E-1,-6.008976102E-1,8.867800713E0,8.894731867E0
1.207959380E0,-2.608176768E-1,-6.559324861E-1,8.848658562E0,8.876769211E0
1.210345839E0,-1.674975902E-1,-7.037889361E-1,8.815158844E0,8.844795066E0
1.212732297E0,-6.460621208E-2,-7.444669604E-1,8.776873589E0,8.808627306E0
1.215118755E0,5.264209956E-2,-7.827520967E-1,8.738588333E0,8.773733418E0
1.217505214E0,1.746760458E-1,-8.090731502E-1,8.697610855E0,8.736907100E0
1.219891672E0,3.089732230E-1,-8.210372925E-1,8.656932831E0,8.701267306E0
1.222278078E0,4.573282301E-1,-8.186444640E-1,8.621041298E0,8.671890274E0
1.224664537E0,6.128616929E-1,-7.899305820E-1,8.592327118E0,8.650299132E0
1.227050995E0,7.707880139E-1,-7.492526174E-1,8.561220169E0,8.628440440E0
1.229437453E0,9.337990284E-1,-6.990033388E-1,8.527720451E0,8.607125094E0
1.231823912E0,1.096511006E0,-6.463612318E-1,8.487042427E0,8.581958307E0
1.234210370E0,1.252044439E0,-6.032904387E-1,8.451150894E0,8.564667306E0
1.236596828E0,1.405484200E0,-5.650052428E-1,8.420043945E0,8.555218104E0
1.238983235E0,1.551446438E0,-5.291129351E-1,8.386544228E0,8.545236722E0
1.241369693E0,1.692622900E0,-4.956133962E-1,8.360222816E0,8.544233755E0
1.243756151E0,1.829013824E0,-4.621138871E-1,8.333902359E0,8.544750982E0
1.246142610E0,1.951047778E0,-4.310071766E-1,8.309973717E0,8.546813312E0
1.248529068E0,2.051845312E0,-4.022932947E-1,8.305188179E0,8.564348181E0
1.250915526E0,2.135594130E0,-3.783650696E-1,8.307580948E0,8.586024902E0
1.253301933E0,2.212164640E0,-3.568296731E-1,8.326724052E0,8.622953859E0
1.255688391E0,2.283949137E0,-3.305086195E-1,8.353044510E0,8.665968624E0
1.258074849E0,2.353341103E0,-3.017947674E-1,8.388936996E0,8.718001970E0
1.260461308E0,2.429911375E0,-2.775674164E-1,8.436793327E0,8.784133117E0
1.262847766E0,2.508874655E0,-2.584248483E-1,8.484649658E0,8.851582641E0
1.265234224E0,2.588136673E0,-2.368894368E-1,8.532505989E0,8.919541832E0
1.267620683E0,2.659921408E0,-2.201396823E-1,8.585148811E0,8.990462918E0
1.270007089E0,2.724527597E0,-2.057827413E-1,8.630612373E0,9.052782285E0
1.272393547E0,2.774776936E0,-1.914258152E-1,8.678468704E0,9.113278770E0
1.274780005E0,2.810669184E0,-1.794617027E-1,8.719446182E0,9.163013123E0
1.277166464E0,2.834597588E0,-1.651047617E-1,8.752944946E0,9.201969805E0
1.279552922E0,2.848954439E0,-1.507478207E-1,8.779266357E0,9.231185410E0
1.281939380E0,2.863311291E0,-1.363908947E-1,8.803194046E0,9.258152053E0
1.284325787E0,2.882453918E0,-1.268195957E-1,8.822337151E0,9.282147198E0
1.286712245E0,2.937488794E0,-1.411765367E-1,8.827122688E0,9.304131673E0
1.289098703E0,3.066701412E0,-1.890329868E-1,8.800801277E0,9.321721630E0
1.291485162E0,3.248854876E0,-2.488535494E-1,8.748159409E0,9.335270705E0
1.293871620E0,3.375674486E0,-2.703889608E-1,8.695218086E0,9.331404288E0
1.296258078E0,3.430709362E0,-2.321037948E-1,8.647361755E0,9.305939191E0
1.298644537E0,3.425923824E0,-1.531406492E-1,8.601898193E0,9.260294738E0
1.301030943E0,3.380460262E0,-6.460621208E-2,8.549256325E0,9.193555855E0
1.303417401E0,3.313461065E0,3.589234129E-2,8.494221687E0,9.117681425E0
1.305803860E0,3.227319479E0,1.459621787E-1,8.458329201E0,9.054293393E0
1.308190318E0,3.129213810E0,2.584248483E-1,8.436793327E0,9.002124423E0
1.310576776E0,3.026023388E0,3.711866140E-1,8.432007790E0,8.966234015E0
1.312963235E0,2.920739174E0,4.788636267E-1,8.434400558E0,8.938631913E0
1.315349641E0,2.817847729E0,5.626124144E-1,8.432007790E0,8.908173433E0
1.317736099E0,2.726920605E0,6.272186637E-1,8.432007790E0,8.884157507E0
1.320122558E0,2.647957325E0,6.822535396E-1,8.446364403E0,8.877962577E0
1.322509016E0,2.571387053E0,7.277171612E-1,8.477471352E0,8.888707676E0
1.324895474E0,2.508874655E0,7.683951855E-1,8.520542145E0,8.915409224E0
1.327281933E0,2.453839540E0,7.971090674E-1,8.570791245E0,8.950708012E0
1.329668339E0,2.408375978E0,8.114659786E-1,8.621041298E0,8.987830937E0
1.332054797E0,2.362912416E0,8.114659786E-1,8.664112091E0,9.017132052E0
1.334441255E0,2.315055847E0,7.947162390E-1,8.712266922E0,9.049566420E0
1.336827714E0,2.269592285E0,7.636095285E-1,8.762516975E0,9.083823666E0
1.339214172E0,2.221735716E0,7.181459069E-1,8.812766075E0,9.116835472E0
1.341600630E0,2.185843468E0,6.631109715E-1,8.863015175E0,9.152631633E0
1.343987089E0,2.157129526E0,6.008976102E-1,8.920442581E0,9.197205096E0
1.346373495E0,2.126022816E0,5.362913609E-1,8.977870941E0,9.241739451E0
1.348759953E0,2.099701881E0,4.764707983E-1,9.037691116E0,9.290620707E0
1.351146412E0,2.078166485E0,4.190430641E-1,9.092725754E0,9.336596525E0
1.353532870E0,2.059023857E0,3.735794425E-1,9.142974854E0,9.379399235E0
1.355919328E0,2.035095692E0,3.305086195E-1,9.183652878E0,9.412243654E0
1.358305787E0,2.006381750E0,2.994019389E-1,9.217152596E0,9.437749266E0
1.360692193E0,1.970489502E0,2.751746178E-1,9.241081238E0,9.452837267E0
1.363078651E0,1.924726725E0,2.560320199E-1,9.257830620E0,9.459257537E0
1.365465110E0,1.872084618E0,2.488535494E-1,9.260522842E0,9.451132854E0
1.367851568E0,1.805085540E0,2.560320199E-1,9.253045082E0,9.430945313E0
1.370238026E0,1.733300924E0,2.632105052E-1,9.243474007E0,9.408263579E0
1.372624485E0,1.659123421E0,2.775674164E-1,9.224330902E0,9.376460675E0
1.375010943E0,1.572981834E0,2.922234535E-1,9.205188751E0,9.343188232E0
1.377397401E0,1.484447360E0,3.113660514E-1,9.190832138E0,9.315145097E0
1.379783808E0,1.388435364E0,3.352942765E-1,9.186046600E0,9.296430883E0
1.382170266E0,1.287936807E0,3.544368446E-1,9.193224907E0,9.289768075E0
1.384556724E0,1.182652593E0,3.759722710E-1,9.214759827E0,9.297947137E0
1.386943183E0,1.077368379E0,3.999004960E-1,9.253045082E0,9.324134615E0
1.389329641E0,9.744769931E-1,4.262215197E-1,9.310771942E0,9.371325645E0
1.391716099E0,8.715856671E-1,4.597210586E-1,9.384949684E0,9.436539917E0
1.394102505E0,7.731808424E-1,4.884349108E-1,9.478269577E0,9.522288142E0
1.396488964E0,6.822535396E-1,5.267201066E-1,9.573982239E0,9.612702007E0
1.398875422E0,5.985047817E-1,5.697908998E-1,9.679266930E0,9.714477749E0
1.401261880E0,5.219344497E-1,6.152545214E-1,9.801301003E0,9.834452452E0
1.403648339E0,4.453641176E-1,6.583253145E-1,9.926026344E0,9.957797970E0
1.406034797E0,3.855435550E-1,7.013961077E-1,1.003609657E1,1.006796080E1
1.408421203E0,3.568296731E-1,7.516453862E-1,1.015095139E1,1.018499446E1
1.410807662E0,3.568296731E-1,8.042874932E-1,1.025862885E1,1.029629407E1
1.413194120E0,3.759722710E-1,8.548358679E-1,1.036869907E1,1.041066857E1
1.415580578E0,4.070789516E-1,9.050851464E-1,1.047428226E1,1.052119201E1
1.417967037E0,4.573282301E-1,9.505487680E-1,1.058913708E1,1.064154670E1
1.420353495E0,5.123631358E-1,9.936196208E-1,1.070638561E1,1.076459422E1
1.422739901E0,5.769693851E-1,1.036690354E0,1.083799076E1,1.090273655E1
1.425126360E0,6.415755749E-1,1.074975610E0,1.097228813E1,1.104347312E1
1.427512818E0,7.037889361E-1,1.113260746E0,1.112782192E1,1.120549370E1
1.429899276E0,7.660023570E-1,1.153938770E0,1.129292679E1,1.137754498E1
1.432285735E0,8.234301209E-1,1.197009563E0,1.147956657E1,1.157114159E1
1.434672193E0,8.739784956E-1,1.244866014E0,1.167846966E1,1.177710420E1
1.437058651E0,9.266205430E-1,1.297508121E0,1.188664532E1,1.199310176E1
1.439445058E0,9.768698215E-1,1.350150228E0,1.209751320E1,1.221175687E1
1.441831516E0,1.031904817E0,1.407876968E0,1.231047440E1,1.243361271E1
1.444217974E0,1.089332461E0,1.474876046E0,1.252343559E1,1.265694843E1
1.446604433E0,1.156331539E0,1.546660781E0,1.273430347E1,1.287989702E1
1.448990891E0,1.225723386E0,1.630409479E0,1.293529987E1,1.309513710E1
1.451377349E0,1.302293777E0,1.716551185E0,1.313868999E1,1.331419137E1
1.453763755E0,1.386042476E0,1.807478428E0,1.333998585E1,1.353304528E1
1.456150214E0,1.477268934E0,1.896012783E0,1.353859043E1,1.375029523E1
1.458536672E0,1.565803289E0,1.982453585E0,1.373719501E1,1.396754771E1
1.460923130E0,1.647159338E0,2.063809633E0,1.393849087E1,1.418640094E1
1.463309589E0,1.721336842E0,2.135594130E0,1.414188099E1,1.440543511E1
1.465696047E0,1.781157374E0,2.195414782E0,1.434078407E1,1.461678677E1
1.468082505E0,1.831406593E0,2.228914261E0,1.451785278E1,1.480169444E1
1.470468912E0,1.910369754E0,2.216950178E0,1.467338657E1,1.496237462E1
1.472855370E0,2.001596212E0,2.171486616E0,1.482892036E1,1.512013957E1
1.475241828E0,2.061416626E0,2.104487419E0,1.501107407E1,1.529740666E1
1.477628287E0,2.195414782E0,1.984846354E0,1.516660690E1,1.545268346E1
1.480014745E0,2.315055847E0,1.833799481E0,1.529581928E1,1.557833084E1
1.482401203E0,2.353341103E0,1.668694735E0,1.543968773E1,1.570690019E1
1.484787610E0,2.310270309E0,1.498804331E0,1.559522152E1,1.583649890E1
1.487174068E0,2.207378864E0,1.323829174E0,1.574357700E1,1.595259421E1
1.489560526E0,2.061416626E0,1.144367456E0,1.587757492E1,1.605167906E1
1.491946985E0,1.876870275E0,9.768698215E-1,1.598525143E1,1.612467612E1
1.494333443E0,1.656730533E0,8.258228898E-1,1.605015755E1,1.615655585E1
1.496719901E0,1.388435364E0,7.013961077E-1,1.608605003E1,1.616108644E1
1.499106308E0,1.084546804E0,6.008976102E-1,1.609801292E1,1.614569106E1
1.501492766E0,7.707880139E-1,5.267201066E-1,1.608605003E1,1.611311745E1
1.503879224E0,4.214358926E-1,5.123631358E-1,1.603101349E1,1.604473489E1
1.506265683E0,1.914258115E-2,5.434698462E-1,1.596850204E1,1.597775903E1
1.508652141E0,-4.070789516E-1,6.200401783E-1,1.588953876E1,1.590684146E1
1.511038599E0,-8.476574421E-1,7.301099896E-1,1.580339718E1,1.584294626E1
1.513425005E0,-1.292722464E0,8.282157183E-1,1.571964836E1,1.579444261E1
1.515811464E0,-1.730908036E0,8.955138922E-1,1.558325768E1,1.570464605E1
1.518197922E0,-2.140379906E0,9.290133715E-1,1.542263889E1,1.559814356E1
1.520584380E0,-2.504088879E0,9.385846853E-1,1.518575001E1,1.541941651E1
1.522970839E0,-2.815454960E0,9.385846853E-1,1.491057491E1,1.520305798E1
1.525357297E0,-3.078665495E0,9.361918569E-1,1.458245945E1,1.493327694E1
1.527743755E0,-3.299104214E0,9.314061999E-1,1.421605873E1,1.462354034E1
1.530130162E0,-3.480958700E0,9.290133715E-1,1.382842159E1,1.429004489E1
1.532516620E0,-3.638885021E0,9.290133715E-1,1.342134190E1,1.393689235E1
1.534903078E0,-3.780360699E0,9.337990284E-1,1.300469208E1,1.357516570E1
1.537289537E0,-3.909573078E0,9.433703423E-1,1.258804131E1,1.321489664E1
1.539675995E0,-4.005286217E0,9.672985673E-1,1.218604755E1,1.286381511E1
1.542062401E0,-4.053142548E0,1.027119160E0,1.178853989E1,1.250810181E1
1.544448860E0,-4.065106392E0,1.106082320E0,1.140778160E1,1.216083834E1
1.546835318E0,-4.045963764E0,1.187438250E0,1.104168034E1,1.181941356E1
1.549221776E0,-4.000500202E0,1.266401410E0,1.069202900E1,1.148595919E1
1.551608235E0,-3.938287020E0,1.347757339E0,1.036151981E1,1.116636231E1
1.553994693E0,-3.866502285E0,1.429412484E0,1.004566765E1,1.085856798E1
1.556381151E0,-3.782753468E0,1.510768414E0,9.739087105E0,1.055658385E1
1.558767558E0,-3.691826344E0,1.589731574E0,9.439984322E0,1.026012340E1
1.561154016E0,-3.588635683E0,1.666301847E0,9.152546883E0,9.971157523E0
1.563540474E0,-3.478565931E0,1.721336842E0,8.882157326E0,9.693097555E0
1.565926933E0,-3.361317635E0,1.757229090E0,8.640183449E0,9.436052159E0
1.568313391E0,-3.239283562E0,1.773978829E0,8.446364403E0,9.218515635E0
1.570699849E0,-3.112463951E0,1.771586061E0,8.300402641E0,9.040057136E0
1.573086308E0,-2.994916677E0,1.754836321E0,8.214261055E0,8.917570358E0
1.575472714E0,-2.882453918E0,1.726122379E0,8.178368568E0,8.841592136E0
1.577859172E0,-2.779562712E0,1.685444474E0,8.185546875E0,8.807375863E0
1.580245630E0,-2.683849812E0,1.637588024E0,8.228617668E0,8.808796347E0
1.582632089E0,-2.595315218E0,1.570588946E0,8.309973717E0,8.846359358E0
1.585018547E0,-2.523231506E0,1.479661703E0,8.420043945E0,8.913654471E0
1.587404953E0,-2.463410854E0,1.366899967E0,8.549256325E0,9.001477227E0
1.589791412E0,-2.417947292E0,1.240080357E0,8.695218086E0,9.109944345E0
1.592177870E0,-2.382055044E0,1.096511006E0,8.841479301E0,9.222162374E0
1.594564328E0,-2.355733871E0,9.409775138E-1,8.980263710E0,9.331669575E0
1.596950787E0,-2.338984251E0,7.755736113E-1,9.095118523E0,9.423032564E0
1.599337245E0,-2.324627161E0,6.080760360E-1,9.195617676E0,9.504369119E0
1.601723703E0,-2.315055847E0,4.405784607E-1,9.267701149E0,9.562629217E0
1.604110110E0,-2.312663078E0,2.799602449E-1,9.310771942E0,9.597773826E0
1.606496568E0,-2.327019930E0,1.292124242E-1,9.322735786E0,9.609636837E0
1.608883026E0,-2.353341103E0,-7.178467698E-3,9.308379173E0,9.601259746E0
1.611269485E0,-2.403590441E0,-1.292124242E-1,9.272486687E0,9.579820051E0
1.613655943E0,-2.472982168E0,-2.440679073E-1,9.205188751E0,9.534710792E0
1.616042349E0,-2.559422970E0,-3.472583890E-1,9.116654396E0,9.475474748E0
1.618428808E0,-2.657528639E0,-4.405784607E-1,9.018548965E0,9.412268233E0
1.620815266E0,-2.760420084E0,-5.219344497E-1,8.901300430E0,9.334103276E0
1.623201724E0,-2.865704298E0,-5.985047817E-1,8.781659126E0,9.256781628E0
1.625588183E0,-2.966202736E0,-6.655037999E-1,8.642576218E0,9.161625274E0
1.627974641E0,-3.057130098E0,-7.229315639E-1,8.520542145E0,9.081206579E0
1.630361047E0,-3.129213810E0,-7.731808424E-1,8.384151459E0,8.982415230E0
1.632747505E0,-3.184248686E0,-8.162516356E-1,8.254939079E0,8.885365813E0
1.635133964E0,-3.224926710E0,-8.548358679E-1,8.132605553E0,8.790345256E0
1.637520422E0,-3.246462107E0,-8.859425783E-1,8.015357971E0,8.693122216E0
1.639906880E0,-3.248854876E0,-9.122636318E-1,7.912466049E0,8.601999879E0
1.642293339E0,-3.236890793E0,-9.361918569E-1,7.833503246E0,8.527466817E0
1.644679797E0,-3.210569859E0,-9.601200819E-1,7.771289825E0,8.463009804E0
1.647066203E0,-3.174677372E0,-9.840483069E-1,7.730611801E0,8.414825388E0
1.649452662E0,-3.136392355E0,-1.005583763E0,7.706683636E0,8.380998053E0
1.651839120E0,-3.095714331E0,-1.019940615E0,7.704290867E0,8.365394422E0
1.654225578E0,-3.052344322E0,-1.017547846E0,7.718647480E0,8.362399680E0
1.656612037E0,-3.004487991E0,-1.005583763E0,7.752147198E0,8.374600466E0
1.658998495E0,-2.951845884E0,-9.864411354E-1,7.802396297E0,8.400229058E0
1.661384901E0,-2.887239695E0,-9.553344250E-1,7.864609718E0,8.432135135E0
1.663771360E0,-2.808276415E0,-9.170492887E-1,7.941180229E0,8.472882582E0
1.666157818E0,-2.710170746E0,-8.763712645E-1,8.029714584E0,8.519939458E0
1.668544276E0,-2.585743904E0,-8.330013752E-1,8.127820015E0,8.569797024E0
1.670930735E0,-2.437089920E0,-7.923234105E-1,8.226224899E0,8.616145296E0
1.673317193E0,-2.262413740E0,-7.540382147E-1,8.326724052E0,8.661490807E0
1.675703599E0,-2.061416626E0,-7.157530785E-1,8.436793327E0,8.714426121E0
1.678090058E0,-1.833799481E0,-6.726822853E-1,8.544470787E0,8.764890360E0
1.680476516E0,-1.582553029E0,-6.176473498E-1,8.656932831E0,8.822043322E0
1.682862974E0,-1.307079315E0,-5.506483316E-1,8.776873589E0,8.890735623E0
1.685249433E0,-1.019940615E0,-4.692923427E-1,8.908478737E0,8.978948021E0
1.687635891E0,-7.253243923E-1,-3.711866140E-1,9.052047729E0,9.088643632E0
1.690022297E0,-4.286143482E-1,-2.632105052E-1,9.209974289E0,9.223698631E0
1.692408755E0,-1.339980662E-1,-1.483550072E-1,9.392127991E0,9.394255313E0
1.694795214E0,1.579262912E-1,-2.871387079E-2,9.593125343E0,9.594468148E0
1.697181672E0,4.357928336E-1,8.374879509E-2,9.803693771E0,9.813732257E0
1.699568130E0,6.918248534E-1,1.890329868E-1,1.002413273E1,1.004975582E1
1.701954589E0,9.194421172E-1,2.874378264E-1,1.025862885E1,1.030375951E1
1.704340995E0,1.110867858E0,3.783650696E-1,1.050299549E1,1.056835379E1
1.706727453E0,1.268794179E0,4.477569461E-1,1.074706364E1,1.083096033E1
1.709113912E0,1.390828133E0,4.956133962E-1,1.098903847E1,1.108778616E1
1.711500370E0,1.474876046E0,5.195416212E-1,1.121635628E1,1.132483249E1
1.713886828E0,1.527518153E0,5.147559643E-1,1.142453194E1,1.153768674E1
1.716273287E0,1.549053550E0,4.860421121E-1,1.160429287E1,1.171731270E1
1.718659745E0,1.544267893E0,4.310071766E-1,1.175264740E1,1.186150292E1
1.721046151E0,1.520339727E0,3.496512175E-1,1.187707424E1,1.197908934E1
1.723432610E0,1.479661703E0,2.392822653E-1,1.195125198E1,1.204487770E1
1.725819068E0,1.419841170E0,1.124626622E-1,1.197039413E1,1.205483026E1
1.728205526E0,1.338186026E0,-2.871387079E-2,1.192014503E1,1.199505831E1
1.730591985E0,1.230509043E0,-1.722832322E-1,1.180528927E1,1.187049657E1
1.732978443E0,1.096511006E0,-3.113660514E-1,1.163300610E1,1.168871747E1
1.735364849E0,9.457631707E-1,-4.453641176E-1,1.142931747E1,1.147702553E1
1.737751308E0,7.755736113E-1,-5.721837282E-1,1.119960594E1,1.124100004E1
1.740137766E0,6.032904387E-1,-6.846463680E-1,1.096032429E1,1.099824570E1
1.742524224E0,4.334000051E-1,-7.899305820E-1,1.071834946E1,1.075615363E1
1.744910683E0,2.703889608E-1,-8.907282352E-1,1.047667503E1,1.051794784E1
1.747297141E0,1.172483116E-1,-9.840483069E-1,1.023470020E1,1.028256712E1
1.749683547E0,-2.392822690E-2,-1.065404296E0,9.988240242E0,1.004492917E1
1.752070005E0,-1.579262912E-1,-1.144367456E0,9.739087105E0,9.807361277E0
1.754456464E0,-2.727817893E-1,-1.206580877E0,9.480662346E0,9.561025355E0
1.756842922E0,-3.807578981E-1,-1.259222865E0,9.217152596E0,9.310559638E0
1.759229380E0,-4.692923427E-1,-1.302293777E0,8.953942299E0,9.060313851E0
1.761615839E0,-5.362913609E-1,-1.345364571E0,8.688039780E0,8.807931055E0
1.764002245E0,-5.961119533E-1,-1.381256819E0,8.429615021E0,8.562804988E0
1.766388703E0,-6.487540603E-1,-1.405484200E0,8.166404724E0,8.311824937E0
1.768775162E0,-6.918248534E-1,-1.424626827E0,7.902894974E0,8.060020607E0
1.771161620E0,-7.229315639E-1,-1.436590910E0,7.644470215E0,7.811808264E0
1.773548078E0,-7.372884750E-1,-1.441376567E0,7.390532017E0,7.565786423E0
1.775934537E0,-7.348956466E-1,-1.436590910E0,7.160820961E0,7.340382953E0
1.778320943E0,-7.181459069E-1,-1.424626827E0,6.945167542E0,7.126054120E0
1.780707401E0,-6.870391965E-1,-1.405484200E0,6.746563435E0,6.925570509E0
1.783093860E0,-6.463612318E-1,-1.374078393E0,6.562315941E0,6.735715610E0
1.785480318E0,-5.937191248E-1,-1.340578914E0,6.389733791E0,6.555787683E0
1.787866776E0,-5.291129351E-1,-1.302293777E0,6.231807709E0,6.388376703E0
1.790253235E0,-4.477569461E-1,-1.261615753E0,6.095416546E0,6.240694149E0
1.792639641E0,-3.568296731E-1,-1.213759303E0,5.992525101E0,6.124613959E0
1.795026099E0,-2.775674164E-1,-1.149153113E0,5.997310638E0,6.112718826E0
1.797412558E0,-1.986042857E-1,-1.079761267E0,6.045167446E0,6.144052206E0
1.799799016E0,-1.100698411E-1,-1.024726272E0,6.049952984E0,6.137109288E0
1.802185474E0,-1.674975827E-2,-9.816554785E-1,6.018846035E0,6.098396152E0
1.804571933E0,6.221338734E-2,-9.481559992E-1,6.004489422E0,6.079207475E0
1.806958339E0,1.316052526E-1,-9.314061999E-1,5.992525101E0,6.065904264E0
1.809344797E0,2.033899277E-1,-9.457631707E-1,5.944668770E0,6.022866612E0
1.811731255E0,2.751746178E-1,-9.816554785E-1,5.877370834E0,5.965136752E0
1.814117714E0,3.376871049E-1,-1.022333503E0,5.812764645E0,5.911635238E0
1.816504172E0,3.951148391E-1,-1.055832982E0,5.767300606E0,5.876449208E0
1.818890630E0,4.573282301E-1,-1.077368379E0,5.745765209E0,5.863760702E0
1.821277037E0,5.147559643E-1,-1.084546804E0,5.750551224E0,5.874525926E0
1.823663495E0,5.721837282E-1,-1.074975610E0,5.772086620E0,5.899148306E0
1.826049953E0,6.200401783E-1,-1.051047325E0,5.812764645E0,5.939476670E0
1.828436412E0,6.487540603E-1,-1.027119160E0,5.879763603E0,6.003954999E0
1.830822870E0,6.559324861E-1,-1.007976532E0,5.961418629E0,6.081511011E0
1.833209328E0,6.487540603E-1,-9.936196208E-1,6.054738522E0,6.169928715E0
1.835595735E0,6.224330068E-1,-9.816554785E-1,6.143272877E0,6.252269345E0
1.837982193E0,5.817549825E-1,-9.744769931E-1,6.227021694E0,6.329600576E0
1.840368651E0,5.338985324E-1,-9.744769931E-1,6.317949295E0,6.414915147E0
1.842755110E0,4.860421121E-1,-9.744769931E-1,6.411269188E0,6.503092722E0
1.845141568E0,4.381856322E-1,-9.744769931E-1,6.509674072E0,6.596777136E0
1.847528026E0,3.951148391E-1,-9.768698215E-1,6.588637352E0,6.672370834E0
1.849914433E0,3.664009571E-1,-9.768698215E-1,6.677171707E0,6.758191054E0
1.852300891E0,3.472583890E-1,-9.792626500E-1,6.756134510E0,6.835561224E0
1.854687349E0,3.448655605E-1,-9.840483069E-1,6.830312252E0,6.909446344E0
1.857073808E0,3.568296731E-1,-9.912267923E-1,6.906882763E0,6.986765165E0
1.859460266E0,3.831507266E-1,-9.984052777E-1,6.988238335E0,7.069589281E0
1.861846724E0,4.286143482E-1,-1.005583763E0,7.086643219E0,7.170454733E0
1.864233130E0,4.884349108E-1,-1.015154958E0,7.194320202E0,7.281988150E0
1.866619589E0,5.626124144E-1,-1.022333503E0,7.311568737E0,7.404102641E0
1.869006047E0,6.511468887E-1,-1.027119160E0,7.445566654E0,7.544231494E0
1.871392505E0,7.468597889E-1,-1.031904817E0,7.582256794E0,7.688513848E0
1.873778964E0,8.524430394E-1,-1.036690354E0,7.730611801E0,7.846256741E0
1.876165422E0,9.577272534E-1,-1.036690354E0,7.881359577E0,8.006734488E0
1.878551828E0,1.065404296E0,-1.036690354E0,8.029714584E0,8.166157573E0
1.880938287E0,1.170688510E0,-1.036690354E0,8.175975800E0,8.324170755E0
1.883324745E0,1.273579836E0,-1.031904817E0,8.319544792E0,8.479484577E0
1.885711203E0,1.371685624E0,-1.027119160E0,8.465507507E0,8.637205137E0
1.888097662E0,1.462911963E0,-1.017547846E0,8.609076500E0,8.791570577E0
1.890484120E0,1.539482236E0,-1.007976532E0,8.757730484E0,8.948958904E0
1.892870526E0,1.596910000E0,-9.888339639E-1,8.910871506E0,9.106675856E0
1.895256985E0,1.639980793E0,-9.696913958E-1,9.068798065E0,9.266765172E0
1.897643443E0,1.675873160E0,-9.481559992E-1,9.226723671E0,9.425496292E0
1.900029901E0,1.704586983E0,-9.290133715E-1,9.377771378E0,9.576600578E0
1.902416360E0,1.718943954E0,-9.122636318E-1,9.530911446E0,9.727551914E0
1.904802818E0,1.721336842E0,-8.907282352E-1,9.681659698E0,9.873749634E0
1.907189224E0,1.716551185E0,-8.691928387E-1,9.837491989E0,1.002388611E1
1.909575683E0,1.699801445E0,-8.500502706E-1,9.988240242E0,1.016744086E1
1.911962141E0,1.671087503E0,-8.306085467E-1,1.013180923E1,1.030223288E1
1.914348599E0,1.625623941E0,-8.042874932E-1,1.026341438E1,1.042243764E1
1.916735058E0,1.558624864E0,-7.779664397E-1,1.037827015E1,1.052345165E1
1.919121516E0,1.470090389E0,-7.612167001E-1,1.048624611E1,1.061611860E1
1.921507922E0,1.366899967E0,-7.492526174E-1,1.058435154E1,1.069851824E1
1.923894380E0,1.237687469E0,-7.468597889E-1,1.067049313E1,1.076796607E1
1.926280839E0,1.089332461E0,-7.516453862E-1,1.073988533E1,1.082112531E1
1.928667297E0,9.314061999E-1,-7.636095285E-1,1.079013443E1,1.085714594E1
1.931053755E0,7.683951855E-1,-7.827520967E-1,1.081884861E1,1.087430997E1
1.933440214E0,6.056832075E-1,-8.066803217E-1,1.082841969E1,1.087530497E1
1.935826620E0,4.525425732E-1,-8.353942037E-1,1.082602692E1,1.086763714E1
1.938213078E0,3.161516786E-1,-8.739784956E-1,1.080209827E1,1.084200708E1
1.940599537E0,1.986042857E-1,-9.146564603E-1,1.077099228E1,1.081158244E1
1.942985995E0,1.100698411E-1,-9.505487680E-1,1.072792149E1,1.077051335E1
1.945372453E0,3.828516230E-2,-9.840483069E-1,1.068245792E1,1.072775485E1
1.947758860E0,-1.196411345E-2,-1.012762189E0,1.063220787E1,1.068034057E1
1.950145318E0,-4.307080805E-2,-1.048654556E0,1.057956600E1,1.063149793E1
1.952531776E0,-5.264209956E-2,-1.077368379E0,1.052931690E1,1.058442291E1
1.954918235E0,-4.307080805E-2,-1.103689432E0,1.048146057E1,1.053949720E1
1.957304693E0,-9.571290575E-3,-1.115653515E0,1.044078255E1,1.050022450E1
1.959691151E0,4.307080805E-2,-1.118046403E0,1.040489006E1,1.046487554E1
1.962077558E0,1.100698411E-1,-1.108475089E0,1.037587738E1,1.043550017E1
1.964464016E0,1.938186288E-1,-1.089332461E0,1.037109184E1,1.042994520E1
1.966850474E0,2.946162820E-1,-1.055832982E0,1.038335514E1,1.044105579E1
1.969236933E0,4.070789516E-1,-1.007976532E0,1.042642593E1,1.048294270E1
1.971623391E0,5.291129351E-1,-9.553344250E-1,1.048863888E1,1.054533877E1
1.974009849E0,6.463612318E-1,-9.050851464E-1,1.057717323E1,1.063548568E1
1.976396308E0,7.564310431E-1,-8.596215248E-1,1.069202900E1,1.075316796E1
1.978782714E0,8.524430394E-1,-8.186444640E-1,1.082363415E1,1.088797015E1
1.981169172E0,9.385846853E-1,-7.875377536E-1,1.096750259E1,1.103572698E1
1.983555630E0,1.012762189E0,-7.683951855E-1,1.111585712E1,1.118831524E1
1.985942089E0,1.072582722E0,-7.564310431E-1,1.128096199E1,1.135705618E1
1.988328547E0,1.122832060E0,-7.564310431E-1,1.145085239E1,1.153060971E1
1.990714953E0,1.161117196E0,-7.660023570E-1,1.162104225E1,1.170399828E1
1.993101412E0,1.197009563E0,-7.995018363E-1,1.178375435E1,1.187134793E1
1.995487870E0,1.225723386E0,-8.452646136E-1,1.192493057E1,1.201752218E1
1.997874328E0,1.244866014E0,-9.026923180E-1,1.205414295E1,1.215182732E1
2.000260787E0,1.252044439E0,-9.601200819E-1,1.217647648E1,1.227827452E1
2.002647245E0,1.249651670E0,-1.012762189E0,1.229372501E1,1.239850762E1
2.005033651E0,1.242473125E0,-1.055832982E0,1.241097260E1,1.251761812E1
2.007420110E0,1.237687469E0,-1.091725349E0,1.253300667E1,1.264120210E1
2.009806568E0,1.240080357E0,-1.122832060E0,1.266251850E1,1.277254579E1
2.012193026E0,1.249651670E0,-1.151545882E0,1.280130196E1,1.291359822E1
2.014579485E0,1.271187067E0,-1.165902853E0,1.294487095E1,1.305928520E1
2.016965943E0,1.299900889E0,-1.170688510E0,1.309083366E1,1.320720182E1
2.019352349E0,1.331007600E0,-1.165902853E0,1.323948765E1,1.335720569E1
2.021738808E0,1.362114310E0,-1.153938770E0,1.338066387E1,1.349922575E1
2.024125266E0,1.398006678E0,-1.132403374E0,1.352184105E1,1.364100236E1
2.026511724E0,1.431805253E0,-1.098903775E0,1.365344620E1,1.377222745E1
2.028898183E0,1.455733418E0,-1.055832982E0,1.377577877E1,1.389266079E1
2.031284589E0,1.474876046E0,-1.003190875E0,1.388584900E1,1.399994478E1
2.033671047E0,1.489233017E0,-9.433703423E-1,1.397916889E1,1.408988735E1
2.036057505E0,1.498804331E0,-8.715856671E-1,1.405095387E1,1.415752028E1
2.038443964E0,1.510768414E0,-7.947162390E-1,1.410120296E1,1.420415151E1
2.040830422E0,1.522732496E0,-7.061817646E-1,1.412991714E1,1.422926440E1
2.043216880E0,1.529910922E0,-6.128616929E-1,1.413709545E1,1.423283860E1
2.045603339E0,1.532303810E0,-5.195416212E-1,1.412752438E1,1.421987424E1
2.047989745E0,1.532303810E0,-4.357928336E-1,1.409881020E1,1.418852774E1
2.050376203E0,1.515554070E0,-3.664009571E-1,1.405573940E1,1.414195757E1
2.052762662E0,1.489233017E0,-3.065803945E-1,1.400070477E1,1.408302313E1
2.055149120E0,1.448554993E0,-2.488535494E-1,1.394566917E1,1.402290727E1
2.057535578E0,1.388435364E0,-1.962114573E-1,1.388824177E1,1.395885064E1
2.059921985E0,1.299900889E0,-1.292124242E-1,1.380688572E1,1.386854468E1
2.062308443E0,1.175474167E0,-6.460621208E-2,1.373001671E1,1.378039449E1
2.064694901E0,1.010369420E0,-9.571290575E-3,1.365105343E1,1.368839646E1
2.067081360E0,8.066803217E-1,1.196411345E-2,1.357209015E1,1.359604749E1
2.069467818E0,5.721837282E-1,0.000000000E0,1.349791241E1,1.351003455E1
2.071854276E0,3.089732230E-1,-4.785645381E-2,1.340219975E1,1.340584621E1
2.074240683E0,1.914258115E-2,-1.411765367E-1,1.331845093E1,1.331921290E1
2.076627141E0,-2.922234535E-1,-2.632105052E-1,1.322752380E1,1.323336920E1
2.079013599E0,-6.200401783E-1,-4.166502357E-1,1.312433338E1,1.314557621E1
2.081400058E0,-9.577272534E-1,-6.008976102E-1,1.301187038E1,1.306089929E1
2.083786516E0,-1.292722464E0,-7.947162390E-1,1.286830139E1,1.295746449E1
2.086172974E0,-1.616052628E0,-9.816554785E-1,1.269362545E1,1.283368227E1
2.088559380E0,-1.915155411E0,-1.146760225E0,1.249711418E1,1.269491009E1
2.090945839E0,-2.193022013E0,-1.278365493E0,1.226979637E1,1.252962357E1
2.093332297E0,-2.441875458E0,-1.383649707E0,1.202782249E1,1.235094151E1
2.095718755E0,-2.662314177E0,-1.460519075E0,1.176221848E1,1.214787291E1
2.098105214E0,-2.846561670E0,-1.522732496E0,1.147956657E1,1.192485121E1
2.100491620E0,-2.999702215E0,-1.563410521E0,1.118285656E1,1.168326781E1
2.102878078E0,-3.117249727E0,-1.587338686E0,1.088106155E1,1.142954026E1
2.105264537E0,-3.203391314E0,-1.589731574E0,1.059153080E1,1.117897522E1
2.107650995E0,-3.260818958E0,-1.584945917E0,1.031127071E1,1.093010968E1
2.110037453E0,-3.291925669E0,-1.570588946E0,1.004327488E1,1.068507813E1
2.112423912E0,-3.301496983E0,-1.539482236E0,9.791728973E0,1.044738456E1
2.114810318E0,-3.296711445E0,-1.494018674E0,9.557232857E0,1.021964275E1
2.117196776E0,-3.275176048E0,-1.431805253E0,9.349057198E0,1.000908162E1
2.119583235E0,-3.251247883E0,-1.366899967E0,9.166903496E0,9.821972715E0
2.121969693E0,-3.229712248E0,-1.302293777E0,9.016156197E0,9.665303040E0
2.124356151E0,-3.205784082E0,-1.244866014E0,8.901300430E0,9.542530709E0
2.126742610E0,-3.184248686E0,-1.189831018E0,8.817551613E0,9.450098094E0
2.129129016E0,-3.169891834E0,-1.118046403E0,8.772088051E0,9.394028463E0
2.131515474E0,-3.162713289E0,-1.022333503E0,8.757730484E0,9.367270914E0
2.133901933E0,-3.162713289E0,-9.098708034E-1,8.776873589E0,9.373586838E0
2.136288391E0,-3.179463148E0,-7.947162390E-1,8.815158844E0,9.404657636E0
2.138674849E0,-3.215355396E0,-6.726822853E-1,8.874979019E0,9.463417161E0
2.141061308E0,-3.260818958E0,-5.458626747E-1,8.932407379E0,9.524642142E0
2.143447714E0,-3.311068296E0,-4.310071766E-1,8.985049248E0,9.585408204E0
2.145834172E0,-3.370888948E0,-3.233301640E-1,9.028120041E0,9.642322654E0
2.148220630E0,-3.430709362E0,-2.249253243E-1,9.061619759E0,9.691919871E0
2.150607089E0,-3.492922783E0,-1.363908947E-1,9.092725754E0,9.741497507E0
2.152993547E0,-3.557528973E0,-5.982056633E-2,9.114261627E0,9.784137974E0
2.155380005E0,-3.617349625E0,1.196411345E-2,9.123832703E0,9.814768700E0
2.157766412E0,-3.679862022E0,7.657032460E-2,9.123832703E0,9.838270717E0
2.160152870E0,-3.739682674E0,1.339980662E-1,9.111868858E0,9.850347003E0
2.162539328E0,-3.801896095E0,1.890329868E-1,9.087940216E0,9.852959188E0
2.164925787E0,-3.859323740E0,2.488535494E-1,9.049654961E0,9.841369962E0
2.167312245E0,-3.911965847E0,3.089732230E-1,9.008976936E0,9.826525667E0
2.169698651E0,-3.964607954E0,3.711866140E-1,8.963513374E0,9.808183713E0
2.172085110E0,-4.010071754E0,4.357928336E-1,8.913264275E0,9.783499931E0
2.174471568E0,-4.050749779E0,5.027918816E-1,8.867800713E0,9.762134138E0
2.176858026E0,-4.074677944E0,5.745765567E-1,8.824729919E0,9.736991153E0
2.179244485E0,-4.084249020E0,6.535396576E-1,8.786444664E0,9.711324007E0
2.181630891E0,-4.081856251E0,7.348956466E-1,8.760123253E0,9.692336223E0
2.184017349E0,-4.067499161E0,8.234301209E-1,8.748159409E0,9.682607068E0
2.186403808E0,-4.041178226E0,9.146564603E-1,8.748159409E0,9.679773290E0
2.188790266E0,-4.000500202E0,1.010369420E0,8.755337715E0,9.678883548E0
2.191176724E0,-3.947858334E0,1.106082320E0,8.772088051E0,9.682898961E0
2.193563183E0,-3.883252144E0,1.199402332E0,8.800801277E0,9.693931931E0
2.195949641E0,-3.804288864E0,1.285543919E0,8.836693764E0,9.706306898E0
2.198336047E0,-3.710968733E0,1.366899967E0,8.889336586E0,9.729337562E0
2.200722505E0,-3.598206997E0,1.429412484E0,8.944371223E0,9.746388573E0
2.203108964E0,-3.459423304E0,1.474876046E0,9.006584167E0,9.760196069E0
2.205495422E0,-3.299104214E0,1.498804331E0,9.075976372E0,9.772607131E0
2.207881880E0,-3.117249727E0,1.503589988E0,9.154939651E0,9.787285054E0
2.210268287E0,-2.913560629E0,1.491625786E0,9.243474007E0,9.805895917E0
2.212654745E0,-2.688635349E0,1.462911963E0,9.341878891E0,9.830542847E0
2.215041203E0,-2.446661234E0,1.415055513E0,9.449555397E0,9.863195755E0
2.217427662E0,-2.178664923E0,1.357328653E0,9.559625626E0,9.898250554E0
2.219814120E0,-1.884048700E0,1.280758262E0,9.686445236E0,9.950738794E0
2.222200578E0,-1.561017632E0,1.192223907E0,9.823135376E0,1.001759265E1
2.224586985E0,-1.218544960E0,1.089332461E0,9.973882675E0,1.010692004E1
2.226973443E0,-8.715856671E-1,9.696913958E-1,1.014855862E1,1.023196975E1
2.229359901E0,-5.267201066E-1,8.452646136E-1,1.033519936E1,1.038307527E1
2.231746360E0,-1.986042857E-1,7.109674215E-1,1.054128075E1,1.056709601E1
2.234132818E0,1.172483116E-1,5.697908998E-1,1.075902748E1,1.077474274E1
2.236519224E0,4.166502357E-1,4.286143482E-1,1.099621677E1,1.101245164E1
2.238905683E0,6.942176819E-1,2.922234535E-1,1.124507046E1,1.127026807E1
2.241292141E0,9.601200819E-1,1.698904037E-1,1.149631596E1,1.153758960E1
2.243678599E0,1.197009563E0,6.460621208E-2,1.174546909E1,1.180648339E1
2.246065058E0,1.400399446E0,-1.914258115E-2,1.197996521E1,1.206155261E1
2.248451516E0,1.575374603E0,-7.896314561E-2,1.220279694E1,1.230432011E1
2.250837922E0,1.718943954E0,-1.172483116E-1,1.240379429E1,1.252288418E1
2.253224380E0,1.840977907E0,-1.363908947E-1,1.258804131E1,1.272267999E1
2.255610839E0,1.934298038E0,-1.363908947E-1,1.273669624E1,1.288346004E1
2.257997297E0,2.003988981E0,-1.196411327E-1,1.285155106E1,1.300740752E1
2.260383755E0,2.042274237E0,-9.332008660E-2,1.292094326E1,1.308168060E1
2.262770162E0,2.054238319E0,-5.982056633E-2,1.294726467E1,1.310935300E1
2.265156620E0,2.039881229E0,-1.914258115E-2,1.292572880E1,1.308571537E1
2.267543078E0,1.999203324E0,2.392822690E-2,1.285872936E1,1.301323585E1
2.269929537E0,1.941476464E0,6.460621208E-2,1.274387455E1,1.289107611E1
2.272315995E0,1.864906192E0,1.028913707E-1,1.258325577E1,1.272111581E1
2.274702453E0,1.776371717E0,1.387837082E-1,1.237747288E1,1.250506266E1
2.277088860E0,1.673480392E0,1.794617027E-1,1.212622738E1,1.224247253E1
2.279475318E0,1.565803289E0,2.201396823E-1,1.183161068E1,1.193680077E1
2.281861776E0,1.450947881E0,2.560320199E-1,1.150349522E1,1.159746543E1
2.284248235E0,1.323829174E0,2.922234535E-1,1.115174961E1,1.123385231E1
2.286634693E0,1.192223907E0,3.257229924E-1,1.078056335E1,1.085117687E1
2.289021099E0,1.055832982E0,3.592225015E-1,1.039292622E1,1.045259487E1
2.291407558E0,9.122636318E-1,3.903291821E-1,9.988240242E0,1.003740629E1
2.293794016E0,7.660023570E-1,4.238287210E-1,9.578767776E0,9.618689230E0
2.296180474E0,6.248258352E-1,4.477569461E-1,9.166903496E0,9.199076764E0
2.298566933E0,4.932205677E-1,4.668995142E-1,8.767302513E0,8.793568959E0
2.300953391E0,3.735794425E-1,4.860421121E-1,8.374580383E0,8.396987265E0
2.303339797E0,2.679961324E-1,5.003990531E-1,8.001000404E0,8.021111432E0
2.305726255E0,1.770688742E-1,5.075774789E-1,7.632505894E0,7.651413889E0
2.308112714E0,1.052841991E-1,5.051847100E-1,7.270890713E0,7.289180208E0
2.310499172E0,4.785645381E-2,4.980062246E-1,6.926024914E0,6.944070964E0
2.312885630E0,2.392822644E-3,4.764707983E-1,6.602993965E0,6.620163099E0
2.315272037E0,-3.110669367E-2,4.429712892E-1,6.313163280E0,6.328761474E0
2.317658495E0,-5.024927482E-2,4.070789516E-1,6.054738522E0,6.068615726E0
2.320044953E0,-5.742774159E-2,3.640081584E-1,5.841478348E0,5.853090566E0
2.322431412E0,-6.221338734E-2,3.185445070E-1,5.666802406E0,5.676089377E0
2.324817870E0,-6.460621208E-2,2.727817893E-1,5.513661385E0,5.520783072E0
2.327204328E0,-7.178468257E-2,2.273181528E-1,5.374877930E0,5.380161646E0
2.329590735E0,-7.657032460E-2,1.818545163E-1,5.242973328E0,5.246684991E0
2.331977193E0,-7.417750359E-2,1.268195957E-1,5.125725269E0,5.127830443E0
2.334363651E0,-6.460621208E-2,6.699903309E-2,5.022833824E0,5.023696095E0
2.336750110E0,-5.024927482E-2,2.392822644E-3,4.934299469E0,4.934555904E0
2.339136568E0,-2.632104978E-2,-5.742774159E-2,4.857728958E0,4.858139703E0
2.341522974E0,7.178467698E-3,-1.076770201E-1,4.788337231E0,4.789553143E0
2.343909433E0,4.307080805E-2,-1.555334777E-1,4.737788677E0,4.740536605E0
2.346295891E0,9.092725813E-2,-2.057827413E-1,4.697110653E0,4.702495379E0
2.348682349E0,1.435693651E-1,-2.440679073E-1,4.661218643E0,4.669811618E0
2.351068808E0,1.890329868E-1,-2.799602449E-1,4.630111694E0,4.642418067E0
2.353455266E0,2.273181528E-1,-3.137588799E-1,4.613361835E0,4.629603180E0
2.355841672E0,2.608176768E-1,-3.496512175E-1,4.613361835E0,4.633938849E0
2.358228130E0,2.946162820E-1,-3.855435550E-1,4.634897232E0,4.660226919E0
2.360614589E0,3.281157911E-1,-4.262215197E-1,4.673182487E0,4.704036492E0
2.363001047E0,3.592225015E-1,-4.645066857E-1,4.728217602E0,4.764540792E0
2.365387505E0,3.951148391E-1,-5.075774789E-1,4.802694321E0,4.845577713E0
2.367773964E0,4.238287210E-1,-5.530411601E-1,4.886443138E0,4.935869918E0
2.370160370E0,4.501497746E-1,-5.985047817E-1,4.984548569E0,5.040492756E0
2.372546828E0,4.764707983E-1,-6.415755749E-1,5.094618320E0,5.156915694E0
2.374933287E0,5.075774789E-1,-6.846463680E-1,5.214259624E0,5.283453319E0
2.377319745E0,5.458626747E-1,-7.205387354E-1,5.329114914E0,5.405238930E0
2.379706203E0,5.913262963E-1,-7.444669604E-1,5.444269657E0,5.526659927E0
2.382092610E0,6.391827464E-1,-7.707880139E-1,5.554339409E0,5.643877658E0
2.384479068E0,6.918248534E-1,-7.899305820E-1,5.666802406E0,5.763268297E0
2.386865526E0,7.468597889E-1,-8.042874932E-1,5.776872158E0,5.880215119E0
2.389251985E0,8.018946648E-1,-8.090731502E-1,5.894419670E0,6.003483794E0
2.391638443E0,8.524430394E-1,-8.090731502E-1,6.011667728E0,6.125472012E0
2.394024901E0,8.907282352E-1,-8.042874932E-1,6.131309032E0,6.247657610E0
2.396411308E0,9.242277741E-1,-7.923234105E-1,6.248557091E0,6.366037942E0
2.398797766E0,9.553344250E-1,-7.731808424E-1,6.370591164E0,6.488058589E0
2.401184224E0,9.792626500E-1,-7.540382147E-1,6.488138676E0,6.604806768E0
2.403570683E0,1.003190875E0,-7.348956466E-1,6.610172749E0,6.726131675E0
2.405957141E0,1.022333503E0,-7.157530785E-1,6.725028038E0,6.839844324E0
2.408343547E0,1.041476011E0,-6.990033388E-1,6.837490559E0,6.951586516E0
2.410730005E0,1.060618639E0,-6.774678826E-1,6.940382004E0,7.053564843E0
2.413116464E0,1.079761267E0,-6.559324861E-1,7.053143978E0,7.165401021E0
2.415502922E0,1.103689432E0,-6.296114326E-1,7.165606499E0,7.277393587E0
2.417889380E0,1.146760225E0,-5.889334679E-1,7.287640572E0,7.400784198E0
2.420275787E0,1.197009563E0,-5.338985324E-1,7.414460182E0,7.529415604E0
2.422662245E0,1.249651670E0,-4.692923427E-1,7.543672562E0,7.660865507E0
2.425048703E0,1.297508121E0,-3.927220106E-1,7.677969456E0,7.796728344E0
2.427435162E0,1.342971683E0,-3.137588799E-1,7.816753387E0,7.937483927E0
2.429821620E0,1.383649707E0,-2.321037948E-1,7.967501163E0,8.090082414E0
2.432208078E0,1.417448282E0,-1.531406492E-1,8.130212784E0,8.254269901E0
2.434594485E0,1.441376567E0,-7.417750359E-2,8.298009872E0,8.422590846E0
2.436980943E0,1.462911963E0,2.392822644E-3,8.465507507E0,8.590979833E0
2.439367401E0,1.479661703E0,7.178468257E-2,8.630612373E0,8.756827150E0
2.441753860E0,1.496411443E0,1.339980662E-1,8.798408508E0,8.925760190E0
2.444140318E0,1.510768414E0,1.818545163E-1,8.965906143E0,9.094117067E0
2.446526776E0,1.517946839E0,2.177468538E-1,9.128618240E0,9.256524579E0
2.448913183E0,1.520339727E0,2.560320199E-1,9.282057762E0,9.409228533E0
2.451299641E0,1.517946839E0,2.898306549E-1,9.428020477E0,9.553833499E0
2.453686099E0,1.510768414E0,3.257229924E-1,9.566803932E0,9.690833511E0
2.456072558E0,1.498804331E0,3.664009571E-1,9.707980156E0,9.829829235E0
2.458458964E0,1.486840129E0,4.190430641E-1,9.851848602E0,9.972221996E0
2.460845422E0,1.474876046E0,4.788636267E-1,9.997811317E0,1.011735147E1
2.463231880E0,1.460519075E0,5.482555032E-1,1.014855862E1,1.026776227E1
2.465618339E0,1.441376567E0,6.176473498E-1,1.030409241E1,1.042273357E1
2.468004797E0,1.410269856E0,6.870391965E-1,1.046471119E1,1.058163807E1
2.470391255E0,1.369292736E0,7.540382147E-1,1.061545849E1,1.072993454E1
2.472777662E0,1.314257860E0,8.258228898E-1,1.076620674E1,1.087752108E1
2.475164120E0,1.249651670E0,9.002995491E-1,1.090977573E1,1.101795694E1
2.477550578E0,1.173081279E0,9.744769931E-1,1.104646587E1,1.115123910E1
2.479937037E0,1.084546804E0,1.048654556E0,1.117807102E1,1.127941443E1
2.482323495E0,9.840483069E-1,1.122832060E0,1.129771233E1,1.139593817E1
2.484709953E0,8.811569214E-1,1.197009563E0,1.140299606E1,1.149946036E1
2.487096360E0,7.827520967E-1,1.261615753E0,1.149153042E1,1.158704650E1
2.489482818E0,6.966105103E-1,1.311864972E0,1.156600761E1,1.166099430E1
2.491869276E0,6.343970895E-1,1.345364571E0,1.162104225E1,1.171584775E1
2.494255735E0,5.961119533E-1,1.369292736E0,1.166411304E1,1.175933013E1
2.496642193E0,5.769693851E-1,1.383649707E0,1.169521999E1,1.179090967E1
2.499028599E0,5.697908998E-1,1.393221021E0,1.171196938E1,1.180830018E1
2.501415058E0,5.721837282E-1,1.402792215E0,1.172154045E1,1.181904103E1
2.503801516E0,5.817549825E-1,1.407876968E0,1.172871971E1,1.182723224E1
2.506187974E0,5.961119533E-1,1.412662625E0,1.173589802E1,1.183563549E1
2.508574433E0,6.128616929E-1,1.422233939E0,1.174546909E1,1.184712594E1
2.510960891E0,6.296114326E-1,1.429412484E0,1.175264740E1,1.185598379E1
2.513347297E0,6.463612318E-1,1.431805253E0,1.177179050E1,1.187614840E1
2.515733755E0,6.607181430E-1,1.424626827E0,1.180050373E1,1.190453688E1
2.518120214E0,6.774678826E-1,1.410269856E0,1.182443237E1,1.192749030E1
2.520506672E0,6.990033388E-1,1.383649707E0,1.187228870E1,1.197306691E1
2.522893130E0,7.277171612E-1,1.352542996E0,1.192014503E1,1.201868556E1
2.525279537E0,7.731808424E-1,1.316650629E0,1.197996521E1,1.207687641E1
2.527665995E0,8.306085467E-1,1.278365493E0,1.204935741E1,1.214541654E1
2.530052453E0,9.002995491E-1,1.237687469E0,1.214536953E1,1.224142192E1
2.532438912E0,9.888339639E-1,1.199402332E0,1.226022530E1,1.235837703E1
2.534825370E0,1.096511006E0,1.163509965E0,1.238704491E1,1.248979477E1
2.537211776E0,1.220937729E0,1.132403374E0,1.254497051E1,1.265501132E1
2.539598235E0,1.352542996E0,1.106082320E0,1.273190975E1,1.285123794E1
2.541984693E0,1.496411443E0,1.084546804E0,1.294965744E1,1.308086835E1
2.544371151E0,1.644766450E0,1.070189953E0,1.319641685E1,1.334151345E1
2.546757610E0,1.790728688E0,1.063011408E0,1.345244884E1,1.361268094E1
2.549144068E0,1.939083695E0,1.053440213E0,1.372044468E1,1.389677603E1
2.551530474E0,2.090130568E0,1.036690354E0,1.395524120E1,1.414892680E1
2.553916933E0,2.238485575E0,1.007976532E0,1.418255901E1,1.439346430E1
2.556303391E0,2.377269268E0,9.720842242E-1,1.436231995E1,1.459015391E1
2.558689849E0,2.501696110E0,9.337990284E-1,1.451785278E1,1.476138589E1
2.561076308E0,2.612065077E0,8.907282352E-1,1.463749409E1,1.489538566E1
2.563462714E0,2.702992201E0,8.428717852E-1,1.473320675E1,1.500279910E1
2.565849172E0,2.760420084E0,8.162516356E-1,1.480259895E1,1.507989130E1
2.568235630E0,2.777169704E0,8.186444640E-1,1.483609867E1,1.511597414E1
2.570622089E0,2.758027315E0,8.377870321E-1,1.484088421E1,1.511821570E1
2.573008547E0,2.698206663E0,8.644071817E-1,1.481934929E1,1.508776432E1
2.575394953E0,2.616850615E0,8.955138922E-1,1.479063511E1,1.504701762E1
2.577781412E0,2.518445730E0,9.242277741E-1,1.473320675E1,1.497545148E1
2.580167870E0,2.417947292E0,9.385846853E-1,1.467099380E1,1.489850561E1
2.582554328E0,2.327019930E0,9.409775138E-1,1.460160160E1,1.481577638E1
2.584940787E0,2.238485575E0,9.314061999E-1,1.453221035E1,1.473307411E1
2.587327245E0,2.164308071E0,9.122636318E-1,1.446760368E1,1.465701234E1
2.589713651E0,2.104487419E0,8.835497499E-1,1.439821243E1,1.457799879E1
2.592100110E0,2.047059774E0,8.572286963E-1,1.434078407E1,1.451149140E1
2.594486568E0,1.989632010E0,8.282157183E-1,1.427587891E1,1.443763469E1
2.596873026E0,1.929512382E0,7.923234105E-1,1.421845150E1,1.437063525E1
2.599259485E0,1.862513304E0,7.468597889E-1,1.415623760E1,1.429775571E1
2.601645891E0,1.776371717E0,6.894320250E-1,1.408923912E1,1.421750583E1
2.604032349E0,1.661516190E0,6.200401783E-1,1.401745415E1,1.412919342E1
2.606418808E0,1.513161182E0,5.506483316E-1,1.394566917E1,1.403832465E1
2.608805266E0,1.323829174E0,4.836492836E-1,1.387627792E1,1.394767111E1
2.611191724E0,1.096511006E0,4.262215197E-1,1.378774357E1,1.383784210E1
2.613578183E0,8.353942037E-1,3.879363835E-1,1.369412422E1,1.372506526E1
2.615964589E0,5.386841893E-1,3.711866140E-1,1.357448292E1,1.359023718E1
2.618351047E0,2.177468538E-1,3.783650696E-1,1.345723438E1,1.346431324E1
2.620737505E0,-1.244267747E-1,4.094717801E-1,1.332084370E1,1.332771646E1
2.623123964E0,-4.884349108E-1,4.597210586E-1,1.317697525E1,1.319403611E1
2.625510422E0,-8.739784956E-1,5.267201066E-1,1.302144146E1,1.306136326E1
2.627896828E0,-1.264008522E0,6.008976102E-1,1.284437275E1,1.292039886E1
2.630283287E0,-1.649552107E0,6.702894568E-1,1.266251850E1,1.278709056E1
2.632669745E0,-2.018345833E0,7.348956466E-1,1.245882893E1,1.264263460E1
2.635056203E0,-2.360519648E0,7.851449251E-1,1.225304699E1,1.250302628E1
2.637442662E0,-2.640778780E0,8.306085467E-1,1.203978634E1,1.235394990E1
2.639829068E0,-2.877668381E0,8.763712645E-1,1.183161068E1,1.220803068E1
2.642215526E0,-3.098107100E0,9.146564603E-1,1.160429287E1,1.204551689E1
2.644601985E0,-3.301496983E0,9.385846853E-1,1.136231804E1,1.186941847E1
2.646988443E0,-3.485744476E0,9.433703423E-1,1.111346436E1,1.168543761E1
2.649374901E0,-3.648755312E0,9.290133715E-1,1.087149048E1,1.150503309E1
2.651761308E0,-3.799503326E0,8.955138922E-1,1.063938713E1,1.133290471E1
2.654147766E0,-3.938287020E0,8.428717852E-1,1.041206837E1,1.116385709E1
2.656534224E0,-4.065106392E0,7.731808424E-1,1.019402313E1,1.100186376E1
2.658920683E0,-4.182354927E0,6.870391965E-1,9.969097137E0,1.083268265E1
2.661307141E0,-4.280759811E0,5.865406394E-1,9.755837440E0,1.066983124E1
2.663693599E0,-4.357329845E0,5.027918816E-1,9.528518677E0,1.048960396E1
2.666080005E0,-4.419543266E0,4.573282301E-1,9.262915611E0,1.027341800E1
2.668466464E0,-4.462614059E0,4.621138871E-1,8.951549530E0,1.001292727E1
2.670852922E0,-4.488935471E0,5.267201066E-1,8.613862038E0,9.727620209E0
2.673239380E0,-4.493721008E0,6.439684033E-1,8.266902924E0,9.431325875E0
2.675625839E0,-4.476971149E0,7.971090674E-1,7.919644833E0,9.132328718E0
2.678012245E0,-4.438685894E0,9.649057388E-1,7.596613884E0,8.851074401E0
2.680398703E0,-4.374079704E0,1.103689432E0,7.306783199E0,8.587187220E0
2.682785162E0,-4.273581028E0,1.170688510E0,7.093822002E0,8.363989299E0
2.685171620E0,-4.146462440E0,1.163509965E0,6.949953556E0,8.176109138E0
2.687558078E0,-4.007678986E0,1.091725349E0,6.875775814E0,8.033034802E0
2.689944485E0,-3.871287823E0,9.816554785E-1,6.868597507E0,7.945322436E0
2.692330943E0,-3.758825302E0,8.644071817E-1,6.935596466E0,7.935897288E0
2.694717401E0,-3.677469254E0,7.396813035E-1,7.074679375E0,8.007621170E0
2.697103860E0,-3.624528170E0,6.296114326E-1,7.273283482E0,8.150721907E0
2.699490318E0,-3.602992773E0,5.362913609E-1,7.512565613E0,8.349120159E0
2.701876776E0,-3.602992773E0,4.525425732E-1,7.764111042E0,8.571334317E0
2.704263183E0,-3.593421459E0,3.759722710E-1,8.022536278E0,8.798586322E0
2.706649641E0,-3.559921980E0,3.017947674E-1,8.269295692E0,9.008072815E0
2.709036099E0,-3.492922783E0,2.297109663E-1,8.499007225E0,9.191648411E0
2.711422558E0,-3.387638569E0,1.651047617E-1,8.707481384E0,9.344709022E0
2.713809016E0,-3.256033421E0,1.004985496E-1,8.894122124E0,9.471919655E0
2.716195422E0,-3.098107100E0,3.349951655E-2,9.056833267E0,9.572127175E0
2.718581880E0,-2.923131943E0,-3.349951655E-2,9.188439369E0,9.642263252E0
2.720968339E0,-2.738884687E0,-1.052841991E-1,9.303593636E0,9.698939562E0
2.723354797E0,-2.554637194E0,-1.818545163E-1,9.392127991E0,9.735055750E0
2.725741255E0,-2.370090723E0,-2.656033039E-1,9.475876808E0,9.771392758E0
2.728127662E0,-2.197807550E0,-3.568296731E-1,9.552447319E0,9.808513406E0
2.730514120E0,-2.032702923E0,-4.501497746E-1,9.626625061E0,9.849184030E0
2.732900578E0,-1.876870275E0,-5.434698462E-1,9.698409081E0,9.893287633E0
2.735287037E0,-1.728515267E0,-6.272186637E-1,9.767801285E0,9.939371722E0
2.737673495E0,-1.582553029E0,-7.037889361E-1,9.842277527E0,9.993508887E0
2.740059953E0,-1.441376567E0,-7.731808424E-1,9.909276962E0,1.004336323E1
2.742446360E0,-1.302293777E0,-8.234301209E-1,9.983454704E0,1.010165205E1
2.744832818E0,-1.163509965E0,-8.572286963E-1,1.004806042E1,1.015145874E1
2.747219276E0,-1.027119160E0,-8.763712645E-1,1.010788059E1,1.019765907E1
2.749605735E0,-8.883354068E-1,-8.835497499E-1,1.015095139E1,1.022798191E1
2.751992193E0,-7.492526174E-1,-8.859425783E-1,1.018923664E1,1.025508737E1
2.754378599E0,-6.128616929E-1,-8.859425783E-1,1.021795082E1,1.027458090E1
2.756765058E0,-4.860421121E-1,-8.811569214E-1,1.024187946E1,1.029119864E1
2.759151516E0,-3.687937856E-1,-8.691928387E-1,1.027537823E1,1.031866768E1
2.761537974E0,-2.608176768E-1,-8.500502706E-1,1.031366348E1,1.035192087E1
2.763924433E0,-1.579262912E-1,-8.258228898E-1,1.036151981E1,1.039557680E1
2.766310839E0,-6.221338734E-2,-7.803592682E-1,1.043838978E1,1.046770329E1
2.768697297E0,2.392822690E-2,-7.181459069E-1,1.053410244E1,1.055858041E1
2.771083755E0,9.810572863E-2,-6.439684033E-1,1.063938713E1,1.065930948E1
2.773470214E0,1.603191197E-1,-5.554339290E-1,1.075184917E1,1.076737989E1
2.775856672E0,2.201396823E-1,-4.668995142E-1,1.087866879E1,1.089090865E1
2.778243078E0,2.775674164E-1,-3.855435550E-1,1.100339508E1,1.101364566E1
2.780629537E0,3.352942765E-1,-2.994019389E-1,1.111825085E1,1.112733417E1
2.783015995E0,3.903291821E-1,-2.081755698E-1,1.122114182E1,1.122985831E1
2.785402453E0,4.357928336E-1,-1.124626622E-1,1.132164001E1,1.133058233E1
2.787788912E0,4.740779996E-1,-2.153540403E-2,1.139581776E1,1.140569490E1
2.790175318E0,4.956133962E-1,6.699903309E-2,1.144845963E1,1.145937822E1
2.792561776E0,4.932205677E-1,1.507478207E-1,1.146760273E1,1.147919439E1
2.794948235E0,4.740779996E-1,2.344966233E-1,1.146760273E1,1.147979316E1
2.797334693E0,4.405784607E-1,3.089732230E-1,1.142931747E1,1.144197849E1
2.799721151E0,3.903291821E-1,3.711866140E-1,1.135035419E1,1.136312795E1
2.802107558E0,3.233301640E-1,4.262215197E-1,1.123310566E1,1.124583789E1
2.804494016E0,2.488535494E-1,4.692923427E-1,1.109432220E1,1.110703149E1
2.806880474E0,1.722832322E-1,5.051847100E-1,1.093609715E1,1.094911475E1
2.809266933E0,1.722832322E-1,5.243272781E-1,1.080449200E1,1.081857883E1
2.811653391E0,3.185445070E-1,4.932205677E-1,1.072552872E1,1.074158756E1
2.814039849E0,4.621138871E-1,4.429712892E-1,1.065613651E1,1.067534628E1
2.816426255E0,5.985047817E-1,4.022932947E-1,1.051496029E1,1.053966023E1
2.818812714E0,7.253243923E-1,3.807578981E-1,1.029930687E1,1.033183401E1
2.821199172E0,7.396813035E-1,3.735794425E-1,1.006959629E1,1.010363595E1
2.823585630E0,6.343970895E-1,3.807578981E-1,9.837491989E0,9.865276726E0
2.825972089E0,4.238287210E-1,4.022932947E-1,9.571589470E0,9.589410600E0
2.828358495E0,1.244267747E-1,4.405784607E-1,9.257830620E0,9.269143390E0
2.830744953E0,-1.962114573E-1,4.932205677E-1,8.953942299E0,8.969662656E0
2.833131412E0,-5.147559643E-1,5.482555032E-1,8.671290398E0,8.703840242E0
2.835517870E0,-8.234301209E-1,6.008976102E-1,8.393722534E0,8.455394319E0
2.837904328E0,-1.125224829E0,6.415755749E-1,8.099106789E0,8.202029073E0
2.840290735E0,-1.405484200E0,6.726822853E-1,7.800003529E0,7.954114805E0
2.842677193E0,-1.656730533E0,6.894320250E-1,7.488637447E0,7.700633960E0
2.845063651E0,-1.874477386E0,7.013961077E-1,7.175177574E0,7.449080158E0
2.847450110E0,-2.039881229E0,7.061817646E-1,6.866204739E0,7.197539554E0
2.849836568E0,-2.140379906E0,7.037889361E-1,6.595815659E0,6.970030790E0
2.852223026E0,-2.178664923E0,6.894320250E-1,6.353841305E0,6.752273446E0
2.854609433E0,-2.159522533E0,6.678966284E-1,6.140880108E0,6.543701703E0
2.856995891E0,-2.087737799E0,6.391827464E-1,5.954239845E0,6.341937861E0
2.859382349E0,-1.972882271E0,6.080760360E-1,5.843871117E0,6.197810141E0
2.861768808E0,-1.829013824E0,5.769693851E-1,5.791228771E0,6.100534069E0
2.864155266E0,-1.666301847E0,5.338985324E-1,5.776872158E0,6.036046837E0
2.866541672E0,-1.498804331E0,4.788636267E-1,5.791228771E0,6.001171175E0
2.868928130E0,-1.342971683E0,4.190430641E-1,5.831906796E0,5.999192187E0
2.871314589E0,-1.197009563E0,3.687937856E-1,5.889334679E0,6.021055033E0
2.873701047E0,-1.065404296E0,3.329014480E-1,5.947061539E0,6.050904943E0
2.876087505E0,-9.457631707E-1,3.089732230E-1,6.006882191E0,6.088724504E0
2.878473912E0,-8.330013752E-1,3.017947674E-1,6.097809315E0,6.161838184E0
2.880860370E0,-7.277171612E-1,3.065803945E-1,6.207879066E0,6.257901111E0
2.883246828E0,-6.272186637E-1,3.161516786E-1,6.327520370E0,6.366385880E0
2.885633287E0,-5.243272781E-1,3.209373355E-1,6.442375660E0,6.471639979E0
2.888019745E0,-4.190430641E-1,3.137588799E-1,6.540780544E0,6.561695806E0
2.890406151E0,-2.970091105E-1,2.850449979E-1,6.605386734E0,6.618202095E0
2.892792610E0,-1.627119333E-1,2.512463629E-1,6.686742783E0,6.693439247E0
2.895179068E0,-2.392822690E-2,2.177468538E-1,6.818347931E0,6.821865929E0
2.897565526E0,1.268195957E-1,1.842473447E-1,6.935596466E0,6.939202305E0
2.899951985E0,3.017947674E-1,1.387837082E-1,6.964310169E0,6.972227559E0
2.902338443E0,5.315057039E-1,9.332008660E-2,6.971488953E0,6.992343325E0
2.904724849E0,8.042874932E-1,2.153540403E-2,6.930810928E0,6.977354962E0
2.907111308E0,1.067797065E0,-8.135596663E-2,6.808776855E0,6.892477902E0
2.909497766E0,1.256830096E0,-1.962114573E-1,6.619743824E0,6.740855222E0
2.911884224E0,1.335793257E0,-3.113660514E-1,6.444768906E0,6.589107579E0
2.914270683E0,1.347757339E0,-4.286143482E-1,6.334698677E0,6.490652312E0
2.916657089E0,1.331007600E0,-5.458626747E-1,6.298806667E0,6.460999359E0
2.919043547E0,1.295115232E0,-6.607181430E-1,6.301199436E0,6.466760106E0
2.921430005E0,1.244866014E0,-7.731808424E-1,6.334698677E0,6.501992567E0
2.923816464E0,1.175474167E0,-8.763712645E-1,6.387341022E0,6.553464080E0
2.926202922E0,1.098903775E0,-9.672985673E-1,6.442375660E0,6.606622448E0
2.928589328E0,1.034297585E0,-1.041476011E0,6.545566559E0,6.708120851E0
2.930975787E0,9.840483069E-1,-1.103689432E0,6.701099873E0,6.862304346E0
2.933362245E0,9.625129104E-1,-1.163509965E0,6.875775814E0,7.039636325E0
2.935748703E0,9.816554785E-1,-1.218544960E0,7.062715054E0,7.233978382E0
2.938135162E0,1.036690354E0,-1.271187067E0,7.282855034E0,7.465294428E0
2.940521568E0,1.110867858E0,-1.319043517E0,7.531708241E0,7.726611949E0
2.942908026E0,1.192223907E0,-1.364507079E0,7.804789066E0,8.012366054E0
2.945294485E0,1.273579836E0,-1.422233939E0,8.082356453E0,8.304772171E0
2.947680943E0,1.340578914E0,-1.491625786E0,8.341080666E0,8.578795136E0
2.950067401E0,1.395613790E0,-1.565803289E0,8.566005707E0,8.819066366E0
2.952453808E0,1.429412484E0,-1.649552107E0,8.750552177E0,9.018669836E0
2.954840266E0,1.450947881E0,-1.738086581E0,8.882157326E0,9.166183147E0
2.957226724E0,1.460519075E0,-1.821835399E0,8.975478172E0,9.274233586E0
2.959613183E0,1.462911963E0,-1.891227245E0,9.068798065E0,9.378696618E0
2.961999641E0,1.462911963E0,-1.919941068E0,9.317950249E0,9.625512036E0
2.964386099E0,1.448554993E0,-1.931905150E0,9.585947037E0,9.885390719E0
2.966772505E0,1.436590910E0,-1.960619092E0,9.727123260E0,1.002620305E1
2.969158964E0,1.422233939E0,-2.001596212E0,9.810872078E0,1.011347357E1
2.971545422E0,1.405484200E0,-2.035095692E0,9.909276962E0,1.021326443E1
2.973931880E0,1.386042476E0,-2.054238319E0,1.001456070E1,1.031660966E1
2.976318287E0,1.378864050E0,-2.063809633E0,1.009113121E1,1.039189614E1
2.978704745E0,1.386042476E0,-2.054238319E0,1.017727280E1,1.047463080E1
2.981091203E0,1.412662625E0,-2.030309916E0,1.027777100E1,1.057120384E1
2.983477662E0,1.458126307E0,-1.987239242E0,1.041206837E1,1.069983270E1
2.985864120E0,1.517946839E0,-1.939083695E0,1.055085278E1,1.083442211E1
2.988250526E0,1.599302888E0,-1.876870275E0,1.070160007E1,1.098201511E1
2.990636985E0,1.697408557E0,-1.807478428E0,1.085952663E1,1.113900771E1
2.993023443E0,1.805085540E0,-1.730908036E0,1.101057339E1,1.129101868E1
2.995409901E0,1.919941068E0,-1.647159338E0,1.113021469E1,1.141406968E1
2.997796360E0,2.032702923E0,-1.551446438E0,1.124267673E1,1.152981558E1
3.000182818E0,2.137987137E0,-1.455733418E0,1.134317589E1,1.163433660E1
3.002569224E0,2.233700037E0,-1.364507079E0,1.142213917E1,1.171821482E1
3.004955683E0,2.312663078E0,-1.283151150E0,1.149870968E1,1.179894960E1
3.007342141E0,2.362912416E0,-1.216152072E0,1.152054405E1,1.182308404E1
3.009728599E0,2.398804665E0,-1.151545882E0,1.151336479E1,1.181684774E1
3.012115058E0,2.405983210E0,-1.074975610E0,1.150110245E1,1.179913918E1
3.014501464E0,2.379662037E0,-9.936196208E-1,1.145324516E1,1.173997002E1
3.016887922E0,2.322234392E0,-9.122636318E-1,1.137667561E1,1.164704878E1
3.019274380E0,2.233700037E0,-8.186444640E-1,1.131206894E1,1.155951981E1
3.021660839E0,2.123630047E0,-7.396813035E-1,1.121157074E1,1.143486998E1
3.024047297E0,2.001596212E0,-6.870391965E-1,1.107039356E1,1.127084841E1
3.026433703E0,1.864906192E0,-6.343970895E-1,1.096750259E1,1.114299995E1
3.028820162E0,1.704586983E0,-5.721837282E-1,1.090977573E1,1.105695336E1
3.031206620E0,1.527518153E0,-4.956133962E-1,1.088584709E1,1.100366354E1
3.033593078E0,1.345364571E0,-4.238287210E-1,1.085952663E1,1.095075136E1
3.035979537E0,1.165902853E0,-3.592225015E-1,1.082363415E1,1.089217271E1
3.038365995E0,9.840483069E-1,-3.137588799E-1,1.074467087E1,1.079419973E1
3.040752401E0,8.018946648E-1,-2.656033039E-1,1.064177990E1,1.067525454E1
3.043138860E0,6.200401783E-1,-2.105683982E-1,1.054845905E1,1.056876423E1
3.045525318E0,4.381856322E-1,-1.459621787E-1,1.044078255E1,1.045099286E1
3.047911776E0,2.703889608E-1,-8.374879509E-2,1.030409241E1,1.030797965E1
3.050298235E0,1.268195957E-1,-2.871387079E-2,1.014377308E1,1.014460645E1
3.052684641E0,-7.178467698E-3,3.349951655E-2,9.995418549E0,9.995477263E0
3.055071099E0,-1.124626622E-1,7.896314561E-2,9.825528145E0,9.826489015E0
3.057457558E0,-1.890329868E-1,1.028913707E-1,9.648159981E0,9.650560145E0
3.059844016E0,-2.321037948E-1,1.004985496E-1,9.475876808E0,9.479251733E0
3.062230474E0,-2.273181528E-1,6.699903309E-2,9.291629791E0,9.294651505E0
3.064616880E0,-1.770688742E-1,2.392822644E-3,9.078369141E0,9.080096110E0
3.067003339E0,-5.982056633E-2,-8.374879509E-2,8.817551613E0,8.818152233E0
3.069389797E0,1.316052526E-1,-1.746760458E-1,8.508578300E0,8.511388627E0
3.071776255E0,3.903291821E-1,-2.727817893E-1,8.171190262E0,8.185054494E0
3.074162714E0,6.990033388E-1,-3.664009571E-1,7.857431412E0,7.896966742E0
3.076549120E0,1.024726272E0,-4.740779996E-1,7.620542049E0,7.703731239E0
3.078935578E0,1.352542996E0,-6.056832075E-1,7.467102051E0,7.612741802E0
3.081322037E0,1.675873160E0,-7.540382147E-1,7.392924786E0,7.617904001E0
3.083708495E0,1.994417667E0,-9.026923180E-1,7.383353233E0,7.701068771E0
3.086094953E0,2.293520451E0,-1.036690354E0,7.438388348E0,7.852680062E0
3.088481360E0,2.557030201E0,-1.141974568E0,7.584649563E0,8.085135642E0
3.090867818E0,2.767598391E0,-1.218544960E0,7.826324463E0,8.390220931E0
3.093254276E0,2.915953398E0,-1.266401410E0,8.144868851E0,8.743308604E0
3.095640735E0,3.004487991E0,-1.297508121E0,8.522934914E0,9.129671131E0
3.098027193E0,3.045166016E0,-1.321436286E0,8.944371223E0,9.540492991E0
3.100413599E0,3.042773008E0,-1.345364571E0,9.377771378E0,9.950430615E0
3.102800058E0,3.011666298E0,-1.366899967E0,9.818050385E0,1.036014782E1
3.105186516E0,2.963809967E0,-1.386042476E0,1.024427223E1,1.075408745E1
3.107572974E0,2.911167860E0,-1.407876968E0,1.064895821E1,1.112912066E1
3.109959433E0,2.868097067E0,-1.424626827E0,1.103210926E1,1.148751397E1
3.112345839E0,2.836990356E0,-1.431805253E0,1.139103222E1,1.182599660E1
3.114732297E0,2.822633505E0,-1.427019596E0,1.171436214E1,1.213383391E1
3.117118755E0,2.825026274E0,-1.415055513E0,1.201585770E1,1.242433064E1
3.119505214E0,2.846561670E0,-1.402792215E0,1.229611778E1,1.269902563E1
3.121891672E0,2.868097067E0,-1.383649707E0,1.254018497E1,1.293818791E1
3.124278078E0,2.899203777E0,-1.354935765E0,1.275105286E1,1.314650457E1
3.126664537E0,2.932703257E0,-1.297508121E0,1.292333603E1,1.331528782E1
3.129050995E0,2.947060108E0,-1.225723386E0,1.306211948E1,1.344643174E1
3.131437453E0,2.923131943E0,-1.137188911E0,1.316501141E1,1.353349269E1
3.133823912E0,2.892025232E0,-1.034297585E0,1.326820183E1,1.361905875E1
3.136210318E0,2.808276415E0,-9.218349457E-1,1.336152172E1,1.368453356E1
3.138596776E0,2.643171787E0,-8.018946648E-1,1.341177082E1,1.369324610E1
3.140983235E0,2.434697151E0,-6.607181430E-1,1.344287777E1,1.367754588E1
3.143369693E0,2.269592285E0,-5.123631358E-1,1.343330669E1,1.363331559E1
3.145756151E0,2.195414782E0,-3.687937856E-1,1.340698528E1,1.359055221E1
3.148142610E0,2.166700840E0,-2.249253243E-1,1.340459251E1,1.358043756E1
3.150529016E0,2.140379906E0,-8.374879509E-2,1.342612743E1,1.359592358E1
3.152915474E0,2.099701881E0,5.503492057E-2,1.345484161E1,1.361780231E1
3.155301933E0,2.056631088E0,1.818545163E-1,1.348594856E1,1.364307924E1
3.157688391E0,2.015953064E0,2.898306549E-1,1.351226902E1,1.366489966E1
3.160074849E0,1.975275040E0,3.640081584E-1,1.353859043E1,1.368676895E1
3.162461255E0,1.919941068E0,3.999004960E-1,1.356730461E1,1.370831312E1
3.164847714E0,1.840977907E0,3.927220106E-1,1.359841156E1,1.372808170E1
3.167234172E0,1.735693693E0,3.472583890E-1,1.362473202E1,1.373923373E1
3.169620630E0,1.604088426E0,2.656033039E-1,1.363908863E1,1.373566101E1
3.172007089E0,1.446162224E0,1.579262912E-1,1.363908863E1,1.371645233E1
3.174393495E0,1.261615753E0,3.589234129E-2,1.361037540E1,1.366877029E1
3.176779953E0,1.046261668E0,-9.332008660E-2,1.354576874E1,1.358643525E1
3.179166412E0,8.090731502E-1,-2.368894368E-1,1.344287777E1,1.346928650E1
3.181552870E0,5.458626747E-1,-3.951148391E-1,1.331366539E1,1.333070770E1
3.183939328E0,2.488535494E-1,-5.697908998E-1,1.316501141E1,1.317968570E1
3.186325735E0,-7.417750359E-2,-7.588238716E-1,1.301665592E1,1.303896650E1
3.188712193E0,-4.214358926E-1,-9.577272534E-1,1.286830139E1,1.291077188E1
3.191098651E0,-7.827520967E-1,-1.158724308E0,1.271994591E1,1.279657637E1
3.193485110E0,-1.149153113E0,-1.357328653E0,1.255693531E1,1.268225210E1
3.195871568E0,-1.513161182E0,-1.553839207E0,1.237986660E1,1.256841955E1
3.198257974E0,-1.860120535E0,-1.740479350E0,1.218365479E1,1.244711857E1
3.200644433E0,-2.193022013E0,-1.907976985E0,1.198475170E1,1.233223399E1
3.203030891E0,-2.494517565E0,-2.039881229E0,1.178853989E1,1.222102311E1
3.205417349E0,-2.765205622E0,-2.135594130E0,1.160907841E1,1.212344117E1
3.207803808E0,-3.002095222E0,-2.195414782E0,1.144367409E1,1.203287573E1
3.210190214E0,-3.205784082E0,-2.221735716E0,1.128574753E1,1.194073944E1
3.212576672E0,-3.378067255E0,-2.214557409E0,1.112782192E1,1.183824411E1
3.214963130E0,-3.521636724E0,-2.164308071E0,1.097707367E1,1.172954820E1
3.217349589E0,-3.619742393E0,-2.078166485E0,1.082124138E1,1.159830056E1
3.219736047E0,-3.670290947E0,-1.960619092E0,1.069681454E1,1.147766980E1
3.222122453E0,-3.665505171E0,-1.831406593E0,1.061067295E1,1.137437289E1
3.224508912E0,-3.612564087E0,-1.678265929E0,1.054367352E1,1.127103576E1
3.226895370E0,-3.526422262E0,-1.503589988E0,1.046710396E1,1.114704903E1
3.229281828E0,-3.423531055E0,-1.321436286E0,1.036151981E1,1.099217229E1
3.231668287E0,-3.315854073E0,-1.139581800E0,1.023230743E1,1.081636031E1
3.234054745E0,-3.203391314E0,-9.649057388E-1,1.007438183E1,1.061536284E1
3.236441151E0,-3.098107100E0,-8.042874932E-1,9.892526627E0,1.039746262E1
3.238827610E0,-3.006880760E0,-6.511468887E-1,9.696016312E0,1.017241645E1
3.241214068E0,-2.927917719E0,-5.051847100E-1,9.490233421E0,9.944468017E0
3.243600526E0,-2.875275612E0,-3.616153300E-1,9.294022560E0,9.735339277E0
3.245986985E0,-2.844168901E0,-2.153540403E-1,9.111868858E0,9.547870349E0
3.248373391E0,-2.834597588E0,-5.503492057E-2,8.963513374E0,9.401199090E0
3.250759849E0,-2.841775894E0,1.172483116E-1,8.855836868E0,9.301359257E0
3.253146308E0,-2.858525753E0,2.898306549E-1,8.805587769E0,9.262480620E0
3.255532766E0,-2.882453918E0,4.549354017E-1,8.796015739E0,9.267437602E0
3.257919224E0,-2.894418001E0,6.176473498E-1,8.819944382E0,9.303255490E0
3.260305630E0,-2.884846687E0,7.683951855E-1,8.855836868E0,9.345513266E0
3.262692089E0,-2.853740215E0,8.955138922E-1,8.894122124E0,9.383559383E0
3.265078547E0,-2.832204819E0,9.936196208E-1,8.927620888E0,9.418655891E0
3.267465005E0,-2.784348249E0,1.074975610E0,8.958727837E0,9.442826493E0
3.269851464E0,-2.705385208E0,1.153938770E0,8.980263710E0,9.449646560E0
3.272237922E0,-2.612065077E0,1.230509043E0,8.994620323E0,9.446704781E0
3.274624328E0,-2.489732027E0,1.295115232E0,9.018548965E0,9.445121200E0
3.277010787E0,-2.346162558E0,1.350150228E0,9.056833267E0,9.452704016E0
3.279397245E0,-2.188236237E0,1.393221021E0,9.116654396E0,9.478545775E0
3.281783703E0,-2.030309916E0,1.417448282E0,9.195617676E0,9.523166618E0
3.284170162E0,-1.879263043E0,1.419841170E0,9.282057762E0,9.576229677E0
3.286556568E0,-1.742872238E0,1.400399446E0,9.372985840E0,9.635952771E0
3.288943026E0,-1.606481314E0,1.362114310E0,9.473484039E0,9.704794560E0
3.291329485E0,-1.474876046E0,1.302293777E0,9.573982239E0,9.774065906E0
3.293715943E0,-1.347757339E0,1.228116274E0,9.686445236E0,9.856568406E0
3.296102401E0,-1.225723386E0,1.141974568E0,9.803693771E0,9.945798877E0
3.298488808E0,-1.110867858E0,1.048654556E0,9.930811882E0,1.004762302E1
3.300875266E0,-9.912267923E-1,9.433703423E-1,1.006241703E1,1.015503396E1
3.303261724E0,-8.668000102E-1,8.258228898E-1,1.020837975E1,1.027834338E1
3.305648183E0,-7.325028181E-1,6.894320250E-1,1.034955597E1,1.039832610E1
3.308034641E0,-5.889334679E-1,5.386841893E-1,1.048385334E1,1.051419061E1
3.310421047E0,-4.381856322E-1,3.759722710E-1,1.063460159E1,1.065026351E1
3.312807505E0,-2.898306549E-1,2.081755698E-1,1.077338505E1,1.077929331E1
3.315193964E0,-1.339980662E-1,3.828516230E-2,1.089781189E1,1.089870291E1
3.317580422E0,2.153540403E-2,-1.268195957E-1,1.101057339E1,1.101132477E1
3.319966828E0,1.746760458E-1,-2.874378264E-1,1.111107159E1,1.111616139E1
3.322353287E0,3.305086195E-1,-4.453641176E-1,1.121396351E1,1.122766951E1
3.324739745E0,4.860421121E-1,-5.913262963E-1,1.129771233E1,1.132361283E1
3.327126203E0,6.391827464E-1,-7.229315639E-1,1.136949635E1,1.141037387E1
3.329512662E0,7.803592682E-1,-8.401798606E-1,1.142213917E1,1.147955252E1
3.331899120E0,8.955138922E-1,-9.433703423E-1,1.144367409E1,1.151735948E1
3.334285526E0,9.888339639E-1,-1.043868899E0,1.145324516E1,1.154314860E1
3.336671985E0,1.058225870E0,-1.139581800E0,1.143649578E1,1.154174703E1
3.339058443E0,1.103689432E0,-1.232901812E0,1.138863945E1,1.150822687E1
3.341444901E0,1.127617717E0,-1.316650629E0,1.132881927E1,1.146068221E1
3.343831360E0,1.130010486E0,-1.388435364E0,1.125703430E1,1.139848664E1
3.346217766E0,1.125224829E0,-1.450947881E0,1.117328548E1,1.132314838E1
3.348604224E0,1.113260746E0,-1.503589988E0,1.108714390E1,1.124388243E1
3.350990683E0,1.084546804E0,-1.551446438E0,1.097946644E1,1.114145013E1
3.353377141E0,1.036690354E0,-1.584945917E0,1.085713387E1,1.102107691E1
3.355763599E0,9.457631707E-1,-1.620838284E0,1.070160007E1,1.086488973E1
3.358150005E0,8.114659786E-1,-1.668694735E0,1.051974583E1,1.068213796E1
3.360536464E0,6.942176819E-1,-1.704586983E0,1.033280659E1,1.049544887E1
3.362922922E0,6.008976102E-1,-1.718943954E0,1.015095139E1,1.031298503E1
3.365309380E0,5.291129351E-1,-1.709372640E0,9.978668213E0,1.013783678E1
3.367695839E0,4.788636267E-1,-1.678265929E0,9.801301003E0,9.955470267E0
3.370082245E0,4.477569461E-1,-1.628016710E0,9.612267494E0,9.759437026E0
3.372468703E0,4.262215197E-1,-1.565803289E0,9.418449402E0,9.557227310E0
3.374855162E0,4.142574072E-1,-1.496411443E0,9.217152596E0,9.347018689E0
3.377241620E0,3.999004960E-1,-1.424626827E0,9.004191399E0,9.124962726E0
3.379628078E0,3.807578981E-1,-1.362114310E0,8.755337715E0,8.868837042E0
3.382014485E0,3.687937856E-1,-1.297508121E0,8.546863556E0,8.652653513E0
3.384400943E0,3.544368446E-1,-1.208973646E0,8.400900841E0,8.494844183E0
3.386787401E0,3.448655605E-1,-1.108475089E0,8.240582466E0,8.321949811E0
3.389173860E0,3.496512175E-1,-1.027119160E0,8.029714584E0,8.102687582E0
3.391560318E0,3.424727321E-1,-9.816554785E-1,7.778468132E0,7.847643056E0
3.393946724E0,3.281157911E-1,-9.577272534E-1,7.517351627E0,7.585214364E0
3.396333183E0,3.065803945E-1,-9.385846853E-1,7.287640572E0,7.354225850E0
3.398719641E0,2.874378264E-1,-9.074779749E-1,7.096214771E0,7.159776593E0
3.401106099E0,2.751746178E-1,-8.644071817E-1,6.928418159E0,6.987553151E0
3.403492558E0,2.727817893E-1,-8.114659786E-1,6.780063152E0,6.833896640E0
3.405878964E0,2.874378264E-1,-7.444669604E-1,6.638886452E0,6.686678165E0
3.408265422E0,3.113660514E-1,-6.583253145E-1,6.524031162E0,6.564550529E0
3.410651880E0,3.376871049E-1,-5.626124144E-1,6.425626278E0,6.459043147E0
3.413038339E0,3.592225015E-1,-4.645066857E-1,6.346662998E0,6.373769566E0
3.415424797E0,3.735794425E-1,-3.735794425E-1,6.274878502E0,6.297080547E0
3.417811203E0,3.759722710E-1,-2.946162820E-1,6.207879066E0,6.226228104E0
3.420197662E0,3.687937856E-1,-2.297109663E-1,6.138487339E0,6.153844554E0
3.422584120E0,3.520440459E-1,-1.794617027E-1,6.071488380E0,6.084333379E0
3.424970578E0,3.305086195E-1,-1.459621787E-1,6.009274960E0,6.020126780E0
3.427357037E0,3.065803945E-1,-1.172483116E-1,5.963811398E0,5.972837273E0
3.429743495E0,2.751746178E-1,-9.092725813E-2,5.913562298E0,5.920659413E0
3.432129901E0,2.440679073E-1,-6.460621208E-2,5.867799282E0,5.873228373E0
3.434516360E0,2.201396823E-1,-4.307080805E-2,5.824728489E0,5.829046109E0
3.436902818E0,2.009970993E-1,-2.871387079E-2,5.791228771E0,5.794786881E0
3.439289276E0,1.818545163E-1,-1.435693540E-2,5.762515068E0,5.765401729E0
3.441675683E0,1.698904037E-1,-2.392822644E-3,5.736194134E0,5.738709926E0
3.444062141E0,1.603191197E-1,1.674975827E-2,5.719444275E0,5.721715266E0
3.446448599E0,1.435693651E-1,3.828516230E-2,5.702694416E0,5.704629832E0
3.448835058E0,1.292124242E-1,6.221338734E-2,5.695516109E0,5.697321310E0
3.451221516E0,1.196411327E-1,7.896314561E-2,5.697908878E0,5.699711814E0
3.453607922E0,1.148554832E-1,9.571290761E-2,5.702694416E0,5.704653920E0
3.455994380E0,1.100698411E-1,1.100698411E-1,5.717051506E0,5.719170277E0
3.458380839E0,1.028913707E-1,1.268195957E-1,5.743372440E0,5.745693764E0
3.460767297E0,1.028913707E-1,1.579262912E-1,5.784050465E0,5.787120798E0
3.463153755E0,1.052841991E-1,1.914258152E-1,5.829514027E0,5.833606294E0
3.465540162E0,9.332008660E-2,2.512463629E-1,5.884549141E0,5.890649537E0
3.467926620E0,9.810572863E-2,3.065803945E-1,5.939883232E0,5.948598918E0
3.470313078E0,1.220339537E-1,3.544368446E-1,5.997310638E0,6.009014283E0
3.472699537E0,1.531406492E-1,3.975076675E-1,6.059524059E0,6.074479091E0
3.475085995E0,1.962114573E-1,4.310071766E-1,6.133701801E0,6.151956104E0
3.477472401E0,2.512463629E-1,4.597210586E-1,6.215057850E0,6.237099668E0
3.479858860E0,3.113660514E-1,4.884349108E-1,6.305984974E0,6.332532193E0
3.482245318E0,3.735794425E-1,5.147559643E-1,6.401698112E0,6.433216460E0
3.484631776E0,4.286143482E-1,5.434698462E-1,6.502495766E0,6.539229382E0
3.487018235E0,4.716851711E-1,5.793621540E-1,6.614958286E0,6.657012884E0
3.489404641E0,4.956133962E-1,6.248258352E-1,6.741777897E0,6.788785545E0
3.491791099E0,4.956133962E-1,6.726822853E-1,6.878168583E0,6.928732723E0
3.494177558E0,4.908277392E-1,7.205387354E-1,7.024429798E0,7.078326209E0
3.496564016E0,4.908277392E-1,7.636095285E-1,7.177570820E0,7.234744934E0
3.498950474E0,4.980062246E-1,8.042874932E-1,7.325925827E0,7.386750151E0
3.501336880E0,5.171487927E-1,8.330013752E-1,7.469494820E0,7.533570669E0
3.503723339E0,5.458626747E-1,8.548358679E-1,7.603792191E0,7.671138514E0
3.506109797E0,5.817549825E-1,8.691928387E-1,7.723433495E0,7.793930972E0
3.508496255E0,6.272186637E-1,8.787640929E-1,7.828717709E0,7.902812825E0
3.510882714E0,6.774678826E-1,8.931210637E-1,7.936394691E0,8.015172404E0
3.513269120E0,7.325028181E-1,9.074779749E-1,8.041678429E0,8.125802644E0
3.515655578E0,7.875377536E-1,9.194421172E-1,8.152048111E0,8.241448776E0
3.518042037E0,8.476574421E-1,9.314061999E-1,8.274081230E0,8.369376372E0
3.520428495E0,9.146564603E-1,9.433703423E-1,8.405686378E0,8.507767483E0
3.522814953E0,9.816554785E-1,9.553344250E-1,8.558827400E0,8.667746986E0
3.525201412E0,1.046261668E0,9.744769931E-1,8.736195564E0,8.852422370E0
3.527587818E0,1.096511006E0,9.936196208E-1,8.920442581E0,9.042339973E0
3.529974276E0,1.144367456E0,1.015154958E0,9.111868858E0,9.239386914E0
3.532360735E0,1.192223907E0,1.036690354E0,9.294022560E0,9.427352761E0
3.534747193E0,1.235294700E0,1.060618639E0,9.473484039E0,9.612375603E0
3.537133599E0,1.268794179E0,1.086939692E0,9.645767212E0,9.789387196E0
3.539520058E0,1.302293777E0,1.113260746E0,9.823135376E0,9.971424531E0
3.541906516E0,1.331007600E0,1.139581800E0,1.000738239E1,1.015962255E1
3.544292974E0,1.354935765E0,1.158724308E0,1.018684387E1,1.034167690E1
3.546679433E0,1.383649707E0,1.170688510E0,1.034955597E1,1.050705986E1
3.549065839E0,1.412662625E0,1.180259824E0,1.050538826E1,1.066544942E1
3.551452297E0,1.450947881E0,1.180259824E0,1.065852928E1,1.082139129E1
3.553838755E0,1.482054472E0,1.173081279E0,1.081167030E1,1.097564667E1
3.556225214E0,1.508375525E0,1.158724308E0,1.095793152E1,1.112178501E1
3.558611620E0,1.527518153E0,1.141974568E0,1.110150051E1,1.126413473E1
3.560998078E0,1.539482236E0,1.122832060E0,1.123071289E1,1.139121018E1
3.563384537E0,1.539482236E0,1.098903775E0,1.133360481E1,1.149035218E1
3.565770995E0,1.525125384E0,1.074975610E0,1.141256714E1,1.156409394E1
3.568157453E0,1.498804331E0,1.048654556E0,1.146999550E1,1.161494243E1
3.570543912E0,1.460519075E0,1.022333503E0,1.151336479E1,1.165057297E1
3.572930318E0,1.415055513E0,9.960124493E-1,1.154447174E1,1.167344211E1
3.575316776E0,1.354935765E0,9.696913958E-1,1.156122208E1,1.168066814E1
3.577703235E0,1.297508121E0,9.433703423E-1,1.156840038E1,1.167909938E1
3.580089693E0,1.232901812E0,9.194421172E-1,1.156840038E1,1.167018886E1
3.582476099E0,1.161117196E0,8.955138922E-1,1.156122208E1,1.165384032E1
3.584862558E0,1.091725349E0,8.715856671E-1,1.154925728E1,1.163343756E1
3.587249016E0,1.012762189E0,8.476574421E-1,1.153250790E1,1.160788304E1
3.589635474E0,9.290133715E-1,8.186444640E-1,1.150857925E1,1.157500069E1
3.592021933E0,8.401798606E-1,7.947162390E-1,1.147478104E1,1.153291273E1
3.594408391E0,7.492526174E-1,7.612167001E-1,1.143410301E1,1.148388184E1
3.596794797E0,6.631109715E-1,7.277171612E-1,1.137906837E1,1.142157982E1
3.599181255E0,5.793621540E-1,6.942176819E-1,1.131924725E1,1.135530523E1
3.601567714E0,5.003990531E-1,6.702894568E-1,1.125224876E1,1.128329692E1
3.603954172E0,4.286143482E-1,6.535396576E-1,1.118524933E1,1.121252099E1
3.606340578E0,3.687937856E-1,6.415755749E-1,1.110867882E1,1.113330019E1
3.608727037E0,3.185445070E-1,6.463612318E-1,1.102732277E1,1.105084164E1
3.611113495E0,2.799602449E-1,6.655037999E-1,1.094357395E1,1.096736449E1
3.613499953E0,2.488535494E-1,6.894320250E-1,1.086670494E1,1.089139664E1
3.615886412E0,2.321037948E-1,7.205387354E-1,1.080449200E1,1.083097851E1
3.618272818E0,2.297109663E-1,7.540382147E-1,1.075424194E1,1.078309142E1
3.620659276E0,2.488535494E-1,7.875377536E-1,1.071595669E1,1.074773797E1
3.623045735E0,2.874378264E-1,8.186444640E-1,1.068485069E1,1.072002022E1
3.625432193E0,3.376871049E-1,8.500502706E-1,1.066810036E1,1.070723976E1
3.627818651E0,4.022932947E-1,8.859425783E-1,1.067288589E1,1.071714642E1
3.630205058E0,4.716851711E-1,9.290133715E-1,1.069920731E1,1.074981812E1
3.632591516E0,5.458626747E-1,9.792626500E-1,1.074945641E1,1.080776269E1
3.634977974E0,6.200401783E-1,1.024726272E0,1.082602692E1,1.089207843E1
3.637364433E0,6.942176819E-1,1.074975610E0,1.091695404E1,1.099169670E1
3.639750891E0,7.731808424E-1,1.125224829E0,1.102253723E1,1.110676670E1
3.642137297E0,8.596215248E-1,1.175474167E0,1.114217854E1,1.123694047E1
3.644523755E0,9.577272534E-1,1.220937729E0,1.128096199E1,1.138718727E1
3.646910214E0,1.058225870E0,1.264008522E0,1.144128132E1,1.155943241E1
3.649296672E0,1.161117196E0,1.302293777E0,1.161386395E1,1.174418997E1
3.651683130E0,1.275972724E0,1.342971683E0,1.180289650E1,1.194738654E1
3.654069537E0,1.398006678E0,1.381256819E0,1.202303600E1,1.218259774E1
3.656455995E0,1.534696579E0,1.419841170E0,1.224108219E1,1.241834674E1
3.658842453E0,1.678265929E0,1.458126307E0,1.247079372E1,1.266741509E1
3.661228912E0,1.824228168E0,1.494018674E0,1.270319653E1,1.292018197E1
3.663615370E0,1.970489502E0,1.525125384E0,1.292572880E1,1.316371153E1
3.666001776E0,2.111665964E0,1.553839207E0,1.314347553E1,1.340240644E1
3.668388235E0,2.240878344E0,1.580160260E0,1.335195065E1,1.363059163E1
3.670774693E0,2.353341103E0,1.599302888E0,1.353619766E1,1.383201472E1
3.673161151E0,2.441875458E0,1.604088426E0,1.371565914E1,1.402337909E1
3.675547610E0,2.504088879E0,1.594517231E0,1.388824177E1,1.420197894E1
3.677934016E0,2.530709028E0,1.568196177E0,1.403899002E1,1.435120093E1
3.680320474E0,2.528316259E0,1.527518153E0,1.417298794E1,1.447754406E1
3.682706933E0,2.494517565E0,1.465304732E0,1.429262829E1,1.458248810E1
3.685093391E0,2.441875458E0,1.388435364E0,1.439581966E1,1.466731510E1
3.687479797E0,2.372483730E0,1.307079315E0,1.447478199E1,1.472604662E1
3.689866255E0,2.291127682E0,1.213759303E0,1.452981758E1,1.475933862E1
3.692252714E0,2.200200319E0,1.115653515E0,1.456331635E1,1.477077341E1
3.694639172E0,2.102094650E0,1.012762189E0,1.458006668E1,1.476559628E1
3.697025630E0,1.994417667E0,9.026923180E-1,1.457049561E1,1.473403873E1
3.699412037E0,1.869691849E0,7.995018363E-1,1.454178143E1,1.468326795E1
3.701798495E0,1.728515267E0,7.037889361E-1,1.449871063E1,1.461833417E1
3.704184953E0,1.563410521E0,6.056832075E-1,1.444367599E1,1.454066301E1
3.706571412E0,1.345364571E0,5.147559643E-1,1.436471272E1,1.443675694E1
3.708957870E0,1.067797065E0,4.334000051E-1,1.425912952E1,1.430562131E1
3.711344276E0,8.114659786E-1,3.687937856E-1,1.414188099E1,1.416994297E1
3.713730735E0,5.673980713E-1,3.472583890E-1,1.399591827E1,1.401171857E1
3.716117193E0,3.233301640E-1,3.640081584E-1,1.381167126E1,1.382024990E1
3.718503651E0,7.178468257E-2,4.022932947E-1,1.358883953E1,1.359498263E1
3.720890110E0,-2.057827413E-1,4.597210586E-1,1.333520031E1,1.334470896E1
3.723276516E0,-5.123631358E-1,5.243272781E-1,1.305733395E1,1.307789757E1
3.725662974E0,-8.452646136E-1,5.937191248E-1,1.275823116E1,1.279997801E1
3.728049433E0,-1.206580877E0,6.702894568E-1,1.244207954E1,1.251840520E1
3.730435891E0,-1.587338686E0,7.588238716E-1,1.212862015E1,1.225556545E1
3.732822349E0,-1.982453585E0,8.644071817E-1,1.180289650E1,1.199940364E1
3.735208755E0,-2.386840582E0,9.888339639E-1,1.146760273E1,1.175502926E1
3.737595214E0,-2.791526794E0,1.134796143E0,1.112064362E1,1.152167950E1
3.739981672E0,-3.181855917E0,1.292722464E0,1.077099228E1,1.130529138E1
3.742368130E0,-3.543172121E0,1.453340650E0,1.041924667E1,1.110076434E1
3.744754537E0,-3.866502285E0,1.606481314E0,1.006720352E1,1.090317426E1
3.747140995E0,-4.189533234E0,1.759621978E0,9.719944954E0,1.072966859E1
3.749527453E0,-4.613361835E0,1.946262121E0,9.399306297E0,1.064978885E1
3.751913912E0,-4.941477776E0,2.102094650E0,9.109476089E0,1.057447678E1
3.754300370E0,-5.130510807E0,2.214557409E0,8.839086533E0,1.045733505E1
3.756686776E0,-5.214259624E0,2.293520451E0,8.594719887E0,1.031105957E1
3.759073235E0,-5.231009483E0,2.343769789E0,8.412865639E0,1.018003071E1
3.761459693E0,-5.204688549E0,2.372483730E0,8.283653259E0,1.006659691E1
3.763846151E0,-5.159224510E0,2.384447813E0,8.192725182E0,9.971155140E0
3.766232610E0,-5.116153717E0,2.377269268E0,8.132605553E0,9.897762934E0
3.768619016E0,-5.065904617E0,2.341377020E0,8.115856171E0,9.849495283E0
3.771005474E0,-4.974977493E0,2.281556368E0,8.142476082E0,9.811004906E0
3.773391933E0,-4.860121727E0,2.193022013E0,8.183154106E0,9.766992366E0
3.775778391E0,-4.737788677E0,2.070987940E0,8.245368004E0,9.732508727E0
3.778164797E0,-4.603790760E0,1.910369754E0,8.353044510E0,9.727165802E0
3.780551255E0,-4.457828522E0,1.716551185E0,8.479864120E0,9.732773428E0
3.782937714E0,-4.295116425E0,1.486840129E0,8.623434067E0,9.747939976E0
3.785324172E0,-4.124927044E0,1.235294700E0,8.772088051E0,9.771924318E0
3.787710630E0,-3.955036640E0,9.792626500E-1,8.930013657E0,9.815620921E0
3.790097037E0,-3.780360699E0,7.157530785E-1,9.078369141E0,9.860031224E0
3.792483495E0,-3.602992773E0,4.549354017E-1,9.212367058E0,9.902334571E0
3.794869953E0,-3.416352510E0,2.033899277E-1,9.334700584E0,9.942306922E0
3.797256412E0,-3.227319479E0,-2.392822690E-2,9.447162628E0,9.983238217E0
3.799642870E0,-3.030808926E0,-2.081755698E-1,9.540482521E0,1.001248953E1
3.802029276E0,-2.832204819E0,-3.472583890E-1,9.619445801E0,1.003372862E1
3.804415735E0,-2.659921408E0,-4.836492836E-1,9.684052467E0,1.005435084E1
3.806802193E0,-2.523231506E0,-6.415755749E-1,9.741479874E0,1.008338964E1
3.809188651E0,-2.410768747E0,-8.114659786E-1,9.772586823E0,1.009820460E1
3.811575110E0,-2.310270309E0,-9.696913958E-1,9.777372360E0,1.009329780E1
3.813961516E0,-2.212164640E0,-1.106082320E0,9.765408516E0,1.007374280E1
3.816347974E0,-2.104487419E0,-1.213759303E0,9.743872643E0,1.004216774E1
3.818734433E0,-1.992024899E0,-1.295115232E0,9.710372925E0,9.996840951E0
3.821120891E0,-1.884048700E0,-1.345364571E0,9.660123825E0,9.933661845E0
3.823507297E0,-1.793121457E0,-1.378864050E0,9.617053032E0,9.879486811E0
3.825893755E0,-1.728515267E0,-1.393221021E0,9.597910881E0,9.851331033E0
3.828280214E0,-1.692622900E0,-1.388435364E0,9.600303650E0,9.846753537E0
3.830666672E0,-1.683051586E0,-1.359721422E0,9.626625061E0,9.866783420E0
3.833053130E0,-1.697408557E0,-1.307079315E0,9.669695854E0,9.904174375E0
3.835439537E0,-1.728515267E0,-1.242473125E0,9.722337723E0,9.952655690E0
3.837825995E0,-1.759621978E0,-1.175474167E0,9.767801285E0,9.994395978E0
3.840212453E0,-1.771586061E0,-1.110867858E0,9.796515465E0,1.001719820E1
3.842598912E0,-1.752443433E0,-1.039083242E0,9.815657616E0,1.002486341E1
3.844985370E0,-1.704586983E0,-9.577272534E-1,9.820742607E0,1.001348309E1
3.847371776E0,-1.642373681E0,-8.620143533E-1,9.808479309E0,9.982320693E0
3.849758235E0,-1.568196177E0,-7.588238716E-1,9.782157898E0,9.936079008E0
3.852144693E0,-1.489233017E0,-6.463612318E-1,9.753444672E0,9.887632719E0
3.854531151E0,-1.407876968E0,-5.338985324E-1,9.722337723E0,9.838242526E0
3.856917610E0,-1.328614831E0,-4.190430641E-1,9.681659698E0,9.781377662E0
3.859304016E0,-1.252044439E0,-2.994019389E-1,9.645767212E0,9.731293948E0
3.861690474E0,-1.173081279E0,-1.746760458E-1,9.621838570E0,9.694658780E0
3.864076933E0,-1.089332461E0,-5.024927482E-2,9.612267494E0,9.673926637E0
3.866463391E0,-1.000798106E0,7.417750359E-2,9.602696419E0,9.654992370E0
3.868849797E0,-9.122636318E-1,1.914258152E-1,9.605089188E0,9.650212800E0
3.871236255E0,-8.258228898E-1,3.089732230E-1,9.640981674E0,9.681217668E0
3.873622714E0,-7.540382147E-1,4.214358926E-1,9.717552185E0,9.755870146E0
3.876009172E0,-6.894320250E-1,5.291129351E-1,9.798908234E0,9.837371579E0
3.878395630E0,-6.343970895E-1,6.248258352E-1,9.921240807E0,9.961118719E0
3.880782037E0,-5.889334679E-1,7.013961077E-1,1.004566765E1,1.008733055E1
3.883168495E0,-5.458626747E-1,7.588238716E-1,1.017727280E1,1.022011063E1
3.885554953E0,-5.147559643E-1,7.899305820E-1,1.030648518E1,1.034952176E1
3.887941412E0,-5.003990531E-1,8.042874932E-1,1.043121147E1,1.047413244E1
3.890327870E0,-5.003990531E-1,8.066803217E-1,1.055803108E1,1.060062039E1
3.892714276E0,-5.099703074E-1,7.923234105E-1,1.068963623E1,1.073108423E1
3.895100735E0,-5.315057039E-1,7.516453862E-1,1.080449200E1,1.084363944E1
3.897487193E0,-5.721837282E-1,6.918248534E-1,1.090259743E1,1.093949937E1
3.899873651E0,-6.296114326E-1,6.272186637E-1,1.098425198E1,1.102014543E1
3.902260110E0,-7.013961077E-1,5.578267574E-1,1.105125141E1,1.108752835E1
3.904646516E0,-7.851449251E-1,4.908277392E-1,1.108953667E1,1.112812598E1
3.907032974E0,-8.691928387E-1,4.262215197E-1,1.108714390E1,1.112932706E1
3.909419433E0,-9.505487680E-1,3.592225015E-1,1.106082249E1,1.110740194E1
3.911805891E0,-1.019940615E0,2.970091105E-1,1.100818062E1,1.105931887E1
3.914192297E0,-1.079761267E0,2.416750938E-1,1.092891788E1,1.098478663E1
3.916578755E0,-1.134796143E0,1.986042857E-1,1.083799076E1,1.089904811E1
3.918965214E0,-1.187438250E0,1.674975902E-1,1.073270702E1,1.079949374E1
3.921351672E0,-1.237687469E0,1.483550072E-1,1.061785126E1,1.069077382E1
3.923738130E0,-1.290329576E0,1.316052526E-1,1.049581718E1,1.057565358E1
3.926124537E0,-1.352542996E0,1.244267747E-1,1.036869907E1,1.045728335E1
3.928510995E0,-1.429412484E0,1.172483116E-1,1.024666500E1,1.034655067E1
3.930897453E0,-1.525125384E0,1.124626622E-1,1.012702370E1,1.024183891E1
3.933283912E0,-1.644766450E0,1.124626622E-1,1.001456070E1,1.014935124E1
3.935670370E0,-1.778764486E0,1.196411327E-1,9.899705887E0,1.005895093E1
3.938056776E0,-1.929512382E0,1.316052526E-1,9.784550667E0,9.973854306E0
3.940443235E0,-2.102094650E0,1.627119333E-1,9.664909363E0,9.892206533E0
3.942829693E0,-2.262413740E0,1.722832322E-1,9.542876244E0,9.808908423E0
3.945216151E0,-2.389233351E0,1.531406492E-1,9.408877373E0,9.708700298E0
3.947602558E0,-2.484946251E0,1.244267747E-1,9.279664993E0,9.607425372E0
3.949989016E0,-2.552244425E0,9.571290761E-2,9.150154114E0,9.499917519E0
3.952375474E0,-2.585743904E0,6.699903309E-2,9.028120041E0,9.391353038E0
3.954761933E0,-2.590529680E0,3.828516230E-2,8.908478737E0,9.277569896E0
3.957148391E0,-2.561815739E0,7.178467698E-3,8.791230202E0,9.156892479E0
3.959534797E0,-2.501696110E0,-1.914258115E-2,8.676075935E0,9.029570505E0
3.961921255E0,-2.408375978E0,-4.307080805E-2,8.551649094E0,8.884415128E0
3.964307714E0,-2.295913219E0,-6.460621208E-2,8.415258408E0,8.723070878E0
3.966694172E0,-2.178664923E0,-7.896314561E-2,8.288438797E0,8.570357852E0
3.969080630E0,-2.063809633E0,-8.853443712E-2,8.159226418E0,8.416657548E0
3.971467037E0,-1.953440547E0,-8.374879509E-2,8.039285660E0,8.273636308E0
3.973853495E0,-1.850549221E0,-7.657032460E-2,7.924430370E0,8.137996813E0
3.976239953E0,-1.764407635E0,-5.982056633E-2,7.831110477E0,8.027640009E0
3.978626412E0,-1.687837243E0,-4.067798331E-2,7.747361660E0,7.929190498E0
3.981012870E0,-1.632802367E0,-2.153540403E-2,7.677969456E0,7.849695682E0
3.983399276E0,-1.589731574E0,-7.178467698E-3,7.625327587E0,7.789282304E0
3.985785735E0,-1.556231976E0,7.178467698E-3,7.589435101E0,7.747350169E0
3.988172193E0,-1.529910922E0,1.435693540E-2,7.567600727E0,7.720713329E0
3.990558651E0,-1.498804331E0,1.435693540E-2,7.558029652E0,7.705221136E0
3.992945058E0,-1.458126307E0,9.571290575E-3,7.546065331E0,7.685657155E0
3.995331516E0,-1.412662625E0,4.785645287E-3,7.529315472E0,7.660693837E0
3.997717974E0,-1.357328653E0,-4.785645287E-3,7.502994537E0,7.624781374E0
