"Time (s)","Acceleration x (m/s^2)","Acceleration y (m/s^2)","Acceleration z (m/s^2)","Absolute acceleration (m/s^2)"
3.594891100E-2,5.195416212E-1,3.421138287E0,9.221938133E0,9.849784445E0
3.833531800E-2,5.267201066E-1,3.435495138E0,9.241081238E0,9.873076692E0
4.072172400E-2,5.315057039E-1,3.445066452E0,9.245866776E0,9.881145359E0
4.310807800E-2,5.362913609E-1,3.447459221E0,9.226723671E0,9.864330347E0
4.549448400E-2,5.482555032E-1,3.449851990E0,9.200403214E0,9.841213448E0
4.788089100E-2,5.554339290E-1,3.442673683E0,9.154939651E0,9.796602930E0
5.026724500E-2,5.578267574E-1,3.437887907E0,9.121439934E0,9.763754934E0
5.265365100E-2,5.554339290E-1,3.433102369E0,9.085547447E0,9.728405375E0
5.504005700E-2,5.482555032E-1,3.423531055E0,9.047262192E0,9.688864854E0
5.742641100E-2,5.458626747E-1,3.409173965E0,9.001798630E0,9.641203854E0
5.981281800E-2,5.434698462E-1,3.392424345E0,8.958727837E0,9.594931311E0
6.219922400E-2,5.291129351E-1,3.382853031E0,8.946763992E0,9.579574159E0
6.458563000E-2,4.956133962E-1,3.390031576E0,8.961120605E0,9.593728641E0
6.697198400E-2,4.429712892E-1,3.421138287E0,9.008976936E0,9.646868724E0
6.935839100E-2,3.975076675E-1,3.454637766E0,9.061619759E0,9.705951117E0
7.174479700E-2,3.664009571E-1,3.468994617E0,9.121439934E0,9.765697097E0
7.413115100E-2,3.568296731E-1,3.471387386E0,9.174081802E0,9.815377462E0
7.651755700E-2,3.616153300E-1,3.468994617E0,9.200403214E0,9.839314437E0
7.890396300E-2,3.640081584E-1,3.466601849E0,9.217152596E0,9.854224083E0
8.129031800E-2,3.544368446E-1,3.473780155E0,9.214759827E0,9.854165247E0
8.367672400E-2,3.305086195E-1,3.490530014E0,9.212367058E0,9.857014890E0
8.606313000E-2,2.874378264E-1,3.502494097E0,9.207581520E0,9.855437223E0
8.844953600E-2,2.344966233E-1,3.480958700E0,9.214759827E0,9.853114269E0
9.083589100E-2,1.962114573E-1,3.447459221E0,9.217152596E0,9.842732140E0
9.322229700E-2,1.938186288E-1,3.425923824E0,9.221938133E0,9.839647486E0
9.560870300E-2,2.249253243E-1,3.416352510E0,9.212367058E0,9.828009091E0
9.799505700E-2,2.775674164E-1,3.428316593E0,9.198010445E0,9.820071001E0
1.003814630E-1,3.376871049E-1,3.447459221E0,9.162117958E0,9.795070859E0
1.027678700E-1,4.070789516E-1,3.464209080E0,9.126225471E0,9.770079282E0
1.051542240E-1,4.980062246E-1,3.483351469E0,9.087940216E0,9.745378650E0
1.075406300E-1,6.056832075E-1,3.512065411E0,9.061619759E0,9.737269034E0
1.099270360E-1,7.205387354E-1,3.550350666E0,9.052047729E0,9.750063283E0
1.123133910E-1,8.258228898E-1,3.610171080E0,9.066405296E0,9.793621581E0
1.146997970E-1,9.026923180E-1,3.691826344E0,9.087940216E0,9.850639195E0
1.170862030E-1,9.457631707E-1,3.780360699E0,9.128618240E0,9.925586429E0
1.194726090E-1,9.816554785E-1,3.856930971E0,9.188439369E0,1.001334020E1
1.218589630E-1,1.005583763E0,3.916751623E0,9.274879456E0,1.011807941E1
1.242453700E-1,1.012762189E0,3.967000723E0,9.384949684E0,1.023914364E1
1.266317760E-1,9.984052777E-1,4.007678986E0,9.502198219E0,1.036098813E1
1.290181300E-1,9.577272534E-1,4.041178226E0,9.619445801E0,1.047769538E1
1.314045360E-1,9.050851464E-1,4.077070713E0,9.724730492E0,1.058357538E1
1.337909430E-1,8.428717852E-1,4.103391647E0,9.823135376E0,1.067905635E1
1.361773490E-1,7.779664397E-1,4.127319813E0,9.890133858E0,1.074498713E1
1.385637030E-1,7.133602500E-1,4.148855209E0,9.926026344E0,1.078183108E1
1.409501090E-1,6.535396576E-1,4.163212299E0,9.911669731E0,1.077035968E1
1.433364630E-1,6.056832075E-1,4.167997837E0,9.847063065E0,1.070998175E1
1.457228700E-1,5.697908998E-1,4.151247978E0,9.717552185E0,1.058245444E1
1.481092760E-1,5.410770178E-1,4.115355968E0,9.557232857E0,1.041967461E1
1.504956820E-1,5.099703074E-1,4.057928085E0,9.387342453E0,1.023958243E1
1.528820360E-1,4.740779996E-1,3.983750582E0,9.233902931E0,1.006776946E1
1.552684430E-1,4.357928336E-1,3.892823458E0,9.104690552E0,9.911578074E0
1.576548490E-1,3.999004960E-1,3.787539244E0,8.999405861E0,9.772137933E0
1.600412030E-1,3.664009571E-1,3.670290947E0,8.915657043E0,9.648534905E0
1.624276090E-1,3.424727321E-1,3.550350666E0,8.858229637E0,9.549372216E0
1.648140160E-1,3.281157911E-1,3.435495138E0,8.822337151E0,9.473326745E0
1.672003700E-1,3.209373355E-1,3.339782238E0,8.800801277E0,9.418664942E0
1.695867760E-1,3.233301640E-1,3.263211966E0,8.796015739E0,9.387384493E0
1.719731820E-1,3.305086195E-1,3.205784082E0,8.805587769E0,9.376815210E0
1.743595880E-1,3.376871049E-1,3.177070379E0,8.824729919E0,9.385289922E0
1.767459430E-1,3.424727321E-1,3.167499065E0,8.858229637E0,9.413743687E0
1.791323490E-1,3.520440459E-1,3.172284603E0,8.913264275E0,9.467502556E0
1.815187550E-1,3.664009571E-1,3.198605776E0,8.970691681E0,9.530930584E0
1.839051090E-1,3.975076675E-1,3.232105255E0,9.064012527E0,9.631242901E0
1.862915160E-1,4.429712892E-1,3.272783279E0,9.166903496E0,9.743687888E0
1.886779220E-1,4.956133962E-1,3.308675528E0,9.291629791E0,9.875593682E0
1.910642760E-1,5.434698462E-1,3.354139090E0,9.401699066E0,9.996877204E0
1.934506820E-1,5.889334679E-1,3.394817114E0,9.504590988E0,1.010984054E1
1.958370880E-1,6.272186637E-1,3.435495138E0,9.581160545E0,1.019777758E1
1.982234430E-1,6.631109715E-1,3.478565931E0,9.629017830E0,1.025953807E1
2.006098490E-1,7.013961077E-1,3.519243956E0,9.650552750E0,1.029612563E1
2.029962550E-1,7.396813035E-1,3.550350666E0,9.655338287E0,1.031395539E1
2.053826090E-1,7.731808424E-1,3.576671600E0,9.643374443E0,1.031431331E1
2.077690160E-1,8.066803217E-1,3.595814228E0,9.614660263E0,1.029671331E1
2.101554220E-1,8.353942037E-1,3.610171080E0,9.566803932E0,1.025938381E1
2.125418280E-1,8.739784956E-1,3.622135162E0,9.516554832E0,1.022000574E1
2.149281820E-1,9.337990284E-1,3.641277790E0,9.449555397E0,1.016980736E1
2.173145880E-1,1.019940615E0,3.670290947E0,9.375378609E0,1.011973510E1
2.197009950E-1,1.120439172E0,3.710968733E0,9.284450531E0,1.006119747E1
2.220873490E-1,1.240080357E0,3.766003847E0,9.193224907E0,1.001179147E1
2.244737550E-1,1.366899967E0,3.830610037E0,9.087940216E0,9.956537859E0
2.268601610E-1,1.491625786E0,3.911965847E0,8.958727837E0,9.888742525E0
2.292465160E-1,1.608874083E0,3.995714664E0,8.803194046E0,9.800532481E0
2.316329220E-1,1.711765528E0,4.079463482E0,8.628219604E0,9.696305331E0
2.340193280E-1,1.788335800E0,4.163212299E0,8.451150894E0,9.589183126E0
2.364057340E-1,1.826620936E0,4.237689018E0,8.281260490E0,9.480180777E0
2.387920880E-1,1.829013824E0,4.304687977E0,8.137690544E0,9.386034175E0
2.411784950E-1,1.795514345E0,4.362115860E0,8.039285660E0,9.321053613E0
2.435649010E-1,1.747657895E0,4.412364960E0,7.972286701E0,9.277964642E0
2.459512550E-1,1.702194214E0,4.457828522E0,7.929215908E0,9.254305224E0
2.483376610E-1,1.668694735E0,4.488935471E0,7.898109436E0,9.236623649E0
2.507240680E-1,1.668694735E0,4.515256405E0,7.878966808E0,9.233103513E0
2.531104220E-1,1.706979871E0,4.532006264E0,7.886145115E0,9.254412236E0
2.554968280E-1,1.785943031E0,4.543970108E0,7.926823139E0,9.309768092E0
2.578832340E-1,1.891227245E0,4.553541660E0,7.991429329E0,9.390123794E0
2.602696410E-1,2.015953064E0,4.558327198E0,8.048856735E0,9.467127777E0
2.626559950E-1,2.149951220E0,4.563112736E0,8.084749222E0,9.529294731E0
2.650424010E-1,2.288734913E0,4.567898273E0,8.087141991E0,9.565869940E0
2.674288070E-1,2.429911375E0,4.577469826E0,8.070392609E0,9.591086286E0
2.698151610E-1,2.568994284E0,4.589433670E0,8.039285660E0,9.606911416E0
2.722015680E-1,2.702992201E0,4.603790760E0,7.996214867E0,9.614598712E0
2.745879740E-1,2.834597588E0,4.625326157E0,7.938787460E0,9.615244764E0
2.769743280E-1,2.966202736E0,4.646861553E0,7.871788502E0,9.610241161E0
2.793607340E-1,3.098107100E0,4.666004181E0,7.785646915E0,9.590941586E0
2.817471410E-1,3.224926710E0,4.682754040E0,7.699504852E0,9.571348528E0
2.841334950E-1,3.332603693E0,4.701896667E0,7.606184959E0,9.542962291E0
2.865199010E-1,3.413959742E0,4.718646049E0,7.529315472E0,9.518998536E0
2.889063070E-1,3.473780155E0,4.723432064E0,7.469494820E0,9.495857617E0
2.912927130E-1,3.504886866E0,4.709074974E0,7.438388348E0,9.475718456E0
2.936790680E-1,3.514458179E0,4.668396950E0,7.424031258E0,9.447835016E0
2.960654740E-1,3.495315790E0,4.594219685E0,7.435995579E0,9.413719628E0
2.984518800E-1,3.512065411E0,4.462614059E0,7.467102051E0,9.381212114E0
3.008382340E-1,3.629313707E0,4.285545349E0,7.493422985E0,9.364251436E0
3.032246410E-1,3.754039526E0,4.120141506E0,7.483851910E0,9.331474599E0
3.056110470E-1,3.852145433E0,3.971786499E0,7.469494820E0,9.295561591E0
3.079974010E-1,3.931108475E0,3.842574120E0,7.433602810E0,9.245401043E0
3.103838070E-1,3.976572037E0,3.732504129E0,7.330711365E0,9.136960181E0
3.127702130E-1,4.010071754E0,3.651148319E0,7.165606499E0,8.986516345E0
3.151565680E-1,4.031607151E0,3.605385542E0,6.961917400E0,8.815948900E0
3.175429740E-1,4.048357010E0,3.591028690E0,6.739385128E0,8.643147195E0
3.199293800E-1,4.079463482E0,3.600599766E0,6.509674072E0,8.484232287E0
3.223157860E-1,4.115355968E0,3.629313707E0,6.286842346E0,8.344606607E0
3.247021410E-1,4.163212299E0,3.672683716E0,6.071488380E0,8.227023367E0
3.270885470E-1,4.175176620E0,3.718147278E0,5.867799282E0,8.104800269E0
3.294749530E-1,4.167997837E0,3.768396616E0,5.669195175E0,7.982029376E0
3.318613070E-1,4.117748737E0,3.813860178E0,5.501697540E0,7.859393103E0
3.342477130E-1,4.038785458E0,3.842574120E0,5.391627789E0,7.755437708E0
3.366341200E-1,3.938287020E0,3.868895054E0,5.317151070E0,7.664890677E0
3.390204740E-1,3.835395575E0,3.923929930E0,5.238187790E0,7.585914357E0
3.414068800E-1,3.691826344E0,4.012464523E0,5.161617756E0,7.508112357E0
3.437932860E-1,3.492922783E0,4.144069672E0,5.104189873E0,7.444902771E0
3.461796930E-1,3.215355396E0,4.323830605E0,5.099404335E0,7.418756364E0
3.485660470E-1,2.851347208E0,4.541577339E0,5.149653435E0,7.434718295E0
3.509524530E-1,2.453839540E0,4.764110088E0,5.238187790E0,7.493776401E0
3.533388590E-1,2.099701881E0,4.967798710E0,5.341378212E0,7.590658286E0
3.557252130E-1,1.829013824E0,5.130510807E0,5.427519798E0,7.689304512E0
3.581116200E-1,1.663909078E0,5.242973328E0,5.487340450E0,7.769701922E0
3.604980260E-1,1.608874083E0,5.302793980E0,5.520840168E0,7.822261563E0
3.628843800E-1,1.635195136E0,5.326722145E0,5.516054630E0,7.840579738E0
3.652707860E-1,1.730908036E0,5.309972763E0,5.477769375E0,7.822902959E0
3.676571930E-1,1.869691849E0,5.271687508E0,5.417948723E0,7.787207789E0
3.700435990E-1,2.054238319E0,5.211866856E0,5.367699623E0,7.758585595E0
3.724299530E-1,2.255235434E0,5.142475128E0,5.314758301E0,7.731609994E0
3.748163590E-1,2.504088879E0,5.037190914E0,5.264508724E0,7.704466596E0
3.772027660E-1,2.717349291E0,4.953442097E0,5.214259624E0,7.688242921E0
3.795891200E-1,2.911167860E0,4.864907742E0,5.168796062E0,7.671940979E0
3.819755260E-1,3.102892876E0,4.773980141E0,5.195116997E0,7.707663147E0
3.843619320E-1,3.260818958E0,4.692325115E0,5.271687508E0,7.774416019E0
3.867482860E-1,3.373281717E0,4.630111694E0,5.372485161E0,7.853697260E0
3.891346930E-1,3.452244759E0,4.591826439E0,5.487340450E0,7.944417482E0
3.915210990E-1,3.516851187E0,4.567898273E0,5.606981754E0,8.041901597E0
3.939074530E-1,3.579064369E0,4.546362877E0,5.719444275E0,8.135794981E0
3.962938590E-1,3.641277790E0,4.527220249E0,5.807978630E0,8.215061953E0
3.986802660E-1,3.706183195E0,4.515256405E0,5.860620975E0,8.274672954E0
4.010666720E-1,3.789932013E0,4.510470867E0,5.877370834E0,8.321743809E0
4.034530260E-1,3.900001764E0,4.520041943E0,5.858228207E0,8.364187387E0
4.058394320E-1,4.033999920E0,4.539184570E0,5.812764645E0,8.406282456E0
4.082258380E-1,4.187140465E0,4.563112736E0,5.760122299E0,8.457727355E0
4.106121930E-1,4.345366001E0,4.603790760E0,5.700301647E0,8.518834070E0
4.129985990E-1,4.488935471E0,4.666004181E0,5.633302689E0,8.582321123E0
4.153850050E-1,4.625326157E0,4.737788677E0,5.580660820E0,8.659333623E0
4.177713590E-1,4.754538536E0,4.809872627E0,5.549553871E0,8.748603291E0
4.201577660E-1,4.869693279E0,4.872086048E0,5.551946640E0,8.847329913E0
4.225441720E-1,4.970191956E0,4.917549610E0,5.602196217E0,8.959336175E0
4.249305780E-1,5.041976452E0,4.939085007E0,5.702694416E0,9.073963348E0
4.273169320E-1,5.082654476E0,4.943870544E0,5.851049423E0,9.192932711E0
4.297033380E-1,5.104189873E0,4.922335148E0,6.037988663E0,9.313401347E0
4.320897450E-1,5.149653435E0,4.864907742E0,6.255735874E0,9.450951759E0
4.344760990E-1,5.104189873E0,4.795515537E0,6.442375660E0,9.515982748E0
4.368625050E-1,5.056333542E0,4.713860512E0,6.665207386E0,9.602706874E0
4.392489110E-1,4.994120121E0,4.615755081E0,6.894918442E0,9.684334312E0
4.416352660E-1,4.941477776E0,4.512863636E0,7.103393078E0,9.759217900E0
4.440216720E-1,4.907978535E0,4.407579422E0,7.292426109E0,9.833335559E0
4.464080780E-1,4.891228676E0,4.307080746E0,7.459923744E0,9.905832866E0
4.487944840E-1,4.876871586E0,4.220939159E0,7.627720356E0,9.989110155E0
4.511808380E-1,4.860121727E0,4.156033993E0,7.797610760E0,1.008445017E1
4.535672450E-1,4.831408024E0,4.120141506E0,7.967501163E0,1.018818651E1
4.559536510E-1,4.807479858E0,4.108177185E0,8.132605553E0,1.030185689E1
4.583400050E-1,4.833800793E0,4.108177185E0,8.290831566E0,1.043937919E1
4.607264110E-1,4.898406982E0,4.122534275E0,8.432007790E0,1.058718259E1
4.631128180E-1,4.939085007E0,4.167997837E0,8.556434631E0,1.072284199E1
4.654991720E-1,5.001298428E0,4.230510235E0,8.712266922E0,1.090017421E1
4.678855780E-1,5.070690155E0,4.309473515E0,8.879764557E0,1.109656159E1
4.702719840E-1,5.144867897E0,4.398007870E0,9.023334503E0,1.127974754E1
4.726583380E-1,5.216652393E0,4.484149456E0,9.169296265E0,1.146285534E1
4.750447450E-1,5.321936607E0,4.539184570E0,9.305986404E0,1.164167466E1
4.774311510E-1,5.362913609E0,4.618147850E0,9.420842171E0,1.178305559E1
4.798175570E-1,5.389235020E0,4.692325115E0,9.573982239E0,1.194666920E1
4.822039110E-1,5.410770416E0,4.752145767E0,9.717552185E0,1.209504636E1
4.845903180E-1,5.434698582E0,4.797908306E0,9.849455833E0,1.222978548E1
4.869767240E-1,5.458626747E0,4.838586330E0,9.945169449E0,1.233348771E1
4.893630780E-1,5.487340450E0,4.869693279E0,1.001456070E1,1.241435636E1
4.917494840E-1,5.511268616E0,4.896014214E0,1.004566765E1,1.246035615E1
4.941358910E-1,5.528018475E0,4.917549610E0,1.002652550E1,1.246083849E1
4.965222450E-1,5.542375565E0,4.936692238E0,9.973882675E0,1.243250549E1
4.989086510E-1,5.559125423E0,4.948656559E0,9.866206169E0,1.235860435E1
5.012950570E-1,5.568696499E0,4.951049328E0,9.743872643E0,1.226647155E1
5.036814110E-1,5.568696499E0,4.953442097E0,9.609874725E0,1.216127713E1
5.060678180E-1,5.556732178E0,4.941477776E0,9.471091270E0,1.204147188E1
5.084542240E-1,5.549553871E0,4.905585289E0,9.346664429E0,1.192570548E1
5.108406300E-1,5.542375565E0,4.838586330E0,9.231510162E0,1.180468655E1
5.132269840E-1,5.518447399E0,4.754538536E0,9.147761345E0,1.169360663E1
5.156133910E-1,5.465805054E0,4.661218643E0,9.092725754E0,1.158790946E1
5.179997970E-1,5.396413326E0,4.558327198E0,9.075976372E0,1.150099868E1
5.203861510E-1,5.286044121E0,4.460221291E0,9.111868858E0,1.143949258E1
5.227725570E-1,5.156831741E0,4.362115860E0,9.178867340E0,1.139616488E1
5.251589630E-1,5.025226593E0,4.271188259E0,9.260522842E0,1.136895927E1
5.275453180E-1,4.922335148E0,4.194318771E0,9.339486122E0,1.135991612E1
5.299317240E-1,4.857728958E0,4.122534275E0,9.408877373E0,1.136308906E1
5.323181300E-1,4.845765114E0,4.055535316E0,9.463912964E0,1.137956303E1
5.347045360E-1,4.888835907E0,3.993321896E0,9.506983757E0,1.141183931E1
5.370908910E-1,4.986941338E0,3.923929930E0,9.552447319E0,1.146804516E1
5.394772970E-1,5.140082359E0,3.856930971E0,9.605089188E0,1.155656097E1
5.418637030E-1,5.338985443E0,3.794717550E0,9.672088623E0,1.168135031E1
5.442500570E-1,5.563910961E0,3.727718592E0,9.753444672E0,1.183142739E1
5.466364630E-1,5.798407555E0,3.658326626E0,9.842277527E0,1.199480349E1
5.490228700E-1,6.026024818E0,3.593421459E0,9.930811882E0,1.215922191E1
5.514092240E-1,6.238986015E0,3.528815269E0,1.001695347E1,1.231733902E1
5.537956300E-1,6.423233509E0,3.461816072E0,1.010070229E1,1.246058931E1
5.561820360E-1,6.576673031E0,3.397209883E0,1.016770172E1,1.257679695E1
5.585683910E-1,6.705885410E0,3.337389469E0,1.023470020E1,1.268290802E1
5.609547970E-1,6.799205780E0,3.282354355E0,1.030648518E1,1.277601996E1
5.633412030E-1,6.847062111E0,3.260818958E0,1.037348461E1,1.285007326E1
5.657276090E-1,6.839883327E0,3.275176048E0,1.042164040E1,1.288880796E1
5.681139630E-1,6.811169624E0,3.306282759E0,1.044796085E1,1.290284555E1
5.705003700E-1,6.772884369E0,3.354139090E0,1.045035362E1,1.289698037E1
5.728867760E-1,6.705885410E0,3.421138287E0,1.043121147E1,1.286402966E1
5.752731300E-1,6.617351055E0,3.512065411E0,1.038066292E1,1.280164447E1
5.776595360E-1,6.531209469E0,3.624528170E0,1.029930687E1,1.272279936E1
5.800459430E-1,6.444768906E0,3.730111361E0,1.019641590E1,1.262599201E1
5.824323490E-1,6.365805626E0,3.837788343E0,1.009830952E1,1.253905721E1
5.848187030E-1,6.279664040E0,3.952643871E0,1.000498962E1,1.245621898E1
5.872051090E-1,6.193522453E0,4.069892406E0,9.923633575E0,1.238556611E1
5.895915160E-1,6.109773636E0,4.203890324E0,9.863813400E0,1.234086069E1
5.919778700E-1,6.018846035E0,4.362115860E0,9.823135376E0,1.231862618E1
5.943642760E-1,5.925526142E0,4.558327198E0,9.827920914E0,1.234820782E1
5.967506820E-1,5.863013744E0,4.764110088E0,9.892526627E0,1.244723898E1
5.991370360E-1,5.846263885E0,4.953442097E0,1.001934624E1,1.261359144E1
6.015234430E-1,5.870192051E0,5.125725269E0,1.019162941E1,1.282971256E1
6.039098490E-1,5.930311680E0,5.271687508E0,1.038574791E1,1.306992905E1
6.062962030E-1,5.994917870E0,5.405984402E0,1.058195877E1,1.330945375E1
6.086826090E-1,6.059524059E0,5.511268616E0,1.076620674E1,1.352786462E1
6.110690160E-1,6.121737480E0,5.566303730E0,1.093131161E1,1.370959447E1
6.134553700E-1,6.188736439E0,5.559125423E0,1.107757282E1,1.385340947E1
6.158417760E-1,6.255735874E0,5.482554913E0,1.120678520E1,1.395652802E1
6.182281820E-1,6.322734833E0,5.348556995E0,1.131446171E1,1.402145076E1
6.206145880E-1,6.392126560E0,5.175974369E0,1.139581776E1,1.405399071E1
6.230009430E-1,6.464210510E0,4.982155800E0,1.144128132E1,1.405385400E1
6.253873490E-1,6.543173313E0,4.785944462E0,1.141974640E1,1.400460600E1
6.277737550E-1,6.614958286E0,4.606183529E0,1.132642555E1,1.390188892E1
6.301601610E-1,6.669992924E0,4.450650215E0,1.115892887E1,1.374113483E1
6.325465160E-1,6.701099873E0,4.323830605E0,1.091456127E1,1.351768835E1
6.349329220E-1,6.705885410E0,4.228117466E0,1.062263680E1,1.325467046E1
6.373193280E-1,6.679564476E0,4.158426762E0,1.028973579E1,1.295329137E1
6.397056820E-1,6.629314899E0,4.108177185E0,9.933204651E0,1.262907322E1
6.420920880E-1,6.543173313E0,4.065106392E0,9.576375008E0,1.229004334E1
6.444784950E-1,6.430411816E0,4.031607151E0,9.212367058E0,1.193615345E1
6.468648490E-1,6.289235115E0,4.012464523E0,8.834300995E0,1.156283806E1
6.492512550E-1,6.116951942E0,4.012464523E0,8.441578865E0,1.117037270E1
6.516376610E-1,5.918347836E0,4.029214382E0,8.024929047E0,1.075457558E1
6.540240160E-1,5.700301647E0,4.053142548E0,7.594220638E0,1.032441720E1
6.564104220E-1,5.480162144E0,4.086641788E0,7.179963589E0,9.913863796E0
6.587968280E-1,5.254937649E0,4.127319813E0,6.768098831E0,9.510851714E0
6.611832340E-1,5.034798145E0,4.165605068E0,6.377769470E0,9.131122678E0
6.635695880E-1,4.824229717E0,4.201497555E0,6.026024818E0,8.788557856E0
6.659559950E-1,4.622933388E0,4.230510235E0,5.717051506E0,8.482535463E0
6.683424010E-1,4.426722050E0,4.256831646E0,5.451447964E0,8.211867551E0
6.707287550E-1,4.240081787E0,4.290330887E0,5.202295303E0,7.965494906E0
6.731151610E-1,4.067499161E0,4.323830605E0,4.991727352E0,7.756120324E0
6.755015680E-1,3.911965847E0,4.359723091E0,4.814658165E0,7.582321245E0
6.778879220E-1,3.720540047E0,4.357329845E0,4.670789719E0,7.392226878E0
6.802743280E-1,3.531208038E0,4.345366001E0,4.567898273E0,7.226156000E0
6.826607340E-1,3.370888948E0,4.366901398E0,4.472185612E0,7.101631099E0
6.850470880E-1,3.251247883E0,4.426722050E0,4.400400639E0,7.037755799E0
6.874334950E-1,3.150749207E0,4.520041943E0,4.323830605E0,7.003821159E0
6.898199010E-1,3.033201694E0,4.625326157E0,4.240081787E0,6.969379322E0
6.922063070E-1,2.875275612E0,4.730610371E0,4.158426762E0,6.923756022E0
6.945926610E-1,2.669492722E0,4.819443703E0,4.072285175E0,6.851039012E0
6.969790680E-1,2.441875458E0,4.891228676E0,3.998107433E0,6.772867691E0
6.993654740E-1,2.204986095E0,4.927121162E0,3.911965847E0,6.666480587E0
7.017518280E-1,1.972882271E0,4.924727917E0,3.813860178E0,6.533815039E0
7.041382340E-1,1.766800404E0,4.881657124E0,3.708575964E0,6.380101537E0
7.065246410E-1,1.582553029E0,4.800301552E0,3.607778311E0,6.209946330E0
7.089110470E-1,1.415055513E0,4.682754040E0,3.524029493E0,6.029042326E0
7.112974010E-1,1.261615753E0,4.539184570E0,3.447459221E0,5.837880262E0
7.136838070E-1,1.115653515E0,4.374079704E0,3.397209883E0,5.649627511E0
7.160702130E-1,9.672985673E-1,4.206283092E0,3.354139090E0,5.466144254E0
7.184565680E-1,8.090731502E-1,4.033999920E0,3.303889751E0,5.276688564E0
7.208429740E-1,6.559324861E-1,3.868895054E0,3.251247883E0,5.095999329E0
7.232293800E-1,5.027918816E-1,3.710968733E0,3.169891834E0,4.906353315E0
7.256157340E-1,3.544368446E-1,3.567100286E0,3.083451033E0,4.728371834E0
7.280021410E-1,2.105683982E-1,3.442673683E0,2.970988512E0,4.552264698E0
7.303885470E-1,7.178468257E-2,3.334996462E0,2.836990356E0,4.379026002E0
7.327749530E-1,-6.699903309E-2,3.246462107E0,2.698206663E0,4.221886341E0
7.351613070E-1,-2.129612118E-1,3.184248686E0,2.557030201E0,4.089400399E0
7.375477130E-1,-3.783650696E-1,3.138785124E0,2.437089920E0,3.991809046E0
7.399341200E-1,-5.530411601E-1,3.102892876E0,2.322234392E0,3.914916512E0
7.423204740E-1,-7.301099896E-1,3.071486950E0,2.212164640E0,3.854966287E0
7.447068800E-1,-9.050851464E-1,3.042773008E0,2.102094650E0,3.807420206E0
7.470932860E-1,-1.065404296E0,3.009273529E0,1.980060697E0,3.756521509E0
7.494796410E-1,-1.211366415E0,2.966202736E0,1.855334878E0,3.702436329E0
7.518660470E-1,-1.347757339E0,2.915953398E0,1.706979871E0,3.637721037E0
7.542524530E-1,-1.467697620E0,2.863311291E0,1.551446438E0,3.572068575E0
7.566388070E-1,-1.568196177E0,2.803490877E0,1.386042476E0,3.498558860E0
7.590252130E-1,-1.644766450E0,2.734098911E0,1.213759303E0,3.413761148E0
7.614116200E-1,-1.697408557E0,2.664707184E0,1.043868899E0,3.327389737E0
7.637980260E-1,-1.733300924E0,2.595315218E0,8.620143533E-1,3.237755692E0
7.661843800E-1,-1.750050664E0,2.525923491E0,6.870391965E-1,3.148807657E0
7.685707860E-1,-1.742872238E0,2.461018085E0,5.075774789E-1,3.058079226E0
7.709571930E-1,-1.714158297E0,2.394019127E0,3.257229924E-1,2.962391215E0
7.733435470E-1,-1.661516190E0,2.324627161E0,1.483550072E-1,2.861212452E0
7.757299530E-1,-1.592124343E0,2.238485575E0,-2.871387079E-2,2.747089747E0
7.781163590E-1,-1.508375525E0,2.140379906E0,-1.794617027E-1,2.624619852E0
7.805027130E-1,-1.422233939E0,2.035095692E0,-3.209373355E-1,2.503470516E0
7.828891200E-1,-1.331007600E0,1.919941068E0,-4.334000051E-1,2.376045138E0
7.852755260E-1,-1.244866014E0,1.800299883E0,-5.099703074E-1,2.247407567E0
7.876619320E-1,-1.170688510E0,1.675873160E0,-5.650052428E-1,2.120918047E0
7.900482860E-1,-1.115653515E0,1.561017632E0,-5.841478109E-1,2.005663850E0
7.924346930E-1,-1.089332461E0,1.458126307E0,-6.008976102E-1,1.916730413E0
7.948210990E-1,-1.096511006E0,1.371685624E0,-6.056832075E-1,1.857608674E0
7.972074530E-1,-1.127617717E0,1.304686546E0,-6.128616929E-1,1.830116978E0
7.995938590E-1,-1.170688510E0,1.249651670E0,-6.296114326E-1,1.824431813E0
8.019802660E-1,-1.223330617E0,1.201795220E0,-6.463612318E-1,1.832657194E0
8.043666200E-1,-1.278365493E0,1.163509965E0,-6.774678826E-1,1.856592713E0
8.067530260E-1,-1.333400369E0,1.125224829E0,-7.037889361E-1,1.881330998E0
8.091394320E-1,-1.386042476E0,1.094118118E0,-7.396813035E-1,1.914506890E0
8.115257860E-1,-1.436590910E0,1.058225870E0,-7.779664397E-1,1.946501276E0
8.139121930E-1,-1.474876046E0,1.015154958E0,-8.114659786E-1,1.965776176E0
8.162985990E-1,-1.498804331E0,9.601200819E-1,-8.572286963E-1,1.975622948E0
8.186850050E-1,-1.510768414E0,8.907282352E-1,-8.979067206E-1,1.970292990E0
8.210713590E-1,-1.513161182E0,8.186444640E-1,-9.601200819E-1,1.970194431E0
8.234577660E-1,-1.503589988E0,7.420741320E-1,-1.029511929E0,1.967575076E0
8.258441720E-1,-1.486840129E0,6.607181430E-1,-1.096511006E0,1.962034256E0
8.282305260E-1,-1.460519075E0,5.793621540E-1,-1.168295622E0,1.957981393E0
8.306169320E-1,-1.436590910E0,4.956133962E-1,-1.228116274E0,1.953892439E0
8.330033380E-1,-1.410269856E0,4.166502357E-1,-1.295115232E0,1.959536157E0
8.353897450E-1,-1.386042476E0,3.400799036E-1,-1.347757339E0,1.962961521E0
8.377760990E-1,-1.359721422E0,2.679961324E-1,-1.395613790E0,1.966825392E0
8.401625050E-1,-1.331007600E0,1.986042857E-1,-1.441376567E0,1.971951141E0
8.425489110E-1,-1.304686546E0,1.292124242E-1,-1.472483277E0,1.971575471E0
8.449352660E-1,-1.285543919E0,6.699903309E-2,-1.505982757E0,1.981185529E0
8.473216720E-1,-1.266401410E0,9.571290575E-3,-1.522732496E0,1.980550024E0
8.497080780E-1,-1.240080357E0,-4.785645381E-2,-1.539482236E0,1.977396037E0
8.520944320E-1,-1.204187989E0,-1.052841991E-1,-1.563410521E0,1.976209992E0
8.544808380E-1,-1.165902853E0,-1.627119333E-1,-1.582553029E0,1.972378951E0
8.568672450E-1,-1.125224829E0,-2.225325108E-1,-1.611266971E0,1.977835404E0
8.592535990E-1,-1.089332461E0,-2.898306549E-1,-1.637588024E0,1.988049687E0
8.616400050E-1,-1.043868899E0,-3.735794425E-1,-1.666301847E0,2.001445908E0
8.640264110E-1,-9.888339639E-1,-4.716851711E-1,-1.685444474E0,2.010224511E0
8.664128180E-1,-9.242277741E-1,-5.865406394E-1,-1.690230131E0,2.013729077E0
8.687991720E-1,-8.524430394E-1,-7.085745931E-1,-1.685444474E0,2.017290303E0
8.711855780E-1,-7.779664397E-1,-8.282157183E-1,-1.668694735E0,2.018840057E0
8.735719840E-1,-7.253243923E-1,-9.314061999E-1,-1.654337764E0,2.032349975E0
8.759583380E-1,-6.870391965E-1,-1.017547846E0,-1.637588024E0,2.046734231E0
8.783447450E-1,-6.559324861E-1,-1.091725349E0,-1.618445396E0,2.059484685E0
8.807311510E-1,-6.248258352E-1,-1.161117196E0,-1.592124343E0,2.067234963E0
8.831175050E-1,-5.817549825E-1,-1.235294700E0,-1.549053550E0,2.064935533E0
8.855039110E-1,-5.219344497E-1,-1.319043517E0,-1.501197100E0,2.065401681E0
8.878903180E-1,-4.573282301E-1,-1.410269856E0,-1.446162224E0,2.071085550E0
8.902767240E-1,-3.855435550E-1,-1.501197100E0,-1.390828133E0,2.082459954E0
8.926630780E-1,-3.113660514E-1,-1.604088426E0,-1.338186026E0,2.112058317E0
8.950494840E-1,-2.297109663E-1,-1.716551185E0,-1.283151150E0,2.155409931E0
8.974358910E-1,-1.411765367E-1,-1.833799481E0,-1.232901812E0,2.214226328E0
8.998222450E-1,-5.982056633E-2,-1.955833435E0,-1.182652593E0,2.286379251E0
9.022086510E-1,1.196411345E-2,-2.087737799E0,-1.127617717E0,2.372828264E0
9.045950570E-1,7.657032460E-2,-2.224128723E0,-1.063011408E0,2.466293747E0
9.069814110E-1,1.268195957E-1,-2.360519648E0,-9.816554785E-1,2.559645228E0
9.093678180E-1,1.722832322E-1,-2.499303341E0,-8.955138922E-1,2.660478121E0
9.117542240E-1,2.201396823E-1,-2.635993242E0,-7.875377536E-1,2.759916225E0
9.141406300E-1,2.751746178E-1,-2.769991398E0,-6.822535396E-1,2.866015231E0
9.165269840E-1,3.424727321E-1,-2.901596546E0,-5.745765567E-1,2.977698492E0
9.189133910E-1,4.094717801E-1,-3.021237612E0,-4.645066857E-1,3.084041230E0
9.212997970E-1,4.740779996E-1,-3.136392355E0,-3.711866140E-1,3.193663485E0
9.236861510E-1,5.458626747E-1,-3.258426189E0,-2.775674164E-1,3.315471454E0
9.260725570E-1,6.320042610E-1,-3.382853031E0,-2.009970993E-1,3.447248736E0
9.284589630E-1,7.396813035E-1,-3.524029493E0,-1.292124242E-1,3.603138653E0
9.308453180E-1,8.691928387E-1,-3.677469254E0,-6.699903309E-2,3.779386878E0
9.332317240E-1,1.017547846E0,-3.844966888E0,-1.674975827E-2,3.977367791E0
9.356181300E-1,1.182652593E0,-4.024428368E0,3.589234129E-2,4.194756143E0
9.380044840E-1,1.369292736E0,-4.216153622E0,6.221338734E-2,4.433371681E0
9.403908910E-1,1.580160260E0,-4.417150497E0,7.417750359E-2,4.691868206E0
9.427772970E-1,1.819442511E0,-4.634897232E0,6.221338734E-2,4.979609815E0
9.451637030E-1,2.085345030E0,-4.869693279E0,2.392822690E-2,5.297466289E0
9.475500570E-1,2.377269268E0,-5.120939732E0,-2.392822690E-2,5.645883940E0
9.499364630E-1,2.700599432E0,-5.384449005E0,-9.810572863E-2,6.024545885E0
9.523228700E-1,3.049951553E0,-5.659623623E0,-1.722832322E-1,6.431424845E0
9.547092240E-1,3.428316593E0,-5.935097694E0,-2.488535494E-1,6.858619934E0
9.570956300E-1,3.830610037E0,-6.210271835E0,-3.233301640E-1,7.303806673E0
9.594820360E-1,4.259224415E0,-6.483353138E0,-3.783650696E-1,7.766467708E0
9.618684430E-1,4.725824833E0,-6.746563435E0,-4.357928336E-1,8.248603150E0
9.642547970E-1,5.252544880E0,-7.004988194E0,-4.932205677E-1,8.769398716E0
9.666412030E-1,5.836692810E0,-7.251748085E0,-5.817549825E-1,9.327018393E0
9.690276090E-1,6.464210510E0,-7.483851910E0,-6.750751138E-1,9.912102872E0
9.714139630E-1,7.139285564E0,-7.685148239E0,-7.444669604E-1,1.051594660E1
9.738003700E-1,7.869395256E0,-7.855038643E0,-7.875377536E-1,1.114671384E1
9.761867760E-1,8.664112091E0,-7.977072716E0,-7.947162390E-1,1.180390195E1
9.785731820E-1,9.535696983E0,-8.056035995E0,-8.018946648E-1,1.250888756E1
9.809595360E-1,1.048146057E1,-8.099106789E0,-8.210372925E-1,1.327142226E1
9.833459430E-1,1.150349522E1,-8.134998322E0,-8.715856671E-1,1.411624105E1
9.857322970E-1,1.259043407E1,-8.173583031E0,-9.768698215E-1,1.504263156E1
9.881187030E-1,1.371805191E1,-8.223832130E0,-1.115653515E0,1.603312340E1
9.905051090E-1,1.489861107E1,-8.293224335E0,-1.297508121E0,1.710057628E1
9.928915160E-1,1.617458344E1,-8.408080101E0,-1.491625786E0,1.829037746E1
9.952778700E-1,1.758694649E1,-8.580363274E0,-1.706979871E0,1.964273659E1
9.976642760E-1,1.911446571E1,-8.788837433E0,-1.960619092E0,2.112937505E1
1.000050682E0,2.074487495E1,-9.025727272E0,-2.207378864E0,2.273073054E1
1.002437036E0,2.249492645E1,-9.315557480E0,-2.360519648E0,2.446167166E1
1.004823443E0,2.435743904E1,-9.672088623E0,-2.303091764E0,2.630852270E1
1.007209849E0,2.630400085E1,-1.010070229E1,-1.984846354E0,2.824649116E1
1.009596255E0,2.829572678E1,-1.057956600E1,-1.350150228E0,3.023901910E1
1.011982609E0,3.031167984E1,-1.108235836E1,-3.400799036E-1,3.227587731E1
1.014369016E0,3.233959579E1,-1.158514977E1,1.072582722E0,3.436881704E1
1.016755422E0,3.436003494E1,-1.204935741E1,2.908775091E0,3.652752370E1
1.019141776E0,3.633291626E1,-1.243011570E1,5.149653435E0,3.874412873E1
1.021528182E0,3.821218109E1,-1.268644619E1,7.811967850E0,4.101394327E1
1.023914588E0,3.994548035E1,-1.277976704E1,1.087149048E1,4.332612550E1
1.026300995E0,4.149214172E1,-1.266012573E1,1.423998642E1,4.565800939E1
1.028687349E0,4.280400848E1,-1.229611778E1,1.794856262E1,4.801591981E1
1.031073755E0,4.386701965E1,-1.166650581E1,2.189881325E1,5.039822212E1
1.033460161E0,4.470032120E1,-1.079731274E1,2.581077957E1,5.273421109E1
1.035846516E0,4.535146713E1,-9.760622978E0,2.940420151E1,5.492387822E1
1.038232922E0,4.584947205E1,-8.678468704E0,3.235873795E1,5.678536631E1
1.040619328E0,4.622993088E1,-7.713861942E0,3.446771240E1,5.817846142E1
1.043005682E0,4.652693939E1,-6.988238335E0,3.572484207E1,5.907500237E1
1.045392088E0,4.675665283E1,-6.550352097E0,3.631616974E1,5.956472010E1
1.047778495E0,4.691727066E1,-6.358626842E0,3.640709686E1,5.972553159E1
1.050164901E0,4.697708893E1,-6.315556049E0,3.613880157E1,5.960491684E1
1.052551255E0,4.689573288E1,-6.315556049E0,3.561207962E1,5.922259894E1
1.054937661E0,4.662026215E1,-6.274878502E0,3.483889771E1,5.853692626E1
1.057324068E0,4.612943268E1,-6.157629967E0,3.383570862E1,5.753864913E1
1.059710422E0,4.542564392E1,-5.968596935E0,3.259802246E1,5.622939039E1
1.062096828E0,4.453252411E1,-5.738586903E0,3.113750267E1,5.464083780E1
1.064483234E0,4.348895264E1,-5.487340450E0,2.947149849E1,5.282015837E1
1.066869588E0,4.233232117E1,-5.233402252E0,2.761825752E1,5.081517552E1
1.069255995E0,4.108506393E1,-4.991727352E0,2.561456871E1,4.867243522E1
1.071642401E0,3.978037643E1,-4.771587372E0,2.352683067E1,4.646243813E1
1.074028807E0,3.843949890E1,-4.567898273E0,2.138884354E1,4.422604887E1
1.076415161E0,3.706781387E1,-4.388436794E0,1.919582176E1,4.197333411E1
1.078801568E0,3.568894958E1,-4.237689018E0,1.700279999E1,3.975870141E1
1.081187974E0,3.431935883E1,-4.122534275E0,1.487946892E1,3.763259590E1
1.083574328E0,3.299552917E1,-4.048357010E0,1.285872936E1,3.564324706E1
1.085960734E0,3.172434235E1,-4.017250061E0,1.098903847E1,3.381318030E1
1.088347141E0,3.051746178E1,-4.031607151E0,9.270093918E0,3.214815657E1
1.090733495E0,2.937070084E1,-4.081856251E0,7.716254711E0,3.064049942E1
1.093119901E0,2.828136826E1,-4.170390606E0,6.363412857E0,2.928687370E1
1.095506307E0,2.724258423E1,-4.283152580E0,5.223830700E0,2.806763614E1
1.097892713E0,2.624417877E1,-4.400400639E0,4.321437836E0,2.695914075E1
1.100279068E0,2.527448845E1,-4.503292084E0,3.634099483E0,2.592848019E1
1.102665474E0,2.432394028E1,-4.577469826E0,3.167499065E0,2.495276239E1
1.105051880E0,2.339522552E1,-4.615755081E0,2.913560629E0,2.402354278E1
1.107438234E0,2.248774719E1,-4.610969067E0,2.851347208E0,2.313201224E1
1.109824641E0,2.160180473E1,-4.560719967E0,2.949453115E0,2.227414214E1
1.112211047E0,2.073769569E1,-4.479363918E0,3.162713289E0,2.145039578E1
1.114597401E0,1.990678978E1,-4.371686935E0,3.471387386E0,2.067468153E1
1.116983807E0,1.911925125E1,-4.254438877E0,3.837788343E0,1.995932459E1
1.119370213E0,1.837239075E1,-4.139284134E0,4.225724697E0,1.930117002E1
1.121756620E0,1.767578125E1,-4.033999920E0,4.610969067E0,1.870741655E1
1.124142974E0,1.702433395E1,-3.943072557E0,4.958227634E0,1.816479532E1
1.126529380E0,1.641865158E1,-3.864109516E0,5.266901970E0,1.767041931E1
1.128915786E0,1.585603905E1,-3.794717550E0,5.518447399E0,1.721241172E1
1.131302141E0,1.532692623E1,-3.730111361E0,5.712265968E0,1.677672140E1
1.133688547E0,1.482652760E1,-3.672683716E0,5.853442192E0,1.635779055E1
1.136074953E0,1.434796238E1,-3.619742393E0,5.937490463E0,1.594428902E1
1.138461307E0,1.388824177E1,-3.557528973E0,5.980561256E0,1.553403955E1
1.140847713E0,1.344287777E1,-3.492922783E0,5.961418629E0,1.511456200E1
1.143234120E0,1.300947762E1,-3.418745279E0,5.901597977E0,1.468887966E1
1.145620526E0,1.259282780E1,-3.339782238E0,5.805585861E0,1.426317933E1
1.148006880E0,1.219561863E1,-3.253640652E0,5.676373482E0,1.383981601E1
1.150393286E0,1.182203960E1,-3.160320520E0,5.523232937E0,1.342588352E1
1.152779693E0,1.146999550E1,-3.057130098E0,5.338985443E0,1.301582140E1
1.155166047E0,1.114935684E1,-2.954238653E0,5.140082359E0,1.262759402E1
1.157552453E0,1.084995556E1,-2.844168901E0,4.924727917E0,1.225005214E1
1.159938859E0,1.056999493E1,-2.729313374E0,4.699503899E0,1.188525478E1
1.162325266E0,1.031366348E1,-2.607279301E0,4.474578381E0,1.154085835E1
1.164711620E0,1.006720352E1,-2.477767944E0,4.240081787E0,1.120117022E1
1.167098026E0,9.830313683E0,-2.338984251E0,4.005286217E0,1.086960129E1
1.169484432E0,9.605089188E0,-2.185843468E0,3.770789385E0,1.054772499E1
1.171870786E0,9.394520760E0,-2.020738840E0,3.533600807E0,1.023849307E1
1.174257193E0,9.202795982E0,-1.848156333E0,3.303889751E0,9.951021215E0
1.176643599E0,9.025727272E0,-1.675873160E0,3.073879719E0,9.680962771E0
1.179029953E0,8.865407944E0,-1.496411443E0,2.860918522E0,9.435017753E0
1.181416359E0,8.717052460E0,-1.307079315E0,2.647957325E0,9.203648077E0
1.183802766E0,8.587541580E0,-1.120439172E0,2.441875458E0,8.998000338E0
1.186189172E0,8.477471352E0,-9.409775138E-1,2.255235434E0,8.822643938E0
1.188575526E0,8.386544228E0,-7.660023570E-1,2.075773716E0,8.673506800E0
1.190961932E0,8.314759254E0,-6.056832075E-1,1.912762642E0,8.553404850E0
1.193348338E0,8.254939079E0,-4.597210586E-1,1.752443433E0,8.451415304E0
1.195734693E0,8.214261055E0,-3.281157911E-1,1.596910000E0,8.374477070E0
1.198121099E0,8.183154106E0,-2.105683982E-1,1.448554993E0,8.313041666E0
1.200507505E0,8.161619186E0,-1.100698411E-1,1.309472203E0,8.266732158E0
1.202893859E0,8.147261620E0,-2.632104978E-2,1.180259824E0,8.232349479E0
1.205280266E0,8.134998322E0,4.546362907E-2,1.043868899E0,8.201824609E0
1.207666672E0,8.111070633E0,1.004985496E-1,9.098708034E-1,8.162562811E0
1.210053078E0,8.077570915E0,1.507478207E-1,7.683951855E-1,8.115436400E0
1.212439432E0,8.036892891E0,1.938186288E-1,6.272186637E-1,8.063660227E0
1.214825838E0,7.981858253E0,2.321037948E-1,4.980062246E-1,8.000746437E0
1.217212245E0,7.907680511E0,2.703889608E-1,3.831507266E-1,7.921573438E0
1.219598599E0,7.823931694E0,3.041875660E-1,2.898306549E-1,7.835205105E0
1.221985005E0,7.730611801E0,3.352942765E-1,2.129612118E-1,7.740809618E0
1.224371411E0,7.634898663E0,3.640081584E-1,1.579262912E-1,7.645202433E0
1.226757766E0,7.534101009E0,3.783650696E-1,1.244267747E-1,7.544621937E0
1.229144172E0,7.435995579E0,3.855435550E-1,1.076770201E-1,7.446762278E0
1.231530578E0,7.340282440E0,3.807578981E-1,1.052841991E-1,7.350905226E0
1.233916984E0,7.249355316E0,3.640081584E-1,1.124626622E-1,7.259359634E0
1.236303338E0,7.158428192E0,3.352942765E-1,1.244267747E-1,7.167356448E0
1.238689745E0,7.065107822E0,2.994019389E-1,1.387837082E-1,7.072810685E0
1.241076151E0,6.969096184E0,2.584248483E-1,1.627119333E-1,6.975783841E0
1.243462505E0,6.868597507E0,2.105683982E-1,1.842473447E-1,6.874293990E0
1.245848911E0,6.768098831E0,1.674975902E-1,2.129612118E-1,6.773519743E0
1.248235318E0,6.655636311E0,1.244267747E-1,2.416750938E-1,6.661184847E0
1.250621672E0,6.540780544E0,8.135596663E-2,2.679961324E-1,6.546774080E0
1.253008078E0,6.416054726E0,4.546362907E-2,2.994019389E-1,6.423197545E0
1.255394484E0,6.294020653E0,1.196411345E-2,3.376871049E-1,6.303084300E0
1.257780838E0,6.174379826E0,-1.914258115E-2,3.783650696E-1,6.185991658E0
1.260167245E0,6.061916828E0,-4.307080805E-2,4.022932947E-1,6.075403741E0
1.262553651E0,5.951847076E0,-6.221338734E-2,4.118646085E-1,5.966404829E0
1.264940057E0,5.851049423E0,-7.896314561E-2,4.190430641E-1,5.866567277E0
1.267326411E0,5.760122299E0,-1.028913707E-1,4.334000051E-1,5.777320408E0
1.269712818E0,5.666802406E0,-1.339980662E-1,4.501497746E-1,5.686232480E0
1.272099224E0,5.571089268E0,-1.698904037E-1,4.621138871E-1,5.592803199E0
1.274485578E0,5.463412285E0,-2.033899277E-1,4.740779996E-1,5.487712748E0
1.276871984E0,5.346164227E0,-2.368894368E-1,4.980062246E-1,5.374532421E0
1.279258391E0,5.223830700E0,-2.632105052E-1,5.243272781E-1,5.256672526E0
1.281644745E0,5.101797104E0,-2.850449979E-1,5.506483316E-1,5.139338277E0
1.284031151E0,4.982155800E0,-3.017947674E-1,5.650052428E-1,5.023165080E0
1.286417557E0,4.872086048E0,-3.161516786E-1,5.817549825E-1,4.916870265E0
1.288803963E0,4.768895626E0,-3.281157911E-1,6.032904387E-1,4.818089333E0
1.291190318E0,4.673182487E0,-3.329014480E-1,6.200401783E-1,4.725876401E0
1.293576724E0,4.572684288E0,-3.352942765E-1,6.320042610E-1,4.628314297E0
1.295963130E0,4.472185612E0,-3.400799036E-1,6.391827464E-1,4.530414227E0
1.298349484E0,4.366901398E0,-3.376871049E-1,6.535396576E-1,4.428427992E0
1.300735891E0,4.264009953E0,-3.376871049E-1,6.607181430E-1,4.328089870E0
1.303122297E0,4.156033993E0,-3.376871049E-1,6.607181430E-1,4.221753142E0
1.305508703E0,4.050749779E0,-3.424727321E-1,6.487540603E-1,4.116642221E0
1.307895057E0,3.947858334E0,-3.472583890E-1,6.343970895E-1,4.013556213E0
1.310281463E0,3.837788343E0,-3.496512175E-1,6.248258352E-1,3.904008538E0
1.312667870E0,3.720540047E0,-3.472583890E-1,5.913262963E-1,3.783209407E0
1.315054224E0,3.595814228E0,-3.352942765E-1,5.482555032E-1,3.652791578E0
1.317440630E0,3.464209080E0,-3.161516786E-1,4.980062246E-1,3.514072656E0
1.319827036E0,3.330210924E0,-2.922234535E-1,4.501497746E-1,3.373178644E0
1.322213391E0,3.189034462E0,-2.679961324E-1,4.070789516E-1,3.226061996E0
1.324599797E0,3.047558784E0,-2.392822653E-1,3.448655605E-1,3.076329437E0
1.326986203E0,2.906382322E0,-2.057827413E-1,2.850449979E-1,2.927568170E0
1.329372557E0,2.765205622E0,-1.698904037E-1,2.249253243E-1,2.779535264E0
1.331758963E0,2.628814697E0,-1.363908947E-1,1.627119333E-1,2.637374521E0
1.334145370E0,2.496910334E0,-1.052841991E-1,9.332008660E-2,2.500870771E0
1.336531776E0,2.367697954E0,-7.896314561E-2,1.435693540E-2,2.369057809E0
1.338918130E0,2.238485575E0,-5.024927482E-2,-7.178468257E-2,2.240199924E0
1.341304536E0,2.114058733E0,-2.632104978E-2,-1.651047617E-1,2.120659498E0
1.343690943E0,1.984846354E0,0.000000000E0,-2.679961324E-1,2.002857203E0
1.346077297E0,1.857727647E0,2.392822690E-2,-3.807578981E-1,1.896497073E0
1.348463703E0,1.723729610E0,5.024927482E-2,-5.003990531E-1,1.795596829E0
1.350850109E0,1.592124343E0,7.417750359E-2,-6.032904387E-1,1.704207023E0
1.353236463E0,1.460519075E0,9.571290761E-2,-7.109674215E-1,1.627191324E0
1.355622870E0,1.326221943E0,1.244267747E-1,-8.186444640E-1,1.563497817E0
1.358009276E0,1.192223907E0,1.531406492E-1,-9.194421172E-1,1.513348509E0
1.360395682E0,1.063011408E0,1.866401732E-1,-1.005583763E0,1.475136100E0
1.362782036E0,9.409775138E-1,2.225325108E-1,-1.074975610E0,1.445867200E0
1.365168443E0,8.234301209E-1,2.536391914E-1,-1.151545882E0,1.438203018E0
1.367554849E0,7.157530785E-1,2.850449979E-1,-1.218544960E0,1.441667416E0
1.369941203E0,6.176473498E-1,3.137588799E-1,-1.280758262E0,1.456116276E0
1.372327609E0,5.315057039E-1,3.400799036E-1,-1.331007600E0,1.473001658E0
1.374714016E0,4.549354017E-1,3.616153300E-1,-1.376471281E0,1.494123507E0
1.377100370E0,3.831507266E-1,3.783650696E-1,-1.436590910E0,1.534196222E0
1.379486776E0,3.185445070E-1,3.975076675E-1,-1.491625786E0,1.576207611E0
1.381873182E0,2.608176768E-1,4.070789516E-1,-1.539482236E0,1.613612310E0
1.384259588E0,2.129612118E-1,4.166502357E-1,-1.577767372E0,1.645691276E0
1.386645943E0,1.722832322E-1,4.238287210E-1,-1.616052628E0,1.679564941E0
1.389032349E0,1.387837082E-1,4.262215197E-1,-1.656730533E0,1.716298855E0
1.391418755E0,1.148554832E-1,4.238287210E-1,-1.687837243E0,1.744023258E0
1.393805109E0,1.028913707E-1,4.166502357E-1,-1.711765528E0,1.764745102E0
1.396191516E0,9.571290761E-2,4.094717801E-1,-1.740479350E0,1.790557586E0
1.398577922E0,9.571290761E-2,3.975076675E-1,-1.764407635E0,1.811161950E0
1.400964276E0,9.332008660E-2,3.831507266E-1,-1.785943031E0,1.828962993E0
1.403350682E0,8.853443712E-2,3.759722710E-1,-1.790728688E0,1.831912315E0
1.405737088E0,7.657032460E-2,3.687937856E-1,-1.800299883E0,1.839280169E0
1.408123495E0,5.742774159E-2,3.687937856E-1,-1.807478428E0,1.845612383E0
1.410509849E0,3.589234129E-2,3.807578981E-1,-1.812264085E0,1.852178704E0
1.412896255E0,7.178467698E-3,3.975076675E-1,-1.805085540E0,1.848349989E0
1.415282661E0,-2.153540403E-2,4.142574072E-1,-1.793121457E0,1.840477529E0
1.417669016E0,-5.024927482E-2,4.357928336E-1,-1.797907114E0,1.850651338E0
1.420055422E0,-7.896314561E-2,4.549354017E-1,-1.817049742E0,1.874798966E0
1.422441828E0,-1.172483116E-1,4.764707983E-1,-1.848156333E0,1.912185509E0
1.424828234E0,-1.531406492E-1,4.908277392E-1,-1.881655931E0,1.950639119E0
1.427214588E0,-1.890329868E-1,4.908277392E-1,-1.915155411E0,1.986067871E0
1.429600995E0,-2.201396823E-1,4.764707983E-1,-1.953440547E0,2.022724863E0
1.431987349E0,-2.440679073E-1,4.429712892E-1,-1.970489502E0,2.034360239E0
1.434373755E0,-2.512463629E-1,3.951148391E-1,-1.970489502E0,2.025356598E0
1.436760161E0,-2.488535494E-1,3.352942765E-1,-1.948654890E0,1.992888913E0
1.439146568E0,-2.344966233E-1,2.679961324E-1,-1.915155411E0,1.947981222E0
1.441532922E0,-2.129612118E-1,1.986042857E-1,-1.879263043E0,1.901690229E0
1.443919328E0,-1.866401732E-1,1.316052526E-1,-1.826620936E0,1.840841803E0
1.446305734E0,-1.603191197E-1,7.417750359E-2,-1.771586061E0,1.780371223E0
1.448692088E0,-1.363908947E-1,2.392822690E-2,-1.718943954E0,1.724512497E0
1.451078495E0,-1.172483116E-1,-1.914258115E-2,-1.673480392E0,1.677691934E0
1.453464901E0,-9.810572863E-2,-5.264209956E-2,-1.628016710E0,1.631819332E0
1.455851307E0,-8.135596663E-2,-8.614161611E-2,-1.582553029E0,1.586982439E0
1.458237661E0,-6.699903309E-2,-1.172483116E-1,-1.561017632E0,1.566847818E0
1.460624068E0,-5.264209956E-2,-1.531406492E-1,-1.549053550E0,1.557494831E0
1.463010474E0,-4.067798331E-2,-1.938186288E-1,-1.539482236E0,1.552168133E0
1.465396828E0,-1.914258115E-2,-2.344966233E-1,-1.541875124E0,1.559722412E0
1.467783234E0,2.392822644E-3,-2.799602449E-1,-1.541875124E0,1.567087222E0
1.470169641E0,3.110669367E-2,-3.257229924E-1,-1.551446438E0,1.585575335E0
1.472555995E0,6.939185411E-2,-3.711866140E-1,-1.558624864E0,1.603716371E0
1.474942401E0,1.124626622E-1,-4.190430641E-1,-1.572981834E0,1.631722033E0
1.477328807E0,1.651047617E-1,-4.692923427E-1,-1.594517231E0,1.670323347E0
1.479715213E0,2.273181528E-1,-5.123631358E-1,-1.620838284E0,1.715023694E0
1.482101568E0,2.922234535E-1,-5.554339290E-1,-1.656730533E0,1.771625653E0
1.484487974E0,3.568296731E-1,-5.937191248E-1,-1.692622900E0,1.828880011E0
1.486874380E0,4.190430641E-1,-6.248258352E-1,-1.730908036E0,1.887338614E0
1.489260734E0,4.812564552E-1,-6.535396576E-1,-1.757229090E0,1.935607381E0
1.491647141E0,5.338985324E-1,-6.846463680E-1,-1.781157374E0,1.981491833E0
1.494033547E0,5.817549825E-1,-7.085745931E-1,-1.800299883E0,2.020296137E0
1.496419901E0,6.272186637E-1,-7.348956466E-1,-1.819442511E0,2.060059687E0
1.498806307E0,6.655037999E-1,-7.540382147E-1,-1.838585138E0,2.095677515E0
1.501192713E0,6.990033388E-1,-7.731808424E-1,-1.848156333E0,2.121814345E0
1.503579068E0,7.277171612E-1,-7.851449251E-1,-1.855334878E0,2.142029955E0
1.505965474E0,7.492526174E-1,-7.971090674E-1,-1.867298961E0,2.164155207E0
1.508351880E0,7.636095285E-1,-8.042874932E-1,-1.867298961E0,2.171815667E0
1.510738286E0,7.707880139E-1,-8.090731502E-1,-1.867298961E0,2.176124751E0
1.513124641E0,7.683951855E-1,-8.162516356E-1,-1.867298961E0,2.177958517E0
1.515511047E0,7.731808424E-1,-8.282157183E-1,-1.869691849E0,2.186206189E0
1.517897453E0,7.803592682E-1,-8.428717852E-1,-1.876870275E0,2.200462556E0
1.520283807E0,7.899305820E-1,-8.476574421E-1,-1.876870275E0,2.205709748E0
1.522670213E0,8.138588071E-1,-8.500502706E-1,-1.881655931E0,2.219364924E0
1.525056620E0,8.500502706E-1,-8.500502706E-1,-1.879263043E0,2.230874383E0
1.527442974E0,8.955138922E-1,-8.524430394E-1,-1.891227245E0,2.259500998E0
1.529829380E0,9.361918569E-1,-8.548358679E-1,-1.907976985E0,2.290758767E0
1.532215786E0,9.792626500E-1,-8.739784956E-1,-1.936690807E0,2.339565137E0
1.534602193E0,1.029511929E0,-9.098708034E-1,-1.987239242E0,2.415963471E0
1.536988547E0,1.098903775E0,-9.601200819E-1,-2.037488461E0,2.506148301E0
1.539374953E0,1.189831018E0,-1.031904817E0,-2.094916344E0,2.620915849E0
1.541761359E0,1.299900889E0,-1.122832060E0,-2.154736757E0,2.755609669E0
1.544147713E0,1.438983679E0,-1.228116274E0,-2.212164640E0,2.910775843E0
1.546534120E0,1.592124343E0,-1.350150228E0,-2.255235434E0,3.073085163E0
1.548920526E0,1.766800404E0,-1.482054472E0,-2.295913219E0,3.254118411E0
1.551306932E0,1.958226204E0,-1.628016710E0,-2.327019930E0,3.449653610E0
1.553693286E0,2.164308071E0,-1.781157374E0,-2.353341103E0,3.659913300E0
1.556079693E0,2.379662037E0,-1.943869352E0,-2.374876499E0,3.883485272E0
1.558466099E0,2.600100994E0,-2.123630047E0,-2.398804665E0,4.126086957E0
1.560852453E0,2.817847729E0,-2.315055847E0,-2.437089920E0,4.386246308E0
1.563238859E0,3.028416157E0,-2.501696110E0,-2.480160713E0,4.645533878E0
1.565625266E0,3.244069338E0,-2.693420887E0,-2.508874655E0,4.906419670E0
1.568011620E0,3.478565931E0,-2.901596546E0,-2.535494804E0,5.191186508E0
1.570398026E0,3.737289906E0,-3.133999348E0,-2.568994284E0,5.512623638E0
1.572784432E0,4.012464523E0,-3.385245800E0,-2.612065077E0,5.863671601E0
1.575170786E0,4.314259052E0,-3.641277790E0,-2.638386011E0,6.231598179E0
1.577557193E0,4.651647091E0,-3.876073599E0,-2.657528639E0,6.612429634E0
1.579943599E0,5.034798145E0,-4.105784416E0,-2.667099953E0,7.022825656E0
1.582329953E0,5.472983360E0,-4.345366001E0,-2.683849812E0,7.485906916E0
1.584716359E0,5.968596935E0,-4.584648132E0,-2.702992201E0,7.996831542E0
1.587102766E0,6.519245148E0,-4.812265396E0,-2.700599432E0,8.541176314E0
1.589489172E0,7.112964630E0,-5.044369221E0,-2.702992201E0,9.129408168E0
1.591875578E0,7.756932735E0,-5.288437366E0,-2.707777977E0,9.770856504E0
1.594261932E0,8.460721970E0,-5.537590027E0,-2.693420887E0,1.046437937E1
1.596648338E0,9.224330902E0,-5.781657696E0,-2.683849812E0,1.121244381E1
1.599034745E0,1.006002426E1,-6.028417587E0,-2.683849812E0,1.203116605E1
1.601421099E0,1.097707367E1,-6.270092487E0,-2.698206663E0,1.292635004E1
1.603807505E0,1.198235893E1,-6.516852379E0,-2.717349291E0,1.390792140E1
1.606193911E0,1.305254841E1,-6.753741741E0,-2.750848770E0,1.495156234E1
1.608580266E0,1.417298794E1,-6.976274490E0,-2.784348249E0,1.604040486E1
1.610966672E0,1.533649731E1,-7.184749126E0,-2.791526794E0,1.716453878E1
1.613353078E0,1.654307938E1,-7.376174927E0,-2.755634308E0,1.832143423E1
1.615739432E0,1.779063606E1,-7.560422421E0,-2.652743101E0,1.951163152E1
1.618125838E0,1.907617950E1,-7.742575645E0,-2.482553482E0,2.073671078E1
1.620512245E0,2.041436577E1,-7.929215908E0,-2.236092806E0,2.201406154E1
1.622898651E0,2.181985092E1,-8.115856171E0,-1.900798440E0,2.335778351E1
1.625285005E0,2.329951286E1,-8.295617104E0,-1.458126307E0,2.477520323E1
1.627671411E0,2.486262321E1,-8.446364403E0,-8.859425783E-1,2.627310410E1
1.630057818E0,2.651217651E1,-8.542078018E0,-1.866401732E-1,2.785493556E1
1.632444172E0,2.823351288E1,-8.563612938E0,6.320042610E-1,2.951044129E1
1.634830578E0,3.001945496E1,-8.501399994E0,1.558624864E0,3.123893067E1
1.637216984E0,3.185594749E1,-8.360222816E0,2.578565598E0,3.303549178E1
1.639603391E0,3.371846008E1,-8.147261620E0,3.696611881E0,3.488520262E1
1.641989745E0,3.557140350E1,-7.855038643E0,4.903192520E0,3.675687250E1
1.644376151E0,3.738157272E1,-7.464709282E0,6.171987057E0,3.861602372E1
1.646762557E0,3.912683868E1,-6.973881721E0,7.502994537E0,4.044551222E1
1.649148911E0,4.077639008E1,-6.389733791E0,8.853444099E0,4.221286721E1
1.651535318E0,4.229642868E1,-5.726622581E0,1.019880867E1,4.388391258E1
1.653921724E0,4.367080688E1,-5.027619362E0,1.149392319E1,4.543706197E1
1.656308078E0,4.487738800E1,-4.335794449E0,1.266730404E1,4.683203667E1
1.658694484E0,4.590450668E1,-3.675076485E0,1.368694592E1,4.804229813E1
1.661080891E0,4.673272324E1,-3.083451033E0,1.454417419E1,4.904067796E1
1.663467297E0,4.734319305E1,-2.592922449E0,1.519532108E1,4.978954668E1
1.665853651E0,4.771677017E1,-2.226521492E0,1.558325768E1,5.024624835E1
1.668240057E0,4.784358978E1,-1.980060697E0,1.571007729E1,5.039579598E1
1.670626463E0,4.773352051E1,-1.836192250E0,1.560000706E1,5.025157512E1
1.673012818E0,4.740779877E1,-1.778764486E0,1.528864098E1,4.984381536E1
1.675399224E0,4.688376999E1,-1.778764486E0,1.481934929E1,4.920228658E1
1.677785630E0,4.616532516E1,-1.821835399E0,1.421845150E1,4.833963896E1
1.680172036E0,4.526532364E1,-1.900798440E0,1.353859043E1,4.728483890E1
1.682558391E0,4.419752884E1,-2.023131609E0,1.283958721E1,4.606918294E1
1.684944797E0,4.297898483E1,-2.190629244E0,1.214058399E1,4.471449176E1
1.687331203E0,4.163092804E1,-2.417947292E0,1.149631596E1,4.325674420E1
1.689717557E0,4.017309952E1,-2.702992201E0,1.092173958E1,4.171892241E1
1.692103963E0,3.862643814E1,-3.040380239E0,1.040967560E1,4.011990755E1
1.694490370E0,3.702235031E1,-3.423531055E0,9.949954987E0,3.848865536E1
1.696876724E0,3.537279892E1,-3.835395575E0,9.542876244E0,3.683763903E1
1.699263130E0,3.369692612E1,-4.264009953E0,9.193224907E0,3.518778190E1
1.701649536E0,3.201387405E1,-4.689932346E0,8.884550095E0,3.355322381E1
1.704035943E0,3.034517860E1,-5.106582642E0,8.623434067E0,3.195732570E1
1.706422297E0,2.870998383E1,-5.494519234E0,8.412865639E0,3.041758079E1
1.708808703E0,2.713221550E1,-5.839085579E0,8.245368004E0,2.895234242E1
1.711195109E0,2.563610268E1,-6.133701801E0,8.115856171E0,2.758077554E1
1.713581463E0,2.423540497E1,-6.380162239E0,8.048856735E0,2.632195697E1
1.715967870E0,2.293789673E1,-6.583851337E0,8.051250458E0,2.518564747E1
1.718354276E0,2.174567223E1,-6.744170666E0,8.096714020E0,2.416433066E1
1.720740630E0,2.066830444E1,-6.859025955E0,8.173583031E0,2.326010544E1
1.723127036E0,1.970339966E1,-6.940382004E0,8.266902924E0,2.246629797E1
1.725513443E0,1.884407616E1,-6.985845566E0,8.353044510E0,2.176406665E1
1.727899849E0,1.808016777E1,-7.004988194E0,8.417651176E0,2.113809777E1
1.730286203E0,1.740030670E1,-7.000202656E0,8.451150894E0,2.057171510E1
1.732672609E0,1.679701614E1,-6.988238335E0,8.436793327E0,2.005379535E1
1.735059016E0,1.624876213E1,-6.961917400E0,8.374580383E0,1.956078120E1
1.737445370E0,1.575793362E1,-6.928418159E0,8.276473999E0,1.910014324E1
1.739831776E0,1.531256962E1,-6.880561352E0,8.142476082E0,1.865788920E1
1.742218182E0,1.489861107E1,-6.820741177E0,7.965108395E0,1.821905798E1
1.744604588E0,1.451306725E1,-6.741777897E0,7.764111042E0,1.778657107E1
1.746990943E0,1.414666653E1,-6.641279221E0,7.538887024E0,1.735135675E1
1.749377349E0,1.378535080E1,-6.524031162E0,7.299604416E0,1.690807807E1
1.751763755E0,1.343330669E1,-6.392126560E0,7.055536747E0,1.646492057E1
1.754150109E0,1.308365536E1,-6.246164322E0,6.792026997E0,1.601025412E1
1.756536516E0,1.273430347E1,-6.081059456E0,6.516852379E0,1.554384553E1
1.758922922E0,1.237747288E1,-5.901597977E0,6.224628925E0,1.505910684E1
1.761309328E0,1.201346493E1,-5.707480431E0,5.911169052E0,1.455474466E1
1.763695682E0,1.164497089E1,-5.506483078E0,5.583053589E0,1.403913068E1
1.766082088E0,1.126899815E1,-5.302793980E0,5.240580559E0,1.351198090E1
1.768468495E0,1.088824081E1,-5.092225552E0,4.879264355E0,1.297273178E1
1.770854849E0,1.051256752E1,-4.874478817E0,4.503292084E0,1.243198533E1
1.773241255E0,1.014377308E1,-4.661218643E0,4.117748737E0,1.189869515E1
1.775627661E0,9.794121742E0,-4.457828522E0,3.725325823E0,1.138749790E1
1.778014016E0,9.466305733E0,-4.266402721E0,3.325425386E0,1.090282488E1
1.780400422E0,9.154939651E0,-4.089034557E0,2.930310488E0,1.044604438E1
1.782786828E0,8.855836868E0,-3.926322937E0,2.535494804E0,1.001352048E1
1.785173234E0,8.570791245E0,-3.770789385E0,2.152343988E0,9.607804108E0
1.787559588E0,8.298009872E0,-3.619742393E0,1.781157374E0,9.226701709E0
1.789945995E0,8.036892891E0,-3.468994617E0,1.427019596E0,8.869157566E0
1.792332401E0,7.792825222E0,-3.313461065E0,1.094118118E0,8.538398189E0
1.794718755E0,7.560422421E0,-3.153141975E0,7.899305820E-1,8.229597914E0
1.797105161E0,7.340282440E0,-2.987738132E0,5.219344497E-1,7.942212602E0
1.799491568E0,7.134500027E0,-2.817847729E0,2.799602449E-1,7.675919111E0
1.801877922E0,6.947560310E0,-2.645564556E0,7.178468257E-2,7.434565161E0
1.804264328E0,6.777669907E0,-2.477767944E0,-1.076770201E-1,7.217183501E0
1.806650734E0,6.626922131E0,-2.317448616E0,-2.608176768E-1,7.025289380E0
1.809037141E0,6.495316982E0,-2.166700840E0,-3.975076675E-1,6.858698679E0
1.811423495E0,6.384948254E0,-2.030309916E0,-5.219344497E-1,6.720278129E0
1.813809901E0,6.291627884E0,-1.900798440E0,-6.415755749E-1,6.603728898E0
1.816196307E0,6.217450619E0,-1.778764486E0,-7.492526174E-1,6.510151671E0
1.818582661E0,6.155237198E0,-1.656730533E0,-8.452646136E-1,6.430099011E0
1.820969068E0,6.095416546E0,-1.541875124E0,-9.433703423E-1,6.357784942E0
1.823355474E0,6.037988663E0,-1.438983679E0,-1.048654556E0,6.295050238E0
1.825741828E0,5.987739563E0,-1.338186026E0,-1.153938770E0,6.243023434E0
1.828128234E0,5.937490463E0,-1.244866014E0,-1.247258782E0,6.193475508E0
1.830514641E0,5.882156372E0,-1.149153113E0,-1.335793257E0,6.140412045E0
1.832901047E0,5.822335720E0,-1.051047325E0,-1.415055513E0,6.083311255E0
1.835287401E0,5.757729530E0,-9.481559992E-1,-1.486840129E0,6.021722570E0
1.837673807E0,5.685945034E0,-8.428717852E-1,-1.541875124E0,5.951284120E0
1.840060213E0,5.611767292E0,-7.396813035E-1,-1.584945917E0,5.878019576E0
1.842446568E0,5.535196781E0,-6.391827464E-1,-1.613659739E0,5.800935765E0
1.844832974E0,5.456233978E0,-5.386841893E-1,-1.628016710E0,5.719362577E0
1.847219380E0,5.382056236E0,-4.477569461E-1,-1.630409479E0,5.641387301E0
1.849605786E0,5.309972763E0,-3.592225015E-1,-1.620838284E0,5.563449316E0
1.851992141E0,5.235795021E0,-2.799602449E-1,-1.608874083E0,5.484560425E0
1.854378547E0,5.164010525E0,-2.081755698E-1,-1.596910000E0,5.409294161E0
1.856764953E0,5.087440014E0,-1.411765367E-1,-1.587338686E0,5.331193189E0
1.859151307E0,5.003691196E0,-8.135596663E-2,-1.575374603E0,5.246460666E0
1.861537713E0,4.915156841E0,-2.392822690E-2,-1.556231976E0,5.155695617E0
1.863924120E0,4.819443703E0,2.871387079E-2,-1.532303810E0,5.057253905E0
1.866310474E0,4.721039295E0,7.657032460E-2,-1.505982757E0,4.956012420E0
1.868696880E0,4.618147850E0,1.148554832E-1,-1.470090389E0,4.847849740E0
1.871083286E0,4.510470867E0,1.459621787E-1,-1.424626827E0,4.732358186E0
1.873469641E0,4.393222332E0,1.722832322E-1,-1.374078393E0,4.606319073E0
1.875856047E0,4.268795490E0,1.890329868E-1,-1.319043517E0,4.471937411E0
1.878242453E0,4.136891365E0,2.057827413E-1,-1.259222865E0,4.329186867E0
1.880628807E0,3.995714664E0,2.105683982E-1,-1.201795220E0,4.177844717E0
1.883015213E0,3.842574120E0,2.153540403E-1,-1.144367456E0,4.015137619E0
1.885401620E0,3.682255030E0,2.153540403E-1,-1.098903775E0,3.848762005E0
1.887788026E0,3.514458179E0,2.081755698E-1,-1.060618639E0,3.676909743E0
1.890174380E0,3.342175007E0,1.938186288E-1,-1.024726272E0,3.501108877E0
1.892560786E0,3.169891834E0,1.746760458E-1,-9.936196208E-1,3.326560673E0
1.894947193E0,2.987738132E0,1.483550072E-1,-9.744769931E-1,3.146139502E0
1.897333599E0,2.801098108E0,1.220339537E-1,-9.601200819E-1,2.963591313E0
1.899719953E0,2.612065077E0,9.571290761E-2,-9.457631707E-1,2.779660573E0
1.902106359E0,2.413161755E0,7.178468257E-2,-9.218349457E-1,2.584237288E0
1.904492766E0,2.214557409E0,4.785645381E-2,-9.002995491E-1,2.391044549E0
1.906879120E0,2.020738840E0,2.153540403E-2,-8.787640929E-1,2.203650509E0
1.909265526E0,1.829013824E0,-4.785645287E-3,-8.452646136E-1,2.014891248E0
1.911651932E0,1.639980793E0,-2.871387079E-2,-7.995018363E-1,1.824709477E0
1.914038286E0,1.458126307E0,-5.503492057E-2,-7.540382147E-1,1.642478249E0
1.916424693E0,1.285543919E0,-8.614161611E-2,-7.133602500E-1,1.472727535E0
1.918811099E0,1.125224829E0,-1.220339537E-1,-6.607181430E-1,1.310561584E0
1.921197505E0,9.768698215E-1,-1.674975902E-1,-6.032904387E-1,1.160297136E0
1.923583859E0,8.330013752E-1,-2.153540403E-1,-5.482555032E-1,1.020221912E0
1.925970266E0,6.942176819E-1,-2.656033039E-1,-4.956133962E-1,8.933733505E-1
1.928356672E0,5.602195859E-1,-3.113660514E-1,-4.357928336E-1,7.750549633E-1
1.930743026E0,4.310071766E-1,-3.568296731E-1,-3.664009571E-1,6.688379948E-1
1.933129432E0,3.065803945E-1,-3.975076675E-1,-2.970091105E-1,5.832823465E-1
1.935515838E0,1.842473447E-1,-4.334000051E-1,-2.297109663E-1,5.239749770E-1
1.937902193E0,6.460621208E-2,-4.645066857E-1,-1.627119333E-1,4.964026561E-1
1.940288599E0,-4.785645381E-2,-4.956133962E-1,-9.332008660E-2,5.065881139E-1
1.942675005E0,-1.531406492E-1,-5.219344497E-1,-1.435693540E-2,5.441265935E-1
1.945061411E0,-2.464607358E-1,-5.410770178E-1,5.982056633E-2,5.975665098E-1
1.947447766E0,-3.329014480E-1,-5.602195859E-1,1.268195957E-1,6.638919855E-1
1.949834172E0,-4.118646085E-1,-5.793621540E-1,1.818545163E-1,7.337329394E-1
1.952220578E0,-4.788636267E-1,-5.961119533E-1,2.321037948E-1,7.990819766E-1
1.954606932E0,-5.386841893E-1,-6.104688644E-1,2.799602449E-1,8.609475181E-1
1.956993338E0,-5.865406394E-1,-6.248258352E-1,3.137588799E-1,9.126236249E-1
1.959379745E0,-6.224330068E-1,-6.367899179E-1,3.305086195E-1,9.498211385E-1
1.961766099E0,-6.535396576E-1,-6.463612318E-1,3.376871049E-1,9.792494610E-1
1.964152505E0,-6.750751138E-1,-6.583253145E-1,3.400799036E-1,1.002383644E0
1.966538911E0,-6.870391965E-1,-6.702894568E-1,3.281157911E-1,1.014381972E0
1.968925318E0,-6.918248534E-1,-6.798607111E-1,2.994019389E-1,1.015122522E0
1.971311672E0,-6.942176819E-1,-6.918248534E-1,2.608176768E-1,1.014192131E0
1.973698078E0,-6.990033388E-1,-7.061817646E-1,2.177468538E-1,1.017207965E0
1.976084484E0,-6.990033388E-1,-7.181459069E-1,1.794617027E-1,1.018108891E0
1.978470838E0,-6.990033388E-1,-7.277171612E-1,1.411765367E-1,1.018876219E0
1.980857245E0,-6.918248534E-1,-7.348956466E-1,9.332008660E-2,1.013608345E0
1.983243651E0,-6.846463680E-1,-7.396813035E-1,3.589234129E-2,1.008542186E0
1.985630005E0,-6.798607111E-1,-7.396813035E-1,-1.435693540E-2,1.004761235E0
1.988016411E0,-6.750751138E-1,-7.420741320E-1,-5.503492057E-2,1.004703573E0
1.990402818E0,-6.655037999E-1,-7.444669604E-1,-1.028913707E-1,1.003849091E0
1.992789172E0,-6.511468887E-1,-7.468597889E-1,-1.459621787E-1,1.001547189E0
1.995175578E0,-6.367899179E-1,-7.492526174E-1,-1.914258152E-1,1.001760813E0
1.997561984E0,-6.176473498E-1,-7.492526174E-1,-2.249253243E-1,9.967242020E-1
1.999948391E0,-6.008976102E-1,-7.444669604E-1,-2.440679073E-1,9.873591730E-1
2.002334745E0,-5.817549825E-1,-7.372884750E-1,-2.584248483E-1,9.740721520E-1
2.004721151E0,-5.578267574E-1,-7.301099896E-1,-2.727817893E-1,9.584577157E-1
2.007107557E0,-5.338985324E-1,-7.277171612E-1,-2.826521695E-1,9.457865290E-1
2.009493911E0,-5.099703074E-1,-7.181459069E-1,-2.775674164E-1,9.234971189E-1
2.011880318E0,-4.812564552E-1,-7.061817646E-1,-2.679961324E-1,8.956128557E-1
2.014266724E0,-4.477569461E-1,-6.918248534E-1,-2.632105052E-1,8.650940299E-1
2.016653130E0,-4.118646085E-1,-6.702894568E-1,-2.536391914E-1,8.265913447E-1
2.019039484E0,-3.687937856E-1,-6.487540603E-1,-2.416750938E-1,7.844090374E-1
2.021425891E0,-3.209373355E-1,-6.224330068E-1,-2.201396823E-1,7.340879382E-1
2.023812297E0,-2.775674164E-1,-5.985047817E-1,-1.986042857E-1,6.889813544E-1
2.026198651E0,-2.321037948E-1,-5.721837282E-1,-1.794617027E-1,6.430185792E-1
2.028585057E0,-1.890329868E-1,-5.434698462E-1,-1.603191197E-1,5.973233329E-1
2.030971463E0,-1.483550072E-1,-5.147559643E-1,-1.459621787E-1,5.552367680E-1
2.033357818E0,-1.076770201E-1,-4.836492836E-1,-1.268195957E-1,5.114627847E-1
2.035744224E0,-7.178468257E-2,-4.429712892E-1,-1.220339537E-1,4.650471906E-1
2.038130630E0,-3.349951655E-2,-4.022932947E-1,-1.220339537E-1,4.217278724E-1
2.040517036E0,-4.785645287E-3,-3.544368446E-1,-1.316052526E-1,3.781115202E-1
2.042903391E0,2.153540403E-2,-2.994019389E-1,-1.411765367E-1,3.317169112E-1
2.045289797E0,4.785645381E-2,-2.392822653E-1,-1.435693651E-1,2.831225976E-1
2.047676203E0,7.178468257E-2,-1.818545163E-1,-1.483550072E-1,2.454247622E-1
2.050062557E0,9.332008660E-2,-1.148554832E-1,-1.531406492E-1,2.129612148E-1
2.052448963E0,1.148554832E-1,-4.785645381E-2,-1.770688742E-1,2.164148988E-1
2.054835370E0,1.268195957E-1,1.674975827E-2,-1.962114573E-1,2.342278809E-1
2.057221724E0,1.387837082E-1,8.135596663E-2,-2.177468538E-1,2.707275445E-1
2.059608130E0,1.435693651E-1,1.459621787E-1,-2.512463629E-1,3.241016123E-1
2.061994536E0,1.459621787E-1,2.033899277E-1,-2.994019389E-1,3.902741874E-1
2.064380943E0,1.363908947E-1,2.560320199E-1,-3.640081584E-1,4.654640811E-1
2.066767297E0,1.172483116E-1,3.017947674E-1,-4.262215197E-1,5.352495045E-1
2.069153703E0,8.853443712E-2,3.352942765E-1,-5.027918816E-1,6.107866031E-1
2.071540109E0,5.503492057E-2,3.616153300E-1,-5.913262963E-1,6.953137983E-1
2.073926463E0,1.914258115E-2,3.711866140E-1,-6.870391965E-1,7.811330222E-1
2.076312870E0,-1.914258115E-2,3.664009571E-1,-7.875377536E-1,8.688105738E-1
2.078699276E0,-5.503492057E-2,3.448655605E-1,-8.859425783E-1,9.522895302E-1
2.081085630E0,-9.332008660E-2,3.065803945E-1,-9.984052777E-1,1.048576786E0
2.083472036E0,-1.387837082E-1,2.584248483E-1,-1.118046403E0,1.155885842E0
2.085858443E0,-1.914258152E-1,1.986042857E-1,-1.252044439E0,1.282069726E0
2.088244797E0,-2.440679073E-1,1.316052526E-1,-1.376471281E0,1.404123311E0
2.090631203E0,-2.946162820E-1,5.742774159E-2,-1.503589988E0,1.533257823E0
2.093017609E0,-3.496512175E-1,-2.871387079E-2,-1.635195136E0,1.672406528E0
2.095404016E0,-4.118646085E-1,-1.244267747E-1,-1.766800404E0,1.818432881E0
2.097790370E0,-4.812564552E-1,-2.321037948E-1,-1.900798440E0,1.974465664E0
2.100176776E0,-5.530411601E-1,-3.520440459E-1,-2.015953064E0,2.119871763E0
2.102563182E0,-6.296114326E-1,-4.788636267E-1,-2.116451740E0,2.259444378E0
2.104949536E0,-7.085745931E-1,-6.152545214E-1,-2.214557409E0,2.405177873E0
2.107335943E0,-7.851449251E-1,-7.588238716E-1,-2.310270309E0,2.555311160E0
2.109722349E0,-8.596215248E-1,-9.002995491E-1,-2.398804665E0,2.702545515E0
2.112108755E0,-9.337990284E-1,-1.043868899E0,-2.496910334E0,2.862901346E0
2.114495109E0,-9.984052777E-1,-1.185045362E0,-2.612065077E0,3.037108752E0
2.116881516E0,-1.051047325E0,-1.333400369E0,-2.734098911E0,3.218377523E0
2.119267922E0,-1.091725349E0,-1.486840129E0,-2.865704298E0,3.408052073E0
2.121654276E0,-1.108475089E0,-1.642373681E0,-3.002095222E0,3.597038234E0
2.124040682E0,-1.101296663E0,-1.802692771E0,-3.138785124E0,3.783454456E0
2.126427088E0,-1.070189953E0,-1.970489502E0,-3.270390272E0,3.965297964E0
2.128813495E0,-1.010369420E0,-2.145165443E0,-3.390031576E0,4.137015256E0
2.131199849E0,-9.242277741E-1,-2.322234392E0,-3.502494097E0,4.302840277E0
2.133586255E0,-8.018946648E-1,-2.506481647E0,-3.607778311E0,4.465596225E0
2.135972661E0,-6.391827464E-1,-2.700599432E0,-3.696611881E0,4.622416173E0
2.138359016E0,-4.214358926E-1,-2.908775091E0,-3.780360699E0,4.788497442E0
2.140745422E0,-1.339980662E-1,-3.141177893E0,-3.856930971E0,4.976029597E0
2.143131828E0,2.344966233E-1,-3.392424345E0,-3.919144392E0,5.188759425E0
2.145518182E0,6.894320250E-1,-3.665505171E0,-3.967000723E0,5.445028871E0
2.147904588E0,1.218544960E0,-3.950251102E0,-4.000500202E0,5.752680893E0
2.150290995E0,1.807478428E0,-4.247260094E0,-4.014857292E0,6.117620097E0
2.152677349E0,2.444268227E0,-4.543970108E0,-4.002892971E0,6.530334114E0
2.155063755E0,3.124428272E0,-4.836193562E0,-3.967000723E0,6.991989340E0
2.157450161E0,3.864109516E0,-5.128118038E0,-3.900001764E0,7.512586154E0
2.159836568E0,4.680361271E0,-5.420341492E0,-3.806681633E0,8.110284124E0
2.162222922E0,5.585446358E0,-5.717051506E0,-3.684647799E0,8.801052115E0
2.164609328E0,6.607779503E0,-6.018846035E0,-3.545564890E0,9.615627278E0
2.166995734E0,7.759325504E0,-6.322734833E0,-3.378067255E0,1.056387459E1
2.169382088E0,9.030512810E0,-6.617351055E0,-3.165106058E0,1.163431962E1
2.171768495E0,1.040010452E1,-6.897311211E0,-2.915953398E0,1.281553199E1
2.174154901E0,1.184596729E1,-7.151249409E0,-2.624029160E0,1.408377926E1
2.176541255E0,1.334477234E1,-7.380960464E0,-2.293520451E0,1.542147082E1
2.178927661E0,1.487707615E1,-7.587042332E0,-1.936690807E0,1.681194151E1
2.181314068E0,1.643300819E1,-7.766504288E0,-1.527518153E0,1.823994679E1
2.183700474E0,1.800120544E1,-7.914859295E0,-1.094118118E0,1.969480870E1
2.186086828E0,1.956700897E1,-8.032107353E0,-6.128616929E-1,2.116029745E1
2.188473234E0,2.112323952E1,-8.115856171E0,-1.196411327E-1,2.262902303E1
2.190859641E0,2.266242409E1,-8.171190262E0,4.238287210E-1,2.409426169E1
2.193245995E0,2.416840553E1,-8.178368568E0,1.010369420E0,2.553465067E1
2.195632401E0,2.561217499E1,-8.125427246E0,1.639980793E0,2.692017111E1
2.198018807E0,2.698625374E1,-8.010572433E0,2.348555326E0,2.824788264E1
2.200405213E0,2.829094124E1,-7.833503246E0,3.088535786E0,2.951745556E1
2.202791568E0,2.954806900E1,-7.610970497E0,3.892823458E0,3.075986554E1
2.205177974E0,3.076661491E1,-7.359425068E0,4.721039295E0,3.198490179E1
2.207564380E0,3.194687462E1,-7.091429234E0,5.547161102E0,3.319129649E1
2.209950734E0,3.310320663E1,-6.808776855E0,6.361020088E0,3.438959593E1
2.212337141E0,3.422364426E1,-6.516852379E0,7.117750168E0,3.555825584E1
2.214723547E0,3.529622650E1,-6.207879066E0,7.857431412E0,3.668924360E1
2.217109901E0,3.629463196E1,-5.874977589E0,8.515756607E0,3.774034686E1
2.219496307E0,3.720420456E1,-5.513661385E0,9.114261627E0,3.869913518E1
2.221882713E0,3.800400543E1,-5.113760948E0,9.629017830E0,3.953698224E1
2.224269120E0,3.867908096E1,-4.680361271E0,1.003848934E1,4.023367189E1
2.226655474E0,3.923212051E1,-4.223331928E0,1.035912704E1,4.079592291E1
2.229041880E0,3.966552353E1,-3.751646757E0,1.054845905E1,4.121527142E1
2.231428286E0,3.999333954E1,-3.294318676E0,1.063460159E1,4.151402768E1
2.233814641E0,4.023052597E1,-2.870489836E0,1.058913708E1,4.169969731E1
2.236201047E0,4.038127518E1,-2.504088879E0,1.045035362E1,4.178669330E1
2.238587453E0,4.046023941E1,-2.207378864E0,1.023470020E1,4.179297289E1
2.240973807E0,4.047220230E1,-1.980060697E0,9.947562218E0,4.172377971E1
2.243360213E0,4.041477585E1,-1.824228168E0,9.638588905E0,4.158827132E1
2.245746620E0,4.027838516E1,-1.733300924E0,9.277272224E0,4.136931741E1
2.248133026E0,4.005076599E1,-1.704586983E0,8.939585686E0,4.107171369E1
2.250519380E0,3.970619965E1,-1.706979871E0,8.599505424E0,4.066260646E1
2.252905786E0,3.922494507E1,-1.728515267E0,8.300402641E0,4.013079571E1
2.255292193E0,3.859293747E1,-1.747657895E0,8.024929047E0,3.945717447E1
2.257678599E0,3.780510330E1,-1.759621978E0,7.785646915E0,3.863856109E1
2.260064953E0,3.688117218E1,-1.769193292E0,7.589435101E0,3.769549617E1
2.262451359E0,3.584209061E1,-1.785943031E0,7.402495861E0,3.664207959E1
2.264837766E0,3.471447372E1,-1.824228168E0,7.246962547E0,3.550973050E1
2.267224120E0,3.353660583E1,-1.898405671E0,7.069893837E0,3.432624759E1
2.269610526E0,3.233481216E1,-2.023131609E0,6.918846607E0,3.312859154E1
2.271996932E0,3.112553787E1,-2.209771633E0,6.758527756E0,3.192741605E1
2.274383286E0,2.992852783E1,-2.458625317E0,6.617351055E0,3.074981222E1
2.276769693E0,2.875783920E1,-2.750848770E0,6.451947212E0,2.960081261E1
2.279156099E0,2.761825752E1,-3.088535786E0,6.305984974E0,2.849688840E1
2.281542505E0,2.651456833E1,-3.452244759E0,6.155237198E0,2.743769802E1
2.283928859E0,2.544916344E1,-3.828217030E0,6.009274960E0,2.642776099E1
2.286315266E0,2.441995239E1,-4.206283092E0,5.860620975E0,2.546318461E1
2.288701672E0,2.342633247E1,-4.572684288E0,5.724229813E0,2.454525008E1
2.291088026E0,2.246621132E1,-4.910371304E0,5.599802971E0,2.366854855E1
2.293474432E0,2.153959084E1,-5.211866856E0,5.492125988E0,2.283157851E1
2.295860838E0,2.064676857E1,-5.480162144E0,5.389235020E0,2.203100278E1
2.298247193E0,1.978714752E1,-5.714658737E0,5.312365532E0,2.126992617E1
2.300633599E0,1.896371841E1,-5.901597977E0,5.238187790E0,2.053996315E1
2.303020005E0,1.817827415E1,-6.049952984E0,5.197509766E0,1.985108788E1
2.305406411E0,1.743380737E1,-6.162415504E0,5.152046204E0,1.919522296E1
2.307792766E0,1.673480415E1,-6.236593246E0,5.140082359E0,1.858411182E1
2.310179172E0,1.607887077E1,-6.286842346E0,5.128118038E0,1.800977697E1
2.312565578E0,1.547318745E1,-6.308377743E0,5.113760948E0,1.747471632E1
2.314951932E0,1.492014694E1,-6.310770512E0,5.108975410E0,1.698641336E1
2.317338338E0,1.441974735E1,-6.291627884E0,5.094618320E0,1.653689303E1
2.319724745E0,1.396241951E1,-6.248557091E0,5.082654476E0,1.611915013E1
2.322111151E0,1.354816151E1,-6.193522453E0,5.061119080E0,1.573300121E1
2.324497505E0,1.318684578E1,-6.131309032E0,5.030012131E0,1.538788075E1
2.326883911E0,1.287787247E1,-6.071488380E0,4.991727352E0,1.508707766E1
2.329270318E0,1.260718441E1,-6.006882191E0,4.915156841E0,1.480481338E1
2.331656672E0,1.236311626E1,-5.944668770E0,4.829015255E0,1.454321556E1
2.334043078E0,1.213579845E1,-5.877370834E0,4.723432064E0,1.428747362E1
2.336429484E0,1.192014503E1,-5.803193092E0,4.587040901E0,1.402882219E1
2.338815838E0,1.171436214E1,-5.714658737E0,4.460221291E0,1.377596381E1
2.341202245E0,1.151815128E1,-5.606981754E0,4.309473515E0,1.351582833E1
2.343588651E0,1.133599758E1,-5.480162144E0,4.141676903E0,1.325482953E1
2.345975057E0,1.117328548E1,-5.348556995E0,3.971786499E0,1.300863015E1
2.348361411E0,1.102971554E1,-5.209474087E0,3.777967930E0,1.276974106E1
2.350747818E0,1.090259743E1,-5.061119080E0,3.583850145E0,1.254294777E1
2.353134224E0,1.079013443E1,-4.910371304E0,3.373281717E0,1.232549297E1
2.355520578E0,1.068485069E1,-4.749752998E0,3.167499065E0,1.211442273E1
2.357906984E0,1.058435154E1,-4.579862595E0,2.975774050E0,1.191045214E1
2.360293391E0,1.048385334E1,-4.398007870E0,2.772384167E0,1.170212665E1
2.362679745E0,1.038574791E1,-4.203890324E0,2.588136673E0,1.149934367E1
2.365066151E0,1.029212856E1,-4.000500202E0,2.401197433E0,1.130033899E1
2.367452557E0,1.020359421E1,-3.792324781E0,2.200200319E0,1.110567168E1
2.369838963E0,1.011984539E1,-3.583850145E0,2.020738840E0,1.092422254E1
2.372225318E0,1.003848934E1,-3.373281717E0,1.831406593E0,1.074729491E1
2.374611724E0,9.957133293E0,-3.174677372E0,1.644766450E0,1.057961892E1
2.376998130E0,9.875777245E0,-2.978166819E0,1.460519075E0,1.041794460E1
2.379384484E0,9.786943436E0,-2.796312332E0,1.268794179E0,1.025736141E1
2.381770891E0,9.696016312E0,-2.621636391E0,1.089332461E0,1.010308640E1
2.384157297E0,9.593125343E0,-2.456232548E0,9.098708034E-1,9.944294699E0
2.386543651E0,9.480662346E0,-2.295913219E0,7.277171612E-1,9.781807006E0
2.388930057E0,9.363413811E0,-2.145165443E0,5.721837282E-1,9.623026924E0
2.391316463E0,9.229117393E0,-1.999203324E0,4.118646085E-1,9.452145484E0
2.393702870E0,9.090332985E0,-1.860120535E0,2.656033039E-1,9.282496824E0
2.396089224E0,8.941978455E0,-1.728515267E0,1.435693651E-1,9.108641824E0
2.398475630E0,8.786444664E0,-1.604088426E0,2.871387079E-2,8.931715065E0
2.400862036E0,8.618648529E0,-1.486840129E0,-6.699903309E-2,8.746215462E0
2.403248391E0,8.441578865E0,-1.374078393E0,-1.387837082E-1,8.553806526E0
2.405634797E0,8.254939079E0,-1.266401410E0,-1.890329868E-1,8.353653405E0
2.408021203E0,8.065607071E0,-1.163509965E0,-2.321037948E-1,8.152401182E0
2.410407557E0,7.871788502E0,-1.063011408E0,-2.536391914E-1,7.947287607E0
2.412793963E0,7.680362701E0,-9.625129104E-1,-2.608176768E-1,7.744832354E0
2.415180370E0,7.488637447E0,-8.644071817E-1,-2.584248483E-1,7.542789537E0
2.417566776E0,7.299604416E0,-7.803592682E-1,-2.368894368E-1,7.345018844E0
2.419953130E0,7.110571384E0,-7.037889361E-1,-2.081755698E-1,7.148348155E0
2.422339536E0,6.926024914E0,-6.343970895E-1,-1.746760458E-1,6.957211546E0
2.424725943E0,6.744170666E0,-5.673980713E-1,-1.387837082E-1,6.769419433E0
2.427112297E0,6.569494724E0,-5.051847100E-1,-9.332008660E-2,6.589550907E0
2.429498703E0,6.404090881E0,-4.453641176E-1,-3.589234129E-2,6.419658673E0
2.431885109E0,6.253343105E0,-3.951148391E-1,3.110669367E-2,6.265890468E0
2.434271463E0,6.119344711E0,-3.568296731E-1,1.100698411E-1,6.130727729E0
2.436657870E0,6.011667728E0,-3.400799036E-1,1.962114573E-1,6.024475260E0
2.439044276E0,5.927918911E0,-3.448655605E-1,2.946162820E-1,5.945246305E0
2.441430630E0,5.860620975E0,-3.687937856E-1,4.022932947E-1,5.885977147E0
2.443817036E0,5.803193092E0,-4.022932947E-1,5.123631358E-1,5.839640909E0
2.446203443E0,5.750551224E0,-4.405784607E-1,6.224330068E-1,5.800894035E0
2.448589849E0,5.700301647E0,-4.860421121E-1,7.396813035E-1,5.768605051E0
2.450976203E0,5.645267010E0,-5.315057039E-1,8.548358679E-1,5.734307481E0
2.453362609E0,5.578267574E0,-5.673980713E-1,9.601200819E-1,5.688658917E0
2.455749016E0,5.501697540E0,-5.937191248E-1,1.063011408E0,5.634817786E0
2.458135370E0,5.410770416E0,-6.152545214E-1,1.153938770E0,5.566556324E0
2.460521776E0,5.305186749E0,-6.224330068E-1,1.240080357E0,5.483632790E0
2.462908182E0,5.180759907E0,-6.224330068E-1,1.321436286E0,5.382740001E0
2.465294588E0,5.044369221E0,-6.152545214E-1,1.388435364E0,5.268012122E0
2.467680943E0,4.893621445E0,-6.008976102E-1,1.453340650E0,5.140117491E0
2.470067349E0,4.733003139E0,-5.793621540E-1,1.508375525E0,5.001217447E0
2.472453755E0,4.565505505E0,-5.554339290E-1,1.561017632E0,4.856863536E0
2.474840109E0,4.400400639E0,-5.291129351E-1,1.594517231E0,4.710198667E0
2.477226516E0,4.228117466E0,-5.027918816E-1,1.620838284E0,4.555973412E0
2.479612922E0,4.055535316E0,-4.836492836E-1,1.635195136E0,4.399448427E0
2.481999276E0,3.883252144E0,-4.716851711E-1,1.639980793E0,4.241659005E0
2.484385682E0,3.708575964E0,-4.597210586E-1,1.632802367E0,4.078102831E0
2.486772088E0,3.533600807E0,-4.453641176E-1,1.604088426E0,3.906121291E0
2.489158495E0,3.354139090E0,-4.238287210E-1,1.565803289E0,3.725804579E0
2.491544849E0,3.172284603E0,-3.975076675E-1,1.520339727E0,3.540174408E0
2.493931255E0,2.999702215E0,-3.664009571E-1,1.472483277E0,3.361646924E0
2.496317661E0,2.834597588E0,-3.305086195E-1,1.422233939E0,3.188562185E0
2.498704016E0,2.676671267E0,-2.970091105E-1,1.366899967E0,3.020132282E0
2.501090422E0,2.533101797E0,-2.679961324E-1,1.311864972E0,2.865207906E0
2.503476828E0,2.403590441E0,-2.416750938E-1,1.259222865E0,2.724205587E0
2.505863182E0,2.283949137E0,-2.249253243E-1,1.206580877E0,2.592846404E0
2.508249588E0,2.173879385E0,-2.033899277E-1,1.153938770E0,2.469553346E0
2.510635995E0,2.066202402E0,-1.698904037E-1,1.110867858E0,2.352037949E0
2.513022349E0,1.960619092E0,-1.268195957E-1,1.077368379E0,2.240721548E0
2.515408755E0,1.857727647E0,-6.699903309E-2,1.048654556E0,2.134318921E0
2.517795161E0,1.766800404E0,0.000000000E0,1.029511929E0,2.044866371E0
2.520181568E0,1.690230131E0,7.417750359E-2,1.029511929E0,1.980473431E0
2.522567922E0,1.635195136E0,1.459621787E-1,1.039083242E0,1.942900429E0
2.524954328E0,1.616052628E0,2.129612118E-1,1.055832982E0,1.942102433E0
2.527340734E0,1.630409479E0,2.799602449E-1,1.074975610E0,1.972862228E0
2.529727088E0,1.675873160E0,3.448655605E-1,1.113260746E0,2.041282095E0
2.532113495E0,1.754836321E0,4.094717801E-1,1.149153113E0,2.137210923E0
2.534499901E0,1.855334878E0,4.668995142E-1,1.185045362E0,2.250465546E0
2.536886307E0,1.975275040E0,5.195416212E-1,1.237687469E0,2.388201258E0
2.539272661E0,2.102094650E0,5.673980713E-1,1.259222865E0,2.515230549E0
2.541659068E0,2.233700037E0,6.176473498E-1,1.287936807E0,2.651355375E0
2.544045422E0,2.362912416E0,6.678966284E-1,1.314257860E0,2.785087919E0
2.546431828E0,2.489732027E0,7.157530785E-1,1.331007600E0,2.912498801E0
2.548818234E0,2.616850615E0,7.660023570E-1,1.345364571E0,3.040505316E0
2.551204641E0,2.738884687E0,8.138588071E-1,1.352542996E0,3.161206739E0
2.553590995E0,2.863311291E0,8.572286963E-1,1.357328653E0,3.282641263E0
2.555977401E0,2.978166819E0,8.979067206E-1,1.354935765E0,3.392869730E0
2.558363807E0,3.085843801E0,9.361918569E-1,1.342971683E0,3.493201984E0
2.560750213E0,3.179463148E0,9.672985673E-1,1.345364571E0,3.585339350E0
2.563136568E0,3.256033421E0,9.960124493E-1,1.326221943E0,3.654129045E0
2.565522974E0,3.320639610E0,1.022333503E0,1.323829174E0,3.718109317E0
2.567909380E0,3.370888948E0,1.051047325E0,1.321436286E0,3.770117590E0
2.570295734E0,3.406781197E0,1.077368379E0,1.307079315E0,3.804646775E0
2.572682141E0,3.430709362E0,1.098903775E0,1.304686546E0,3.831391812E0
2.575068547E0,3.449851990E0,1.118046403E0,1.297508121E0,3.851627427E0
2.577454901E0,3.457030535E0,1.137188911E0,1.292722464E0,3.862044809E0
2.579841307E0,3.459423304E0,1.161117196E0,1.285543919E0,3.868905001E0
2.582227713E0,3.454637766E0,1.189831018E0,1.278365493E0,3.870973815E0
2.584614120E0,3.445066452E0,1.211366415E0,1.285543919E0,3.871500306E0
2.587000474E0,3.430709362E0,1.232901812E0,1.278365493E0,3.863163462E0
2.589386880E0,3.413959742E0,1.254437327E0,1.283151150E0,3.856839509E0
2.591773286E0,3.392424345E0,1.273579836E0,1.295115232E0,3.848099791E0
2.594159641E0,3.366103172E0,1.295115232E0,1.292722464E0,3.831332066E0
2.596546047E0,3.339782238E0,1.309472203E0,1.304686546E0,3.817207072E0
2.598932453E0,3.315854073E0,1.316650629E0,1.304686546E0,3.798771393E0
2.601318807E0,3.291925669E0,1.314257860E0,1.304686546E0,3.777069673E0
2.603705213E0,3.265604734E0,1.309472203E0,1.307079315E0,3.753311614E0
2.606091620E0,3.229712248E0,1.297508121E0,1.297508121E0,3.714578825E0
2.608477974E0,3.191427231E0,1.280758262E0,1.295115232E0,3.674625554E0
2.610864380E0,3.143570662E0,1.268794179E0,1.271187067E0,3.620468441E0
2.613250786E0,3.090928555E0,1.259222865E0,1.249651670E0,3.563861789E0
2.615637193E0,3.023630619E0,1.244866014E0,1.232901812E0,3.494578714E0
2.618023547E0,2.951845884E0,1.230509043E0,1.206580877E0,3.418096553E0
2.620409953E0,2.875275612E0,1.216152072E0,1.175474167E0,3.335861991E0
2.622796359E0,2.784348249E0,1.197009563E0,1.149153113E0,3.241292944E0
2.625182713E0,2.691028118E0,1.177866936E0,1.110867858E0,3.140546170E0
2.627569120E0,2.597707987E0,1.153938770E0,1.072582722E0,3.038107168E0
2.629955526E0,2.504088879E0,1.125224829E0,1.034297585E0,2.933660431E0
2.632341880E0,2.405983210E0,1.096511006E0,9.936196208E-1,2.824601130E0
2.634728286E0,2.307877541E0,1.067797065E0,9.433703423E-1,2.712275229E0
2.637114693E0,2.209771633E0,1.041476011E0,9.002995491E-1,2.603517281E0
2.639501099E0,2.106880426E0,1.012762189E0,8.476574421E-1,2.486595166E0
2.641887453E0,1.999203324E0,9.840483069E-1,7.851449251E-1,2.362544720E0
2.644273859E0,1.893620014E0,9.577272534E-1,7.301099896E-1,2.244125408E0
2.646660266E0,1.781157374E0,9.385846853E-1,6.774678826E-1,2.124247052E0
2.649046620E0,1.666301847E0,9.194421172E-1,6.224330068E-1,2.002338258E0
2.651433026E0,1.544267893E0,9.026923180E-1,5.673980713E-1,1.876581284E0
2.653819432E0,1.424626827E0,8.835497499E-1,5.195416212E-1,1.755034260E0
2.656205786E0,1.299900889E0,8.668000102E-1,4.716851711E-1,1.632045183E0
2.658592193E0,1.175474167E0,8.524430394E-1,4.214358926E-1,1.511954650E0
2.660978599E0,1.053440213E0,8.428717852E-1,3.783650696E-1,1.401188515E0
2.663364953E0,9.337990284E-1,8.282157183E-1,3.352942765E-1,1.292417948E0
2.665751359E0,8.138588071E-1,8.138588071E-1,2.898306549E-1,1.186901059E0
2.668137766E0,7.013961077E-1,7.971090674E-1,2.536391914E-1,1.091637396E0
2.670524172E0,5.865406394E-1,7.755736113E-1,2.201396823E-1,9.969984092E-1
2.672910526E0,4.740779996E-1,7.564310431E-1,1.722832322E-1,9.091861112E-1
2.675296932E0,3.687937856E-1,7.325028181E-1,1.363908947E-1,8.313673742E-1
2.677683338E0,2.632105052E-1,7.013961077E-1,1.052841991E-1,7.565190232E-1
2.680069693E0,1.603191197E-1,6.655037999E-1,6.221338734E-2,6.873631016E-1
2.682456099E0,6.460621208E-2,6.272186637E-1,2.632104978E-2,6.310863747E-1
2.684842505E0,-2.392822690E-2,5.841478109E-1,-1.196411345E-2,5.847600919E-1
2.687228859E0,-1.004985496E-1,5.410770178E-1,-5.982056633E-2,5.535727575E-1
2.689615266E0,-1.674975902E-1,4.932205677E-1,-1.076770201E-1,5.318987796E-1
2.692001672E0,-2.273181528E-1,4.453641176E-1,-1.579262912E-1,5.243695770E-1
2.694388078E0,-2.799602449E-1,3.975076675E-1,-2.225325108E-1,5.347062771E-1
2.696774432E0,-3.305086195E-1,3.472583890E-1,-2.656033039E-1,5.480597152E-1
2.699160838E0,-3.855435550E-1,2.994019389E-1,-3.017947674E-1,5.739036813E-1
2.701547245E0,-4.501497746E-1,2.584248483E-1,-3.544368446E-1,6.285250182E-1
2.703933599E0,-5.171487927E-1,2.129612118E-1,-4.046861231E-1,6.903377505E-1
2.706320005E0,-5.841478109E-1,1.651047617E-1,-4.573282301E-1,7.600245769E-1
2.708706411E0,-6.535396576E-1,1.076770201E-1,-5.291129351E-1,8.477434298E-1
2.711092818E0,-7.133602500E-1,4.546362907E-2,-6.080760360E-1,9.384595108E-1
2.713479172E0,-7.707880139E-1,-3.349951655E-2,-6.894320250E-1,1.034675262E0
2.715865578E0,-8.210372925E-1,-1.196411327E-1,-8.042874932E-1,1.155549483E0
2.718251984E0,-8.811569214E-1,-2.081755698E-1,-9.266205430E-1,1.295530864E0
2.720638338E0,-9.553344250E-1,-2.994019389E-1,-1.055832982E0,1.455021880E0
2.723024745E0,-1.046261668E0,-4.046861231E-1,-1.216152072E0,1.654527183E0
2.725411151E0,-1.146760225E0,-5.243272781E-1,-1.371685624E0,1.863196061E0
2.727797505E0,-1.261615753E0,-6.559324861E-1,-1.527518153E0,2.086919606E0
2.730183911E0,-1.388435364E0,-7.995018363E-1,-1.704586983E0,2.339353057E0
2.732570318E0,-1.525125384E0,-9.409775138E-1,-1.879263043E0,2.596743288E0
2.734956672E0,-1.675873160E0,-1.084546804E0,-2.047059774E0,2.859238769E0
2.737343078E0,-1.845763564E0,-1.218544960E0,-2.216950178E0,3.131543237E0
2.739729484E0,-2.011167526E0,-1.342971683E0,-2.370090723E0,3.386103630E0
2.742115891E0,-2.157129526E0,-1.460519075E0,-2.504088879E0,3.613417340E0
2.744502245E0,-2.269592285E0,-1.575374603E0,-2.647957325E0,3.826817513E0
2.746888651E0,-2.334198475E0,-1.683051586E0,-2.781955481E0,4.002551868E0
2.749275057E0,-2.343769789E0,-1.797907114E0,-2.913560629E0,4.149043547E0
2.751661411E0,-2.303091764E0,-1.927119493E0,-3.057130098E0,4.285331452E0
2.754047818E0,-2.214557409E0,-2.082952023E0,-3.186641455E0,4.404274902E0
2.756434224E0,-2.082952023E0,-2.267199516E0,-3.282354355E0,4.500303644E0
2.758820578E0,-1.907976985E0,-2.484946251E0,-3.370888948E0,4.601980698E0
2.761206984E0,-1.685444474E0,-2.746062994E0,-3.433102369E0,4.708266870E0
2.763593391E0,-1.415055513E0,-3.045166016E0,-3.468994617E0,4.827974920E0
2.765979797E0,-1.094118118E0,-3.390031576E0,-3.516851187E0,5.005761762E0
2.768366151E0,-7.157530785E-1,-3.787539244E0,-3.571886063E0,5.255104760E0
2.770752557E0,-2.703889608E-1,-4.237689018E0,-3.634099483E0,5.589078409E0
2.773138963E0,2.488535494E-1,-4.740181446E0,-3.722932816E0,6.032534872E0
2.775525318E0,8.476574421E-1,-5.293222904E0,-3.806681633E0,6.574766681E0
2.777911724E0,1.534696579E0,-5.892026424E0,-3.868895054E0,7.213849036E0
2.780298130E0,2.317448616E0,-6.519245148E0,-3.900001764E0,7.942363574E0
2.782684536E0,3.200998545E0,-7.165606499E0,-3.900001764E0,8.763693396E0
2.785070891E0,4.191926003E0,-7.823931694E0,-3.847359657E0,9.674106010E0
2.787457297E0,5.281258583E0,-8.482256889E0,-3.746861219E0,1.067142648E1
2.789843703E0,6.454638958E0,-9.123832703E0,-3.593421459E0,1.173964927E1
2.792230057E0,7.704290867E0,-9.743872643E0,-3.382853031E0,1.287411537E1
2.794616463E0,9.035298347E0,-1.035673428E1,-3.122035265E0,1.409417132E1
2.797002870E0,1.045753193E1,-1.096271706E1,-2.822633505E0,1.541130751E1
2.799389224E0,1.200628662E1,-1.156122208E1,-2.480160713E0,1.685123056E1
2.801775630E0,1.368455315E1,-1.215015507E1,-2.080559254E0,1.841798007E1
2.804162036E0,1.550190163E1,-1.271994591E1,-1.628016710E0,2.011855900E1
2.806548391E0,1.744816399E1,-1.324666595E1,-1.115653515E0,2.193529731E1
2.808934797E0,1.951197243E1,-1.370608807E1,-5.195416212E-1,2.385044741E1
2.811321203E0,2.165953064E1,-1.408684635E1,1.531406492E-1,2.583791709E1
2.813707609E0,2.381396866E1,-1.435035515E1,8.787640929E-1,2.781744098E1
2.816093963E0,2.590649223E1,-1.446281815E1,1.661516190E0,2.971666342E1
2.818480370E0,2.789612389E1,-1.442453289E1,2.484946251E0,3.150294962E1
2.820866776E0,2.978974533E1,-1.423280811E1,3.337389469E0,3.318342843E1
2.823253182E0,3.159243774E1,-1.390259838E1,4.196712017E0,3.477034305E1
2.825639536E0,3.331377411E1,-1.343569946E1,5.027619362E0,3.627123546E1
2.828025943E0,3.496571732E1,-1.283958721E1,5.855835438E0,3.770606312E1
2.830412349E0,3.656262970E1,-1.211186981E1,6.653243542E0,3.908694066E1
2.832798703E0,3.810929108E1,-1.125224876E1,7.390532017E0,4.041721331E1
2.835185109E0,3.960809326E1,-1.025862885E1,8.065607071E0,4.170245239E1
2.837571516E0,4.103960037E1,-9.145368576E0,8.642576218E0,4.292529195E1
2.839957870E0,4.237090683E1,-7.938787460E0,9.097511292E0,4.405772127E1
2.842344276E0,4.358227158E1,-6.684350014E0,9.425627708E0,4.508810695E1
2.844730682E0,4.464049911E1,-5.437091351E0,9.619445801E0,4.598771424E1
2.847117088E0,4.549982071E1,-4.259224415E0,9.664909363E0,4.670958307E1
2.849503443E0,4.612943268E1,-3.196212769E0,9.578767776E0,4.722174422E1
2.851889849E0,4.650540543E1,-2.267199516E0,9.356235504E0,4.749138943E1
2.854276255E0,4.662026215E1,-1.453340650E0,8.956335068E0,4.749502058E1
2.856662609E0,4.647430038E1,-7.205387354E-1,8.376973152E0,4.722873544E1
2.859049016E0,4.606721878E1,-4.307080805E-2,7.637291908E0,4.669602477E1
2.861435422E0,4.542086029E1,5.937191248E-1,6.751348972E0,4.592371680E1
2.863821776E0,4.455884552E1,1.175474167E0,5.819942951E0,4.495268835E1
2.866208182E0,4.350809479E1,1.666301847E0,4.939085007E0,4.381923590E1
2.868594588E0,4.228207397E1,2.023131609E0,4.187140465E0,4.253703077E1
2.870980943E0,4.091038895E1,2.200200319E0,3.663112402E0,4.113294540E1
2.873367349E0,3.941397476E1,2.171486616E0,3.418745279E0,3.962151663E1
2.875753755E0,3.783620834E1,1.941476464E0,3.445066452E0,3.804229850E1
2.878140161E0,3.621806335E1,1.541875124E0,3.722932816E0,3.644153840E1
2.880526516E0,3.458286667E1,1.007976532E0,4.203890324E0,3.485202114E1
2.882912922E0,3.295245743E1,3.831507266E-1,4.809872627E0,3.330384557E1
2.885299328E0,3.134597588E1,-2.799602449E-1,5.499304771E0,3.182594750E1
2.887685682E0,2.978017426E1,-9.577272534E-1,6.224628925E0,3.043882431E1
2.890072088E0,2.826461983E1,-1.620838284E0,6.947560310E0,2.915106250E1
2.892458495E0,2.680918503E1,-2.252842426E0,7.630113125E0,2.796473363E1
2.894844901E0,2.543002129E1,-2.841775894E0,8.264510155E0,2.688984568E1
2.897231255E0,2.413969231E1,-3.390031576E0,8.812766075E0,2.592068488E1
2.899617661E0,2.294029045E1,-3.900001764E0,9.262915611E0,2.504532981E1
2.902004068E0,2.183660126E1,-4.376472473E0,9.619445801E0,2.425952191E1
2.904390422E0,2.081905174E1,-4.807479858E0,9.859027863E0,2.353179144E1
2.906776828E0,1.989003944E1,-5.211866856E0,1.000498962E1,2.286650482E1
2.909163234E0,1.903550148E1,-5.583053589E0,1.005763149E1,2.224132989E1
2.911549641E0,1.824796486E1,-5.923133373E0,1.001456070E1,2.164169948E1
2.913935995E0,1.751516342E1,-6.227021694E0,9.890133858E0,2.105638850E1
2.916322401E0,1.682573128E1,-6.490531445E0,9.688838005E0,2.047207399E1
2.918708807E0,1.617936897E1,-6.715456963E0,9.413662910E0,1.988683967E1
2.921095161E0,1.557607937E1,-6.892525673E0,9.073583603E0,1.929899163E1
2.923481568E0,1.502543068E1,-7.029215813E0,8.683254242E0,1.872357728E1
2.925867974E0,1.453460312E1,-7.134500027E0,8.240582466E0,1.816763545E1
2.928254328E0,1.410120296E1,-7.213462830E0,7.749754429E0,1.763339629E1
2.930640734E0,1.372523022E1,-7.266105175E0,7.227819920E0,1.712949531E1
2.933027141E0,1.339262867E1,-7.306783199E0,6.691528320E0,1.665917569E1
2.935413547E0,1.309322643E1,-7.325925827E0,6.150451660E0,1.621511095E1
2.937799901E0,1.283480167E1,-7.323532581E0,5.616552830E0,1.580860301E1
2.940186307E0,1.261196995E1,-7.301997185E0,5.094618320E0,1.543813734E1
2.942572713E0,1.243250847E1,-7.256533623E0,4.594219685E0,1.511063869E1
2.944959068E0,1.228415298E1,-7.189534664E0,4.108177185E0,1.481441673E1
2.947345474E0,1.216929817E1,-7.101000309E0,3.646063566E0,1.455368692E1
2.949731880E0,1.207597733E1,-6.993024349E0,3.210569859E0,1.431919609E1
2.952118234E0,1.199910831E1,-6.868597507E0,2.791526794E0,1.410492304E1
2.954504641E0,1.192014503E1,-6.725028038E0,2.398804665E0,1.389496756E1
2.956891047E0,1.183639622E1,-6.569494724E0,2.025524378E0,1.368799786E1
2.959277453E0,1.175025463E1,-6.394519329E0,1.654337764E0,1.347943600E1
2.961663807E0,1.165693474E1,-6.207879066E0,1.309472203E0,1.327164675E1
2.964050213E0,1.155882931E1,-6.018846035E0,9.840483069E-1,1.306910072E1
2.966436620E0,1.145563793E1,-5.834300041E0,6.655037999E-1,1.287297917E1
2.968822974E0,1.135274696E1,-5.654838085E0,3.687937856E-1,1.268850134E1
2.971209380E0,1.124267673E1,-5.480162144E0,9.092725813E-2,1.250752674E1
2.973595786E0,1.113021469E1,-5.314758301E0,-1.746760458E-1,1.233526840E1
2.975982141E0,1.101775169E1,-5.161617756E0,-4.142574072E-1,1.217393771E1
2.978368547E0,1.091216850E1,-5.018048286E0,-6.391827464E-1,1.202766746E1
2.980754953E0,1.081167030E1,-4.884049892E0,-8.524430394E-1,1.189423462E1
2.983141359E0,1.070399284E1,-4.759324074E0,-1.029511929E0,1.175952904E1
2.985527713E0,1.058195877E1,-4.630111694E0,-1.163509965E0,1.160902843E1
2.987914120E0,1.044317532E1,-4.493721008E0,-1.259222865E0,1.143849122E1
2.990300526E0,1.029212856E1,-4.352544308E0,-1.311864972E0,1.125137956E1
2.992686880E0,1.013420200E1,-4.206283092E0,-1.316650629E0,1.105117354E1
2.995073286E0,9.976275444E0,-4.060320854E0,-1.297508121E0,1.084876972E1
2.997459693E0,9.832706451E0,-3.911965847E0,-1.242473125E0,1.065501443E1
2.999846047E0,9.705587387E0,-3.775574923E0,-1.170688510E0,1.047969008E1
3.002232453E0,9.585947037E0,-3.653541088E0,-1.098903775E0,1.031728320E1
3.004618859E0,9.468698502E0,-3.543172121E0,-1.000798106E0,1.015932659E1
3.007005266E0,9.349057198E0,-3.440280676E0,-8.787640929E-1,1.000063138E1
3.009391620E0,9.217152596E0,-3.337389469E0,-7.516453862E-1,9.831533005E0
3.011778026E0,9.071190834E0,-3.234498024E0,-6.128616929E-1,9.650081869E0
3.014164432E0,8.922835350E0,-3.131606579E0,-4.597210586E-1,9.467591769E0
3.016550786E0,8.774480820E0,-3.028416157E0,-3.161516786E-1,9.287775296E0
3.018937193E0,8.623434067E0,-2.927917719E0,-1.722832322E-1,9.108567329E0
3.021323599E0,8.467900276E0,-2.832204819E0,-3.349951655E-2,8.929044822E0
3.023709953E0,8.309973717E0,-2.741277456E0,8.853443712E-2,8.750891590E0
3.026096359E0,8.147261620E0,-2.655135870E0,2.105683982E-1,8.571578468E0
3.028482766E0,7.974679470E0,-2.573779821E0,3.305086195E-1,8.386244163E0
3.030869120E0,7.792825222E0,-2.492124796E0,4.214358926E-1,8.192461117E0
3.033255526E0,7.608577728E0,-2.413161755E0,5.099703074E-1,7.998366984E0
3.035641932E0,7.412067413E0,-2.341377020E0,5.889334679E-1,7.795359666E0
3.038028338E0,7.208677292E0,-2.264806747E0,6.463612318E-1,7.583677257E0
3.040414693E0,7.007380962E0,-2.188236237E0,7.037889361E-1,7.374759972E0
3.042801099E0,6.815955162E0,-2.106880426E0,7.516453862E-1,7.173643474E0
3.045187505E0,6.636493683E0,-2.020738840E0,7.731808424E-1,6.980275244E0
3.047573859E0,6.473781586E0,-1.931905150E0,7.875377536E-1,6.801641070E0
3.049960266E0,6.320342064E0,-1.845763564E0,7.875377536E-1,6.631273079E0
3.052346672E0,6.181558132E0,-1.764407635E0,7.564310431E-1,6.472787897E0
3.054733026E0,6.042774677E0,-1.690230131E0,7.181459069E-1,6.315673934E0
3.057119432E0,5.911169052E0,-1.623231053E0,6.678966284E-1,6.166269903E0
3.059505838E0,5.779264927E0,-1.561017632E0,5.985047817E-1,6.016218673E0
3.061892245E0,5.654838085E0,-1.505982757E0,5.219344497E-1,5.875167521E0
3.064278599E0,5.535196781E0,-1.455733418E0,4.357928336E-1,5.739989424E0
3.066665005E0,5.437091351E0,-1.405484200E0,3.472583890E-1,5.626538597E0
3.069051411E0,5.350949764E0,-1.362114310E0,2.536391914E-1,5.527418169E0
3.071437766E0,5.283651352E0,-1.326221943E0,1.722832322E-1,5.450276852E0
3.073824172E0,5.233402252E0,-1.292722464E0,9.571290761E-2,5.391548151E0
3.076210578E0,5.199902534E0,-1.264008522E0,2.153540403E-2,5.351370636E0
3.078596984E0,5.183153152E0,-1.237687469E0,-3.828516230E-2,5.329016103E0
3.080983338E0,5.178367138E0,-1.211366415E0,-9.092725813E-2,5.318943746E0
3.083369745E0,5.171188831E0,-1.187438250E0,-1.339980662E-1,5.307462577E0
3.085756151E0,5.159224510E0,-1.151545882E0,-1.698904037E-1,5.288905200E0
3.088142505E0,5.147260666E0,-1.098903775E0,-1.794617027E-1,5.266316395E0
3.090528911E0,5.140082359E0,-1.036690354E0,-1.698904037E-1,5.246335512E0
3.092915318E0,5.137689114E0,-9.577272534E-1,-1.531406492E-1,5.228435997E0
3.095301672E0,5.154438972E0,-8.763712645E-1,-1.196411327E-1,5.229778362E0
3.097688078E0,5.190331459E0,-7.995018363E-1,-6.939185411E-2,5.252005243E0
3.100074484E0,5.252544880E0,-7.396813035E-1,-1.914258115E-2,5.304405960E0
3.102460838E0,5.334199905E0,-6.966105103E-1,5.024927482E-2,5.379728601E0
3.104847245E0,5.434698582E0,-6.607181430E-1,1.268195957E-1,5.476183009E0
3.107233651E0,5.539982796E0,-6.248258352E-1,1.962114573E-1,5.578558563E0
3.109620057E0,5.642873764E0,-5.937191248E-1,2.656033039E-1,5.680235192E0
3.112006411E0,5.743372440E0,-5.626124144E-1,3.329014480E-1,5.780456997E0
3.114392818E0,5.836692810E0,-5.195416212E-1,3.879363835E-1,5.872597474E0
3.116779224E0,5.915955067E0,-4.716851711E-1,4.453641176E-1,5.951416676E0
3.119165578E0,5.978168488E0,-4.214358926E-1,5.099703074E-1,6.014663448E0
3.121551984E0,6.016453266E0,-3.592225015E-1,5.650052428E-1,6.053592457E0
3.123938391E0,6.035595894E0,-2.946162820E-1,6.248258352E-1,6.074999907E0
3.126324797E0,6.028417587E0,-2.297109663E-1,6.942176819E-1,6.072604377E0
3.128711151E0,5.997310638E0,-1.651047617E-1,7.492526174E-1,6.046186729E0
3.131097557E0,5.939883232E0,-1.052841991E-1,7.995018363E-1,5.994372424E0
3.133483963E0,5.860620975E0,-5.264209956E-2,8.572286963E-1,5.923216225E0
3.135870318E0,5.762515068E0,-4.785645287E-3,8.907282352E-1,5.830951861E0
3.138256724E0,5.645267010E0,4.067798331E-2,9.314061999E-1,5.721731540E0
3.140643130E0,5.518447399E0,8.374879509E-2,9.577272534E-1,5.601563804E0
3.143029484E0,5.384449005E0,1.292124242E-1,9.577272534E-1,5.470487038E0
3.145415891E0,5.245366573E0,1.651047617E-1,9.457631707E-1,5.332503919E0
3.147802297E0,5.101797104E0,1.938186288E-1,9.146564603E-1,5.186761590E0
3.150188651E0,4.958227634E0,2.129612118E-1,8.596215248E-1,5.036697620E0
3.152575057E0,4.817050934E0,2.249253243E-1,7.971090674E-1,4.887735055E0
3.154961463E0,4.682754040E0,2.273181528E-1,7.301099896E-1,4.744778134E0
3.157347870E0,4.553541660E0,2.225325108E-1,6.487540603E-1,4.604904364E0
3.159734224E0,4.429114819E0,2.081755698E-1,5.697908998E-1,4.470464944E0
3.162120630E0,4.311866283E0,1.866401732E-1,4.932205677E-1,4.343994927E0
3.164507036E0,4.196712017E0,1.674975902E-1,4.046861231E-1,4.219504480E0
3.166893391E0,4.089034557E0,1.507478207E-1,3.305086195E-1,4.105138787E0
3.169279797E0,3.981357813E0,1.316052526E-1,2.560320199E-1,3.991751792E0
3.171666203E0,3.873680830E0,1.124626622E-1,1.794617027E-1,3.879466139E0
3.174052609E0,3.775574923E0,9.332008660E-2,1.196411327E-1,3.778622584E0
3.176438963E0,3.675076485E0,7.417750359E-2,6.460621208E-2,3.676392720E0
3.178825370E0,3.581457376E0,5.742774159E-2,0.000000000E0,3.581917766E0
3.181211776E0,3.485744476E0,4.785645381E-2,-4.546362907E-2,3.486369420E0
3.183598130E0,3.390031576E0,4.067798331E-2,-9.092725813E-2,3.391494737E0
3.185984536E0,3.301496983E0,3.349951655E-2,-1.459621787E-1,3.304891753E0
3.188370943E0,3.215355396E0,2.871387079E-2,-1.842473447E-1,3.220757969E0
3.190757297E0,3.133999348E0,2.153540403E-2,-2.177468538E-1,3.141628459E0
3.193143703E0,3.052344322E0,1.674975827E-2,-2.512463629E-1,3.062713038E0
3.195530109E0,2.973381281E0,1.196411345E-2,-2.826521695E-1,2.986809607E0
3.197916516E0,2.884846687E0,2.392822644E-3,-3.113660514E-1,2.901602136E0
3.200302870E0,2.786741018E0,-9.571290575E-3,-3.496512175E-1,2.808606965E0
3.202689276E0,2.686242580E0,-1.674975827E-2,-3.735794425E-1,2.712147001E0
3.205075682E0,2.583351135E0,-2.392822690E-2,-3.879363835E-1,2.612426130E0
3.207462036E0,2.480160713E0,-3.589234129E-2,-4.214358926E-1,2.515967733E0
3.209848443E0,2.370090723E0,-4.307080805E-2,-4.381856322E-1,2.410641362E0
3.212234849E0,2.267199516E0,-4.546362907E-2,-4.429712892E-1,2.310515992E0
3.214621203E0,2.171486616E0,-4.546362907E-2,-4.501497746E-1,2.218119899E0
3.217007609E0,2.080559254E0,-3.828516230E-2,-4.453641176E-1,2.128037067E0
3.219394016E0,1.999203324E0,-2.632104978E-2,-4.310071766E-1,2.045305336E0
3.221780422E0,1.922333837E0,-1.435693540E-2,-4.214358926E-1,1.968040069E0
3.224166776E0,1.852941990E0,4.785645287E-3,-4.022932947E-1,1.896116245E0
3.226553182E0,1.785943031E0,3.110669367E-2,-3.759722710E-1,1.825353469E0
3.228939536E0,1.721336842E0,6.460621208E-2,-3.496512175E-1,1.757677575E0
3.231325943E0,1.654337764E0,1.028913707E-1,-3.257229924E-1,1.689235193E0
3.233712349E0,1.582553029E0,1.531406492E-1,-3.041875660E-1,1.618782327E0
3.236098755E0,1.513161182E0,2.033899277E-1,-2.850449979E-1,1.553149986E0
3.238485109E0,1.446162224E0,2.560320199E-1,-2.632105052E-1,1.492051387E0
3.240871516E0,1.383649707E0,3.041875660E-1,-2.464607358E-1,1.437970612E0
3.243257922E0,1.319043517E0,3.496512175E-1,-2.368894368E-1,1.385008440E0
3.245644276E0,1.249651670E0,3.855435550E-1,-2.321037948E-1,1.328211317E0
3.248030682E0,1.180259824E0,4.238287210E-1,-2.368894368E-1,1.276229071E0
3.250417088E0,1.098903775E0,4.597210586E-1,-2.440679073E-1,1.215936718E0
3.252803495E0,1.019940615E0,4.908277392E-1,-2.560320199E-1,1.160492621E0
3.255189849E0,9.385846853E-1,5.147559643E-1,-2.679961324E-1,1.103511142E0
3.257576255E0,8.572286963E-1,5.315057039E-1,-2.850449979E-1,1.048136442E0
3.259962661E0,7.779664397E-1,5.338985324E-1,-2.994019389E-1,9.899095642E-1
3.262349016E0,7.013961077E-1,5.291129351E-1,-3.065803945E-1,9.305420658E-1
3.264735422E0,6.176473498E-1,5.147559643E-1,-3.137588799E-1,8.630797102E-1
3.267121828E0,5.386841893E-1,4.860421121E-1,-3.137588799E-1,7.904822739E-1
3.269508182E0,4.597210586E-1,4.405784607E-1,-3.065803945E-1,7.067137823E-1
3.271894588E0,3.831507266E-1,3.855435550E-1,-2.994019389E-1,6.205560677E-1
3.274280995E0,3.065803945E-1,3.281157911E-1,-2.751746178E-1,5.266617329E-1
3.276667401E0,2.321037948E-1,2.751746178E-1,-2.392822653E-1,4.322606208E-1
3.279053755E0,1.531406492E-1,2.321037948E-1,-2.057827413E-1,3.459346277E-1
3.281440161E0,7.178468257E-2,1.914258152E-1,-1.722832322E-1,2.673544379E-1
3.283826568E0,-1.435693540E-2,1.531406492E-1,-1.339980662E-1,2.039942690E-1
3.286212922E0,-9.571290761E-2,1.172483116E-1,-1.052841991E-1,1.843716080E-1
3.288599328E0,-1.770688742E-1,7.896314561E-2,-8.374879509E-2,2.111928627E-1
3.290985734E0,-2.536391914E-1,4.067798331E-2,-4.785645381E-2,2.613001682E-1
3.293372088E0,-3.233301640E-1,2.392822644E-3,-2.153540403E-2,3.240553875E-1
3.295758495E0,-3.903291821E-1,-3.589234129E-2,2.392822644E-3,3.919832346E-1
3.298144901E0,-4.525425732E-1,-7.417750359E-2,3.589234129E-2,4.599840680E-1
3.300531255E0,-5.099703074E-1,-1.124626622E-1,6.221338734E-2,5.259164100E-1
3.302917661E0,-5.602195859E-1,-1.507478207E-1,8.853443712E-2,5.868638994E-1
3.305304068E0,-6.008976102E-1,-1.914258152E-1,1.244267747E-1,6.428093053E-1
3.307690474E0,-6.296114326E-1,-2.344966233E-1,1.411765367E-1,6.865348038E-1
3.310076828E0,-6.487540603E-1,-2.799602449E-1,1.555334777E-1,7.234986055E-1
3.312463234E0,-6.535396576E-1,-3.257229924E-1,1.722832322E-1,7.502606640E-1
3.314849641E0,-6.463612318E-1,-3.759722710E-1,1.770688742E-1,7.684343672E-1
3.317235995E0,-6.296114326E-1,-4.286143482E-1,1.770688742E-1,7.819681590E-1
3.319622401E0,-6.008976102E-1,-4.836492836E-1,1.770688742E-1,7.914214767E-1
3.322008807E0,-5.626124144E-1,-5.362913609E-1,1.651047617E-1,7.946072834E-1
3.324395161E0,-5.123631358E-1,-5.889334679E-1,1.387837082E-1,7.928553022E-1
3.326781568E0,-4.405784607E-1,-6.391827464E-1,1.172483116E-1,7.851185451E-1
3.329167974E0,-3.616153300E-1,-6.870391965E-1,8.374879509E-2,7.808984345E-1
3.331554328E0,-2.656033039E-1,-7.372884750E-1,3.589234129E-2,7.844919825E-1
3.333940734E0,-1.603191197E-1,-7.923234105E-1,-9.571290575E-3,8.084368971E-1
3.336327141E0,-5.024927482E-2,-8.452646136E-1,-6.939185411E-2,8.495954838E-1
3.338713547E0,6.939185411E-2,-9.002995491E-1,-1.339980662E-1,9.128581430E-1
3.341099901E0,1.890329868E-1,-9.529415965E-1,-1.938186288E-1,9.906547417E-1
3.343486307E0,3.089732230E-1,-1.010369420E0,-2.679961324E-1,1.090015020E0
3.345872713E0,4.262215197E-1,-1.070189953E0,-3.544368446E-1,1.205237236E0
3.348259068E0,5.410770178E-1,-1.130010486E0,-4.429712892E-1,1.328876066E0
3.350645474E0,6.511468887E-1,-1.194616675E0,-5.458626747E-1,1.465969758E0
3.353031880E0,7.516453862E-1,-1.266401410E0,-6.535396576E-1,1.611166473E0
3.355418286E0,8.428717852E-1,-1.338186026E0,-7.660023570E-1,1.757251916E0
3.357804641E0,9.242277741E-1,-1.410269856E0,-8.907282352E-1,1.906949091E0
3.360191047E0,1.003190875E0,-1.484447360E0,-1.036690354E0,2.069952364E0
3.362577453E0,1.084546804E0,-1.568196177E0,-1.194616675E0,2.250020005E0
3.364963807E0,1.170688510E0,-1.659123421E0,-1.374078393E0,2.451793944E0
3.367350213E0,1.271187067E0,-1.759621978E0,-1.570588946E0,2.679353598E0
3.369736620E0,1.386042476E0,-1.869691849E0,-1.764407635E0,2.920615629E0
3.372122974E0,1.517946839E0,-1.994417667E0,-1.968096614E0,3.186733237E0
3.374509380E0,1.668694735E0,-2.130808592E0,-2.169093609E0,3.468408058E0
3.376895786E0,1.831406593E0,-2.286342144E0,-2.346162558E0,3.753117272E0
3.379282141E0,2.013560295E0,-2.453839540E0,-2.520838737E0,4.053440698E0
3.381668547E0,2.209771633E0,-2.635993242E0,-2.679064035E0,4.359923755E0
3.384054953E0,2.425125837E0,-2.822633505E0,-2.808276415E0,4.662071605E0
3.386441359E0,2.657528639E0,-3.011666298E0,-2.915953398E0,4.963403729E0
3.388827713E0,2.913560629E0,-3.200998545E0,-2.997309446E0,5.264892320E0
3.391214120E0,3.189034462E0,-3.392424345E0,-3.057130098E0,5.569966622E0
3.393600526E0,3.492922783E0,-3.595814228E0,-3.110071182E0,5.899401011E0
3.395986880E0,3.837788343E0,-3.813860178E0,-3.160320520E0,6.265921689E0
3.398373286E0,4.228117466E0,-4.043570995E0,-3.205784082E0,6.671168959E0
3.400759693E0,4.663611412E0,-4.290330887E0,-3.241676569E0,7.117912440E0
3.403146047E0,5.140082359E0,-4.548755646E0,-3.267997503E0,7.602067631E0
3.405532453E0,5.659623623E0,-4.807479858E0,-3.284747362E0,8.119899468E0
3.407918859E0,6.217450619E0,-5.058726311E0,-3.275176048E0,8.658763320E0
3.410305266E0,6.801598549E0,-5.305186749E0,-3.236890793E0,9.213262791E0
3.412691620E0,7.433602810E0,-5.535196781E0,-3.179463148E0,9.798256990E0
3.415078026E0,8.134998322E0,-5.745765209E0,-3.093321562E0,1.042883761E1
3.417464432E0,8.922835350E0,-5.935097694E0,-2.966202736E0,1.111938550E1
3.419850786E0,9.801301003E0,-6.109773636E0,-2.822633505E0,1.188957927E1
3.422237193E0,1.078774166E1,-6.279664040E0,-2.657528639E0,1.276213184E1
3.424623599E0,1.187946701E1,-6.454638958E0,-2.458625317E0,1.374150425E1
3.427009953E0,1.306929779E1,-6.617351055E0,-2.214557409E0,1.481553726E1
3.429396359E0,1.433121300E1,-6.748956203E0,-1.929512382E0,1.595791634E1
3.431782766E0,1.563350677E1,-6.839883327E0,-1.616052628E0,1.714065822E1
3.434169172E0,1.698365784E1,-6.904489517E0,-1.302293777E0,1.837967840E1
3.436555526E0,1.837478447E1,-6.969096184E0,-9.984052777E-1,1.967734278E1
3.438941932E0,1.980389786E1,-7.053143978E0,-7.205387354E-1,2.103474237E1
3.441328338E0,2.125484467E1,-7.170392036E0,-4.645066857E-1,2.243654854E1
3.443714693E0,2.271985054E1,-7.328318596E0,-1.986042857E-1,2.387331786E1
3.446101099E0,2.418276215E1,-7.512565613E0,9.810572863E-2,2.532299848E1
3.448487505E0,2.562892532E1,-7.709076405E0,4.429712892E-1,2.676691794E1
3.450873859E0,2.704846764E1,-7.888537884E0,8.377870321E-1,2.818777250E1
3.453260266E0,2.843480873E1,-8.027321815E0,1.302293777E0,2.957485777E1
3.455646672E0,2.978495979E1,-8.106285095E0,1.829013824E0,3.092249957E1
3.458033078E0,3.109203911E1,-8.111070633E0,2.405983210E0,3.222255604E1
3.460419432E0,3.235155869E1,-8.029714584E0,3.011666298E0,3.346893783E1
3.462805838E0,3.354856873E1,-7.862216949E0,3.605385542E0,3.464563066E1
3.465192245E0,3.466901016E1,-7.625327587E0,4.167997837E0,3.574154575E1
3.467578599E0,3.569852066E1,-7.330711365E0,4.687539577E0,3.674366250E1
3.469965005E0,3.661527252E1,-6.997809887E0,5.106582642E0,3.762611741E1
3.472351411E0,3.740071487E1,-6.638886452E0,5.425127029E0,3.837082602E1
3.474737766E0,3.802793503E1,-6.272485256E0,5.630909920E0,3.895093144E1
3.477124172E0,3.847090530E1,-5.913562298E0,5.714658737E0,3.934003175E1
3.479510578E0,3.870061493E1,-5.585446358E0,5.695516109E0,3.951422163E1
3.481896984E0,3.872454453E1,-5.312365532E0,5.611767292E0,3.948801728E1
3.484283338E0,3.855944061E1,-5.099404335E0,5.496912003E0,3.928168055E1
3.486669745E0,3.821696854E1,-4.931906700E0,5.382056236E0,3.890792872E1
3.489056151E0,3.772374725E1,-4.788337231E0,5.245366573E0,3.838649698E1
3.491442505E0,3.709891891E1,-4.627718925E0,5.039583683E0,3.772456720E1
3.493828911E0,3.636402512E1,-4.417150497E0,4.728217602E0,3.693520790E1
3.496215318E0,3.555704498E1,-4.141676903E0,4.311866283E0,3.605619401E1
3.498601672E0,3.470729446E1,-3.811467409E0,3.818645954E0,3.512414596E1
3.500988078E0,3.383092117E1,-3.449851990E0,3.299104214E0,3.416601813E1
3.503374484E0,3.294527817E1,-3.102892876E0,2.813062191E0,3.321042934E1
3.505760838E0,3.205933762E1,-2.815454960E0,2.422732830E0,3.227379044E1
3.508147245E0,3.117369270E1,-2.614457846E0,2.169093609E0,3.135824411E1
3.510533651E0,3.029014397E1,-2.511267424E0,2.066202402E0,3.046421635E1
3.512920057E0,2.941377258E1,-2.513660192E0,2.133201361E0,2.959795691E1
3.515306411E0,2.854487801E1,-2.614457846E0,2.329412937E0,2.875885281E1
3.517692818E0,2.769961357E1,-2.789133787E0,2.626421928E0,2.796329650E1
3.520079224E0,2.688336182E1,-3.023630619E0,2.997309446E0,2.721840092E1
3.522465578E0,2.608834648E1,-3.294318676E0,3.390031576E0,2.651314149E1
3.524851984E0,2.531755829E1,-3.583850145E0,3.777967930E0,2.584754884E1
3.527238391E0,2.456830597E1,-3.880859137E0,4.151247978E0,2.521697019E1
3.529624745E0,2.383789825E1,-4.167997837E0,4.493721008E0,2.461323074E1
3.532011151E0,2.312693024E1,-4.443471432E0,4.800301552E0,2.403418889E1
3.534397557E0,2.243031883E1,-4.701896667E0,5.085047245E0,2.347519416E1
3.536783963E0,2.174806595E1,-4.941477776E0,5.350949764E0,2.293532730E1
3.539170318E0,2.108016968E1,-5.156831741E0,5.590231895E0,2.241020214E1
3.541556724E0,2.043350983E1,-5.348556995E0,5.822335720E0,2.190970057E1
3.543943130E0,1.980389786E1,-5.528018475E0,6.028417587E0,2.142650642E1
3.546329484E0,1.919103622E1,-5.688337803E0,6.205486298E0,2.095617137E1
3.548715891E0,1.859731674E1,-5.839085579E0,6.380162239E0,2.051003609E1
3.551102297E0,1.803709793E1,-5.975775242E0,6.521637917E0,2.008926461E1
3.553488651E0,1.750559044E1,-6.090631008E0,6.626922131E0,1.968394218E1
3.555875057E0,1.700040627E1,-6.193522453E0,6.710670948E0,1.929784025E1
3.558261463E0,1.652154350E1,-6.277271271E0,6.765706062E0,1.892459545E1
3.560647870E0,1.606690598E1,-6.341877460E0,6.780063152E0,1.855624245E1
3.563034224E0,1.563111401E1,-6.394519329E0,6.780063152E0,1.819864992E1
3.565420630E0,1.522164249E1,-6.425626278E0,6.756134510E0,1.785027806E1
3.567807036E0,1.483131313E1,-6.437590122E0,6.693921566E0,1.749911431E1
3.570193391E0,1.445563984E1,-6.430411816E0,6.617351055E0,1.714949137E1
3.572579797E0,1.410359573E1,-6.406483650E0,6.533602238E0,1.681197203E1
3.574966203E0,1.377099323E1,-6.365805626E0,6.425626278E0,1.647581285E1
3.577352557E0,1.346201992E1,-6.310770512E0,6.317949295E0,1.615451293E1
3.579738963E0,1.317936802E1,-6.234200478E0,6.207879066E0,1.584609603E1
3.582125370E0,1.292333603E1,-6.138487339E0,6.073881149E0,1.554302651E1
3.584511776E0,1.268405342E1,-6.021239281E0,5.937490463E0,1.524448512E1
3.586898130E0,1.246840096E1,-5.899205208E0,5.796014786E0,1.496179909E1
3.589284536E0,1.228415298E1,-5.776872158E0,5.628517151E0,1.469533504E1
3.591670943E0,1.213579845E1,-5.659623623E0,5.456233978E0,1.445957928E1
3.594057297E0,1.202064323E1,-5.551946640E0,5.283651352E0,1.425611963E1
3.596443703E0,1.193210888E1,-5.451447964E0,5.085047245E0,1.406951359E1
3.598830109E0,1.187228870E1,-5.360520840E0,4.872086048E0,1.390768296E1
3.601216463E0,1.183400345E1,-5.283651352E0,4.646861553E0,1.376785864E1
3.603602870E0,1.180768204E1,-5.214259624E0,4.395615101E0,1.363566246E1
3.605989276E0,1.179571819E1,-5.154438972E0,4.129712582E0,1.351893986E1
3.608375630E0,1.179093266E1,-5.101797104E0,3.866502285E0,1.341656687E1
3.610762036E0,1.179093266E1,-5.049154758E0,3.581457376E0,1.331716537E1
3.613148443E0,1.178136158E1,-4.991727352E0,3.294318676E0,1.321250764E1
3.615534849E0,1.175743294E1,-4.919942379E0,3.018844843E0,1.309795734E1
3.617921203E0,1.171675491E1,-4.824229717E0,2.743670225E0,1.296469299E1
3.620307609E0,1.165454197E1,-4.704289436E0,2.484946251E0,1.281146539E1
3.622694016E0,1.157318592E1,-4.560719967E0,2.250449657E0,1.264133389E1
3.625080370E0,1.148435211E1,-4.393222332E0,2.032702923E0,1.246284988E1
3.627466776E0,1.138385391E1,-4.208974838E0,1.836192250E0,1.227514566E1
3.629853182E0,1.128814125E1,-4.007678986E0,1.666301847E0,1.209380774E1
3.632239536E0,1.119003487E1,-3.797110319E0,1.505982757E0,1.191230083E1
3.634625943E0,1.109192944E1,-3.581457376E0,1.357328653E0,1.173456759E1
3.637012349E0,1.099621677E1,-3.366103172E0,1.220937729E0,1.156452000E1
3.639398703E0,1.090020466E1,-3.157927752E0,1.094118118E0,1.140105538E1
3.641785109E0,1.081167030E1,-2.959024191E0,9.672985673E-1,1.125094242E1
3.644171516E0,1.072552872E1,-2.769991398E0,8.476574421E-1,1.110983086E1
3.646557922E0,1.063938713E1,-2.592922449E0,7.372884750E-1,1.097558197E1
3.648944276E0,1.055324554E1,-2.429911375E0,6.320042610E-1,1.084780578E1
3.651330682E0,1.046710396E1,-2.279163599E0,5.386841893E-1,1.072590475E1
3.653717088E0,1.037587738E1,-2.142772675E0,4.501497746E-1,1.060438310E1
3.656103443E0,1.027537823E1,-2.018345833E0,3.664009571E-1,1.047813759E1
3.658489849E0,1.017009449E1,-1.900798440E0,2.898306549E-1,1.035025886E1
3.660876255E0,1.005284595E1,-1.797907114E0,2.297109663E-1,1.021493754E1
3.663262609E0,9.935597420E0,-1.695015788E0,1.746760458E-1,1.008065902E1
3.665649016E0,9.808479309E0,-1.596910000E0,1.292124242E-1,9.938464859E0
3.668035422E0,9.674481392E0,-1.501197100E0,1.004985496E-1,9.790775398E0
3.670421828E0,9.540482521E0,-1.417448282E0,8.135596663E-2,9.645547427E0
3.672808182E0,9.406484604E0,-1.345364571E0,6.939185411E-2,9.502461453E0
3.675194588E0,9.265308380E0,-1.283151150E0,8.135596663E-2,9.354091888E0
3.677580995E0,9.114261627E0,-1.232901812E0,1.124626622E-1,9.197959542E0
3.679967349E0,8.956335068E0,-1.194616675E0,1.459621787E-1,9.036833063E0
3.682353755E0,8.791230202E0,-1.170688510E0,2.033899277E-1,8.871167201E0
3.684740161E0,8.618648529E0,-1.151545882E0,2.679961324E-1,8.699366777E0
3.687126516E0,8.441578865E0,-1.139581800E0,3.305086195E-1,8.524560772E0
3.689512922E0,8.254939079E0,-1.137188911E0,4.094717801E-1,8.342954211E0
3.691899328E0,8.067999840E0,-1.137188911E0,4.860421121E-1,8.162233577E0
3.694285734E0,7.874181271E0,-1.130010486E0,5.578267574E-1,7.974385561E0
3.696672088E0,7.677969456E0,-1.118046403E0,6.391827464E-1,7.785229432E0
3.699058495E0,7.476673603E0,-1.103689432E0,7.205387354E-1,7.591966451E0
3.701444901E0,7.273283482E0,-1.086939692E0,7.947162390E-1,7.396868554E0
3.703831255E0,7.072286606E0,-1.070189953E0,8.883354068E-1,7.207751672E0
3.706217661E0,6.870990276E0,-1.055832982E0,9.888339639E-1,7.021615432E0
3.708604068E0,6.669992924E0,-1.041476011E0,1.079761267E0,6.836619214E0
3.710990474E0,6.473781586E0,-1.036690354E0,1.177866936E0,6.661227021E0
3.713376828E0,6.284449577E0,-1.041476011E0,1.278365493E0,6.497168391E0
3.715763234E0,6.100202084E0,-1.051047325E0,1.354935765E0,6.336640819E0
3.718149588E0,5.920740604E0,-1.065404296E0,1.429412484E0,6.183322381E0
3.720535995E0,5.743372440E0,-1.079761267E0,1.498804331E0,6.033127365E0
3.722922401E0,5.561518192E0,-1.084546804E0,1.539482236E0,5.871689018E0
3.725308807E0,5.382056236E0,-1.086939692E0,1.580160260E0,5.713569259E0
3.727695161E0,5.204688549E0,-1.079761267E0,1.620838284E0,5.557138115E0
3.730081568E0,5.032404900E0,-1.065404296E0,1.644766450E0,5.400503871E0
3.732467974E0,4.872086048E0,-1.048654556E0,1.668694735E0,5.255610427E0
3.734854328E0,4.716253281E0,-1.029511929E0,1.687837243E0,5.113876649E0
3.737240734E0,4.572684288E0,-1.010369420E0,1.692622900E0,4.979483934E0
3.739627141E0,4.443471432E0,-9.888339639E-1,1.695015788E0,4.857500334E0
3.742013495E0,4.321437836E0,-9.649057388E-1,1.695015788E0,4.741196745E0
3.744399901E0,4.199104786E0,-9.361918569E-1,1.683051586E0,4.619696834E0
3.746786307E0,4.081856251E0,-9.098708034E-1,1.668694735E0,4.502661152E0
3.749172661E0,3.967000723E0,-8.787640929E-1,1.635195136E0,4.379861208E0
3.751559068E0,3.849752426E0,-8.401798606E-1,1.599302888E0,4.252559896E0
3.753945474E0,3.732504129E0,-7.923234105E-1,1.556231976E0,4.120827760E0
3.756331880E0,3.612564087E0,-7.396813035E-1,1.498804331E0,3.980472602E0
3.758718234E0,3.492922783E0,-6.798607111E-1,1.436590910E0,3.837513986E0
3.761104641E0,3.373281717E0,-6.176473498E-1,1.371685624E0,3.693513130E0
3.763491047E0,3.256033421E0,-5.626124144E-1,1.302293777E0,3.551655311E0
3.765877401E0,3.141177893E0,-5.099703074E-1,1.220937729E0,3.408483124E0
3.768263807E0,3.023630619E0,-4.621138871E-1,1.146760225E0,3.266642065E0
3.770650213E0,2.903989315E0,-4.094717801E-1,1.074975610E0,3.123522634E0
3.773036568E0,2.789133787E0,-3.640081584E-1,9.960124493E-1,2.983925271E0
3.775422974E0,2.681456804E0,-3.209373355E-1,9.218349457E-1,2.853592654E0
3.777809380E0,2.573779821E0,-2.799602449E-1,8.524430394E-1,2.725688802E0
3.780195786E0,2.470589399E0,-2.440679073E-1,7.779664397E-1,2.601655801E0
3.782582141E0,2.367697954E0,-2.129612118E-1,7.085745931E-1,2.480609609E0
3.784968547E0,2.267199516E0,-1.866401732E-1,6.415755749E-1,2.363608982E0
3.787354953E0,2.173879385E0,-1.579262912E-1,5.793621540E-1,2.255294393E0
3.789741307E0,2.082952023E0,-1.292124242E-1,5.171487927E-1,2.150076243E0
3.792127713E0,1.992024899E0,-1.028913707E-1,4.549354017E-1,2.045902258E0
3.794514120E0,1.900798440E0,-7.417750359E-2,3.879363835E-1,1.941399405E0
3.796900474E0,1.812264085E0,-3.828516230E-2,3.185445070E-1,1.840444911E0
3.799286880E0,1.726122379E0,-2.392822644E-3,2.488535494E-1,1.743970264E0
3.801673286E0,1.644766450E0,2.871387079E-2,1.674975902E-1,1.653522484E0
3.804059641E0,1.570588946E0,5.503492057E-2,8.135596663E-2,1.573657292E0
3.806446047E0,1.505982757E0,7.896314561E-2,-9.571290575E-3,1.508081845E0
3.808832453E0,1.443769336E0,1.004985496E-1,-1.028913707E-1,1.450915741E0
3.811218859E0,1.388435364E0,1.172483116E-1,-1.962114573E-1,1.407124324E0
3.813605213E0,1.342971683E0,1.244267747E-1,-2.850449979E-1,1.378515728E0
3.815991620E0,1.304686546E0,1.292124242E-1,-3.759722710E-1,1.363912748E0
3.818378026E0,1.275972724E0,1.363908947E-1,-4.573282301E-1,1.362298785E0
3.820764380E0,1.252044439E0,1.435693651E-1,-5.267201066E-1,1.365892203E0
3.823150786E0,1.232901812E0,1.603191197E-1,-5.913262963E-1,1.376741038E0
3.825537193E0,1.218544960E0,1.794617027E-1,-6.439684033E-1,1.389875400E0
3.827923547E0,1.208973646E0,2.033899277E-1,-6.918248534E-1,1.407695410E0
3.830309953E0,1.204187989E0,2.273181528E-1,-7.301099896E-1,1.426465160E0
3.832696359E0,1.199402332E0,2.488535494E-1,-7.612167001E-1,1.442201410E0
3.835082713E0,1.199402332E0,2.656033039E-1,-7.947162390E-1,1.463107983E0
3.837469120E0,1.206580877E0,2.775674164E-1,-8.186444640E-1,1.484270812E0
3.839855526E0,1.216152072E0,2.850449979E-1,-8.377870321E-1,1.504049076E0
3.842241932E0,1.223330617E0,2.874378264E-1,-8.644071817E-1,1.525240335E0
3.844628286E0,1.232901812E0,2.874378264E-1,-8.811569214E-1,1.542434732E0
3.847014693E0,1.244866014E0,2.850449979E-1,-9.002995491E-1,1.562524022E0
3.849401099E0,1.252044439E0,2.799602449E-1,-9.218349457E-1,1.579801470E0
3.851787453E0,1.249651670E0,2.751746178E-1,-9.409775138E-1,1.588329012E0
3.854173859E0,1.244866014E0,2.775674164E-1,-9.601200819E-1,1.596422762E0
3.856560266E0,1.242473125E0,2.850449979E-1,-9.792626500E-1,1.607465538E0
3.858946672E0,1.232901812E0,2.946162820E-1,-9.888339639E-1,1.607681013E0
3.861333026E0,1.223330617E0,3.065803945E-1,-9.888339639E-1,1.602598498E0
3.863719432E0,1.211366415E0,3.185445070E-1,-9.816554785E-1,1.591391427E0
3.866105838E0,1.197009563E0,3.305086195E-1,-9.696913958E-1,1.575553631E0
3.868492193E0,1.189831018E0,3.400799036E-1,-9.457631707E-1,1.557504468E0
3.870878599E0,1.182652593E0,3.496512175E-1,-9.194421172E-1,1.538277262E0
3.873265005E0,1.180259824E0,3.544368446E-1,-8.883354068E-1,1.519137427E0
3.875651359E0,1.185045362E0,3.544368446E-1,-8.428717852E-1,1.496793517E0
3.878037766E0,1.199402332E0,3.448655605E-1,-8.018946648E-1,1.483419449E0
3.880424172E0,1.218544960E0,3.305086195E-1,-7.660023570E-1,1.476769237E0
3.882810526E0,1.242473125E0,3.113660514E-1,-7.253243923E-1,1.471999918E0
3.885196932E0,1.268794179E0,2.898306549E-1,-6.894320250E-1,1.472805824E0
3.887583338E0,1.307079315E0,2.656033039E-1,-6.607181430E-1,1.488472343E0
3.889969693E0,1.342971683E0,2.368894368E-1,-6.343970895E-1,1.504044285E0
3.892356099E0,1.378864050E0,2.105683982E-1,-6.152545214E-1,1.524514101E0
3.894742505E0,1.417448282E0,1.914258152E-1,-6.032904387E-1,1.552341080E0
3.897128911E0,1.458126307E0,1.698904037E-1,-5.937191248E-1,1.583507965E0
3.899515266E0,1.496411443E0,1.435693651E-1,-5.841478109E-1,1.612788899E0
3.901901672E0,1.527518153E0,1.220339537E-1,-5.745765567E-1,1.636564149E0
3.904288078E0,1.546660781E0,9.810572863E-2,-5.650052428E-1,1.649550008E0
3.906674432E0,1.558624864E0,7.657032460E-2,-5.530411601E-1,1.655605329E0
3.909060838E0,1.568196177E0,6.221338734E-2,-5.434698462E-1,1.660864001E0
3.911447245E0,1.577767372E0,5.503492057E-2,-5.291129351E-1,1.665034300E0
3.913833599E0,1.582553029E0,5.503492057E-2,-5.147559643E-1,1.665075564E0
3.916220005E0,1.582553029E0,6.221338734E-2,-5.003990531E-1,1.660946660E0
3.918606411E0,1.575374603E0,7.417750359E-2,-4.836492836E-1,1.649613310E0
3.920992766E0,1.565803289E0,9.571290761E-2,-4.668995142E-1,1.636733350E0
3.923379172E0,1.553839207E0,1.268195957E-1,-4.525425732E-1,1.623358947E0
3.925765578E0,1.537089467E0,1.603191197E-1,-4.357928336E-1,1.605696623E0
3.928151984E0,1.520339727E0,1.986042857E-1,-4.142574072E-1,1.588233531E0
3.930538338E0,1.505982757E0,2.464607358E-1,-3.903291821E-1,1.575145653E0
3.932924745E0,1.496411443E0,3.041875660E-1,-3.640081584E-1,1.569802287E0
3.935311151E0,1.489233017E0,3.687937856E-1,-3.448655605E-1,1.572499949E0
3.937697505E0,1.470090389E0,4.262215197E-1,-3.329014480E-1,1.566414348E0
3.940083911E0,1.434198022E0,4.645066857E-1,-3.376871049E-1,1.544902265E0
3.942470318E0,1.386042476E0,4.884349108E-1,-3.496512175E-1,1.510608613E0
3.944856672E0,1.335793257E0,4.980062246E-1,-3.664009571E-1,1.471938683E0
3.947243078E0,1.287936807E0,5.003990531E-1,-3.951148391E-1,1.437113832E0
3.949629484E0,1.244866014E0,5.027918816E-1,-4.286143482E-1,1.409326551E0
3.952015891E0,1.204187989E0,5.051847100E-1,-4.549354017E-1,1.382840021E0
3.954402245E0,1.163509965E0,5.027918816E-1,-4.908277392E-1,1.359215577E0
3.956788651E0,1.122832060E0,4.932205677E-1,-5.243272781E-1,1.333768142E0
3.959175057E0,1.082154036E0,4.668995142E-1,-5.554339290E-1,1.302904203E0
3.961561411E0,1.043868899E0,4.334000051E-1,-5.793621540E-1,1.270101708E0
3.963947818E0,1.012762189E0,3.951148391E-1,-5.889334679E-1,1.236384090E0
3.966334224E0,9.936196208E-1,3.496512175E-1,-5.985047817E-1,1.211504807E0
3.968720578E0,9.816554785E-1,2.922234535E-1,-6.104688644E-1,1.192356599E0
3.971106984E0,9.649057388E-1,2.297109663E-1,-6.224330068E-1,1.170996610E0
3.973493391E0,9.505487680E-1,1.603191197E-1,-6.224330068E-1,1.147461559E0
3.975879745E0,9.457631707E-1,9.810572863E-2,-6.296114326E-1,1.140396100E0
3.978266151E0,9.385846853E-1,3.589234129E-2,-6.511468887E-1,1.142900583E0
3.980652557E0,9.337990284E-1,-3.110669367E-2,-6.774678826E-1,1.154084479E0
3.983038963E0,9.337990284E-1,-1.052841991E-1,-7.205387354E-1,1.184162766E0
3.985425318E0,9.361918569E-1,-1.962114573E-1,-7.660023570E-1,1.225444303E0
